Folder: Masteroppgave/Bakgrunnsmateriale/MATLAB/FTIR/ftir_data/LPE454/Mapping_121 (part 11)

File: LPE454_t18_cm-1.asc
PE IR       SPECTRUM    SPECTRUM    ASCII       PEDS        1.60
  -1
LPE7B9~1.ASC
17/05/19
15:48:21.00
17/05/19
15:48:21.00
tln
$LPE454_t0018$<tbV0>[-2.6,-10.4,8.0,0.0,27,1,0]
370
64

2002,4.07
MIRTGS : RIGHTBACK : INTERNAL 2
MIR : ON : INTERNAL 2
OPTKBR

0.200000
8
8.000000
FILLER
RATIO
SPECTRUM
UNLOCKED 256

DOUBLE
64
COMBINED
1
0
0

1.000000
RATIO

1
0
TRUE
51149
0
LEFT NOT FITTED RIGHT NOT FITTED 0
NONE
NONE
15600
12
4.427000
51148
TRUE
1 0 8 72 0 0 0 0

15798

#HDR
-1
-1
#GR
CM-1
%T
2.38419e-05
0.0
5000
-1.000000
4631
8
42.0396
-8.708095
#DATA
5000	0.446844
4984	0.311326
4968	-0.162935
4952	0.084877
4936	0.217723
4920	0.001215
4904	0.519156
4888	-0.169897
4872	-0.084257
4856	0.341606
4840	-0.084972
4824	0.238370
4808	0.166702
4792	0.038933
4776	-0.032210
4760	0.313901
4744	0.285840
4728	0.073194
4712	0.233411
4696	-0.977110
4680	0.078558
4664	-0.457882
4648	-0.691914
4632	0.185275
4616	1.084971
4600	-0.518751
4584	-0.203275
4568	-0.535321
4552	-0.296235
4536	-0.241756
4520	-0.880289
4504	2.290844
4488	17.5167
4472	-1.240515
4456	-1.018738
4440	-0.276327
4424	-0.407123
4408	-0.037169
4392	0.503897
4376	-0.142121
4360	0.547504
4344	0.107359
4328	0.419306
4312	-0.041508
4296	-0.049757
4280	0.518465
4264	0.007700
4248	-0.062417
4232	-0.023746
4216	0.000286
4200	-0.222110
4184	0.077033
4168	0.032734
4152	0.179028
4136	-0.288748
4120	-0.134277
4104	0.233983
4088	-0.002264
4072	0.197649
4056	0.095438
4040	-0.013518
4024	0.083136
4008	0.198316
3992	0.006294
3976	0.122427
3960	0.107407
3944	0.005197
3928	0.086283
3912	0.058126
3896	0.096678
3880	0.292372
3864	0.088024
3848	0.038409
3832	-0.202941
3816	0.127863
3800	-0.029802
3784	0.099182
3768	0.113296
3752	0.188493
3736	0.034809
3720	0.055289
3704	0.124549
3688	-0.159931
3672	-0.035500
3656	0.211548
3640	0.232577
3624	0.016665
3608	-0.072264
3592	0.135231
3576	0.254583
3560	0.110459
3544	0.129294
3528	0.021171
3512	0.039100
3496	-0.048375
3480	0.132155
3464	-0.071454
3448	-0.146770
3432	0.062155
3416	-0.053095
3400	0.103306
3384	-0.019025
3368	0.207376
3352	0.075101
3336	0.027728
3320	0.049424
3304	0.064301
3288	0.064420
3272	0.162434
3256	0.123667
3240	0.182700
3224	0.119233
3208	0.009417
3192	0.177574
3176	0.049471
3160	0.115823
3144	0.078463
3128	-0.058221
3112	-0.055813
3096	0.000357
3080	0.015759
3064	0.044941
3048	0.058221
3032	-0.009059
3016	0.276565
3000	0.028347
2984	0.050377
2968	-0.037550
2952	-0.037956
2936	0.205230
2920	-0.028109
2904	0.205421
2888	0.000023
2872	-0.103235
2856	0.161886
2840	0.010204
2824	0.056576
2808	0.064325
2792	0.020718
2776	-0.042629
2760	0.153470
2744	0.180935
2728	-0.005650
2712	0.005459
2696	-0.029850
2680	-0.036692
2664	0.128722
2648	-0.010800
2632	0.020933
2616	0.085973
2600	0.136590
2584	0.043034
2568	0.125837
2552	-0.001239
2536	0.077223
2520	-0.120711
2504	0.122308
2488	0.045561
2472	0.032591
2456	0.099062
2440	0.211501
2424	-0.027179
2408	-0.038027
2392	0.018501
2376	0.004434
2360	0.104331
2344	0.053167
2328	0.238180
2312	0.319337
2296	0.374221
2280	0.570845
2264	0.906181
2248	1.304817
2232	1.707553
2216	2.466201
2200	3.135752
2184	4.277205
2168	5.421233
2152	6.431555
2136	7.953357
2120	9.396553
2104	10.7835
2088	12.2838
2072	13.7989
2056	14.8413
2040	16.2289
2024	17.4339
2008	18.4657
1992	19.3909
1976	20.2407
1960	20.9351
1944	21.6272
1928	22.2297
1912	22.7711
1896	23.2596
1880	23.5562
1864	23.9302
1848	24.3078
1832	24.5598
1816	24.7559
1800	25.1468
1784	25.2857
1768	25.4471
1752	25.6461
1736	25.7704
1720	25.8445
1704	25.8755
1688	26.3391
1672	26.3289
1656	26.4855
1640	26.5221
1624	26.6762
1608	26.6354
1592	26.8646
1576	26.9288
1560	27.0326
1544	26.9675
1528	27.1621
1512	27.2213
1496	27.1078
1480	27.3312
1464	27.4199
1448	27.462
1432	27.481
1416	27.7547
1400	27.5149
1384	27.6138
1368	27.9857
1352	27.7588
1336	27.7875
1320	28.1012
1304	28.0363
1288	27.9042
1272	28.0189
1256	28.3695
1240	28.3422
1224	28.2295
1208	28.5821
1192	28.655
1176	28.1968
1160	28.4779
1144	28.7693
1128	28.5678
1112	28.4206
1096	28.7293
1080	29.0339
1064	28.5406
1048	28.5368
1032	28.8504
1016	28.8792
1000	28.3594
984	 28.6932
968	 28.7493
952	 28.1985
936	 28.3308
920	 29.1247
904	 28.2854
888	 27.8221
872	 28.5318
856	 28.3241
840	 27.8788
824	 27.614
808	 28.2206
792	 27.6056
776	 27.038
760	 27.6952
744	 27.2237
728	 26.2188
712	 26.3662
696	 26.6517
680	 26.4373
664	 25.0523
648	 25.8439
632	 25.6366
616	 24.9033
600	 24.8509
584	 24.9979
568	 24.0782
552	 23.7383
536	 24.5582
520	 23.6626
504	 22.3097
488	 21.2351
472	 22.3743
456	 18.8745
440	 18.1285
424	 16.9176
408	 17.1681
392	 -4.975628
376	 35.8433
370	 3.334999

File: LPE454_t19.asc
PE IR       SPECTRUM    SPECTRUM    ASCII       PEDS        1.60
  -1
LPE798~1.ASC
17/05/19
15:52:57.00
17/05/19
15:53:24.00
tln
$LPE454_t0019$<tbV0>[-5.2,-10.4,8.0,0.0,27,1,0]
27.028
64

2002,4.07
MIRTGS : RIGHTBACK : INTERNAL 2
MIR : ON : INTERNAL 2
OPTKBR

0.200000
8
8.000000
FILLER
RATIO
SPECTRUM
UNLOCKED 256

DOUBLE
64
COMBINED
1
0
0

0.002000
RATIO

1
0
TRUE
51149
0
LEFT NOT FITTED RIGHT NOT FITTED 0
NONE
NONE
15600
12
4.427000
51148
TRUE
1 0 8 72 0 0 0 0

15798

#HDR
-1
-1
#GR
µM
%T
2.38419e-05
0.0
2.000000
0.002000
12515
8
32.4759
-15.1128
#DATA
2.000000	 0.212788
2.084000	 -0.362210
2.168000	 1.277711
2.252000	 -0.073106
2.336000	 -0.099825
2.420000	 0.192066
2.504000	 -0.092971
2.588000	 0.066385
2.672000	 -0.115478
2.756000	 0.091022
2.840000	 0.147094
2.924000	 0.073700
3.008000	 -0.023452
3.092000	 -0.037736
3.176000	 0.036373
3.260000	 -0.009390
3.344000	 -0.003780
3.428000	 -0.023919
3.512000	 0.099484
3.596000	 0.004777
3.680000	 0.138628
3.764000	 0.016889
3.848000	 -0.051177
3.932000	 -0.026441
4.016000	 -0.173773
4.100000	 0.021553
4.184000	 0.012767
4.268000	 0.225857
4.352000	 0.515402
4.436000	 1.809969
4.520000	 3.666366
4.604000	 6.698005
4.688000	 10.7553
4.772000	 14.6011
4.856000	 18.3779
4.940000	 21.3318
5.024000	 23.7903
5.108000	 25.6853
5.192000	 26.6858
5.276000	 28.1691
5.359999	 28.4719
5.444000	 29.5297
5.528000	 29.4793
5.612000	 30.3476
5.696000	 30.084
5.780000	 30.8138
5.864000	 30.232
5.948000	 31.1317
6.032000	 30.9019
6.116000	 30.972
6.200000	 31.4037
6.284000	 30.939
6.368000	 31.4725
6.452000	 31.5804
6.536000	 30.9668
6.620000	 31.7224
6.704000	 31.7729
6.788000	 31.1571
6.872000	 31.5391
6.956000	 32.0606
7.040000	 31.2983
7.124000	 31.477
7.208000	 32.208
7.292000	 31.7389
7.376000	 31.1756
7.460000	 31.8153
7.544000	 32.2479
7.628000	 31.6773
7.712000	 31.2887
7.796000	 31.7658
7.880000	 32.1782
7.964000	 31.6591
8.048000	 31.5669
8.132000	 31.6529
8.216000	 32.2569
8.300000	 32.3649
8.384000	 31.7652
8.468000	 31.3522
8.552000	 31.7173
8.635999	 32.1148
8.719999	 32.3342
8.804000	 31.7953
8.888000	 31.391
8.972000	 31.4586
9.056000	 31.9463
9.140000	 32.3943
9.224000	 32.2113
9.308000	 31.7901
9.391999	 31.2085
9.475999	 31.547
9.560000	 31.5907
9.644000	 32.0358
9.728000	 32.0912
9.812000	 31.5962
9.896000	 31.3539
9.980000	 31.1393
10.064	31.4001
10.148	31.6891
10.232	32.1712
10.316	32.0825
10.4	31.6586
10.484	31.025
10.568	30.7515
10.652	30.8187
10.736	31.1217
10.82	31.6283
10.904	31.581
10.988	31.5116
11.072	31.2925
11.156	30.9653
11.24	30.4831
11.324	30.3208
11.408	30.4643
11.492	30.8229
11.576	31.2067
11.66	31.3705
11.744	31.0922
11.828	30.551
11.912	30.4847
11.996	30.4256
12.08	29.9496
12.164	29.8617
12.248	30.03
12.332	30.1245
12.416	30.3113
12.5	30.703
12.584	30.7888
12.668	30.5281
12.752	30.3189
12.836	30.0496
12.92	29.4818
13.004	29.1258
13.088	29.1855
13.172	29.2363
13.256	29.0318
13.34	29.3237
13.424	29.7706
13.508	30.1252
13.592	30.3313
13.676	29.8229
13.76	29.2361
13.844	28.7778
13.928	28.3114
14.012	28.1875
14.096	28.2393
14.18	28.2865
14.264	28.3228
14.348	28.2626
14.432	28.358
14.516	28.6583
14.6	28.7574
14.684	28.7607
14.768	28.9236
14.852	29.0336
14.936	28.9381
15.02	28.6887
15.104	28.2764
15.188	27.745
15.272	27.3131
15.356	27.1312
15.44	27.1656
15.524	27.205
15.608	27.1132
15.692	27.1118
15.776	27.2521
15.86	27.2838
15.944	27.2194
16.028	27.267
16.112	27.4544
16.196	27.662
16.28	27.7127
16.364	27.5022
16.448	27.1636
16.532	26.9243
16.616	26.8093
16.7	26.6567
16.784	26.3989
16.868	26.1631
16.952	26.05
17.036	25.9917
17.12	25.9037
17.204	25.8089
17.288	25.7571
17.372	25.7889
17.456	25.9714
17.54	26.2898
17.624	26.5484
17.708	26.5804
17.792	26.4634
17.876	26.3687
17.96	26.2859
18.044	26.0931
18.128	25.7945
18.212	25.5134
18.296	25.3311
18.38	25.2595
18.464	25.278
18.548	25.2966
18.632	25.1836
18.716	24.9102
18.8	24.6245
18.884	24.5036
18.968	24.5758
19.052	24.7306
19.136	24.8843
19.22	25.0593
19.304	25.2986
19.388	25.5474
19.472	25.6663
19.556	25.5594
19.64	25.2819
19.724	25.0124
19.808	24.9088
19.892	24.9815
19.976	25.1101
20.06	25.1772
20.144	25.1599
20.228	25.0966
20.312	25.0049
20.396	24.8563
20.48	24.6321
20.564	24.381
20.648	24.2097
20.732	24.1999
20.816	24.3394
20.9	24.5228
20.984	24.6262
21.068	24.5951
21.152	24.4791
21.236	24.3843
21.32	24.3923
21.404	24.5021
21.488	24.6407
21.572	24.7223
21.656	24.7036
21.74	24.5914
21.824	24.4231
21.908	24.2364
21.992	24.057
22.076	23.91
22.16	23.8142
22.244	23.7589
22.328	23.7044
22.412	23.602
22.496	23.4281
22.58	23.216
22.664	23.0349
22.748	22.9425
22.832	22.9377
22.916	22.9492
23	22.8397
23.084	22.5035
23.168	21.9004
23.252	21.0767
23.336	20.1699
23.42	19.387
23.504	18.9426
23.588	18.9466
23.672	19.3459
23.756	19.9348
23.84	20.4918
23.924	20.8141
24.008	20.7659
24.092	20.2913
24.176	19.3926
24.26	18.284
24.344	17.4261
24.428	17.3225
24.512	18.3343
24.596	20.4446
24.68	23.2041
24.764	25.8611
24.848	27.7671
24.932	28.549
25.016	28.26
25.1	27.242
25.184	26.0524
25.268	25.1084
25.352	24.4039
25.436	23.553
25.52	22.0325
25.604	19.4788
25.688	15.6125
25.772	10.3557
25.856	3.927484
25.94	-2.947754
26.024	-9.126878
26.108	-13.4013
26.192	-15.0994
26.276	-14.1686
26.36	-11.3322
26.444	-7.131257
26.528	-1.788197
26.612	5.069043
26.696	13.0704
26.78	20.5116
26.864	24.2714
26.948	21.092
27.028	10.2085

File: LPE454_t19_cm-1.asc
PE IR       SPECTRUM    SPECTRUM    ASCII       PEDS        1.60
  -1
LPE73D~1.ASC
17/05/19
15:52:57.00
17/05/19
15:52:57.00
tln
$LPE454_t0019$<tbV0>[-5.2,-10.4,8.0,0.0,27,1,0]
370
64

2002,4.07
MIRTGS : RIGHTBACK : INTERNAL 2
MIR : ON : INTERNAL 2
OPTKBR

0.200000
8
8.000000
FILLER
RATIO
SPECTRUM
UNLOCKED 256

DOUBLE
64
COMBINED
1
0
0

1.000000
RATIO

1
0
TRUE
51149
0
LEFT NOT FITTED RIGHT NOT FITTED 0
NONE
NONE
15600
12
4.427000
51148
TRUE
1 0 8 72 0 0 0 0

15798

#HDR
-1
-1
#GR
CM-1
%T
2.38419e-05
0.0
5000
-1.000000
4631
8
32.4759
-15.0114
#DATA
5000	0.212788
4984	-0.099706
4968	0.534939
4952	0.326800
4936	-0.090074
4920	-0.156688
4904	0.061440
4888	0.396180
4872	0.576233
4856	0.040197
4840	0.257229
4824	0.169062
4808	-0.061154
4792	0.422763
4776	0.341105
4760	0.379276
4744	0.342845
4728	0.121760
4712	0.279521
4696	0.032424
4680	0.565290
4664	0.799536
4648	0.659990
4632	-0.734448
4616	0.400400
4600	1.623988
4584	0.640678
4568	-0.604796
4552	0.348281
4536	-0.389957
4520	-0.399041
4504	5.550193
4488	-3.404498
4472	-0.859332
4456	-0.473880
4440	-0.003623
4424	0.565695
4408	0.478816
4392	0.686764
4376	0.460028
4360	0.934863
4344	0.314116
4328	0.311303
4312	0.278854
4296	0.282144
4280	-0.116968
4264	-0.100588
4248	-0.353956
4232	0.225591
4216	0.214314
4200	0.399470
4184	-0.999426
4168	0.659751
4152	0.092387
4136	0.211095
4120	-0.034952
4104	0.359630
4088	-0.000119
4072	0.377583
4056	0.325250
4040	0.078296
4024	-0.056481
4008	0.150513
3992	-0.126171
3976	0.071072
3960	0.081229
3944	-0.024175
3928	-0.166511
3912	-0.107622
3896	0.165414
3880	0.047659
3864	0.066542
3848	-0.082182
3832	-0.032377
3816	0.243544
3800	0.084996
3784	0.026774
3768	0.004601
3752	-0.017213
3736	-0.067496
3720	-0.032782
3704	0.184106
3688	0.083899
3672	0.020813
3656	0.117588
3640	0.062799
3624	0.100660
3608	0.227141
3592	-0.031733
3576	-0.023412
3560	0.120210
3544	0.260424
3528	0.109338
3512	0.154232
3496	0.000739
3480	-0.042915
3464	0.123405
3448	0.077867
3432	-0.084328
3416	0.037479
3400	0.121855
3384	0.207066
3368	-0.108885
3352	0.013756
3336	-0.148320
3320	-0.023937
3304	-0.134062
3288	0.036597
3272	0.100517
3256	0.060486
3240	0.024485
3224	-0.031590
3208	-0.034260
3192	0.071740
3176	-0.111269
3160	-0.025987
3144	0.147199
3128	0.269579
3112	0.236463
3096	-0.142979
3080	0.016260
3064	0.094342
3048	-0.008940
3032	0.043153
3016	-0.058746
3000	-0.066208
2984	-0.018811
2968	-0.005865
2952	0.041842
2936	0.271081
2920	-0.037240
2904	-0.004053
2888	-0.011134
2872	0.041532
2856	-0.010657
2840	-0.063538
2824	0.118136
2808	0.061273
2792	0.056171
2776	0.010180
2760	-0.017929
2744	0.037074
2728	-0.062751
2712	0.087165
2696	-0.008654
2680	-0.039982
2664	0.065946
2648	0.071001
2632	0.084447
2616	0.129389
2600	-0.026440
2584	-0.027632
2568	-0.072097
2552	0.066661
2536	0.102901
2520	-0.056052
2504	0.199031
2488	-0.200152
2472	-0.015211
2456	0.050783
2440	0.005578
2424	-0.077986
2408	-0.182628
2392	0.024318
2376	0.095987
2360	0.168848
2344	0.210642
2328	0.323247
2312	0.480079
2296	0.561261
2280	0.969600
2264	1.317119
2248	2.014970
2232	2.615642
2216	3.438305
2200	4.497766
2184	5.840754
2168	7.140636
2152	8.759760
2136	10.4328
2120	12.0888
2104	13.8023
2088	15.4647
2072	17.0051
2056	18.7162
2040	20.1866
2024	21.3601
2008	22.7273
1992	23.7318
1976	24.5291
1960	25.5203
1944	26.3747
1928	26.6486
1912	27.4756
1896	28.1491
1880	28.3196
1864	28.533
1848	29.2116
1832	29.5124
1816	29.4044
1800	29.8681
1784	30.371
1768	30.2215
1752	30.2372
1736	30.8782
1720	30.8714
1704	30.2992
1688	30.7976
1672	31.2659
1656	30.9137
1640	30.7727
1624	31.4357
1608	31.2886
1592	30.9458
1576	31.2457
1560	31.7944
1544	31.4187
1528	30.9656
1512	31.6311
1496	31.9178
1480	31.2634
1464	31.2834
1448	31.7317
1432	31.6864
1416	31.2452
1400	31.6225
1384	32.234
1368	31.517
1352	31.2791
1336	32.0559
1320	32.0647
1304	31.4419
1288	31.4583
1272	32.2079
1256	31.6829
1240	31.5433
1224	31.8971
1208	32.4043
1192	31.7107
1176	31.4944
1160	32.0587
1144	32.2792
1128	31.4952
1112	31.6422
1096	32.2903
1080	32.0322
1064	31.2021
1048	31.6655
1032	32.2656
1016	31.4776
1000	31.1578
984	 31.7397
968	 32.0108
952	 30.8878
936	 30.8693
920	 31.6175
904	 31.3148
888	 30.3946
872	 30.6787
856	 31.3503
840	 30.4703
824	 29.8312
808	 30.191
792	 30.6727
776	 29.7191
760	 29.2562
744	 29.8357
728	 29.3724
712	 28.2068
696	 28.2575
680	 28.7905
664	 28.5137
648	 27.1578
632	 27.2925
616	 27.7146
600	 26.7312
584	 25.8997
568	 26.5088
552	 25.8392
536	 25.1161
520	 25.0862
504	 24.9217
488	 24.5966
472	 24.4313
456	 24.188
440	 22.9559
424	 18.9389
408	 18.2932
392	 22.2586
376	 3.624057
370	 10.2085

File: LPE454_t20.asc
PE IR       SPECTRUM    SPECTRUM    ASCII       PEDS        1.60
  -1
LPCB9C~1.ASC
17/05/19
15:57:34.00
17/05/19
15:58:00.00
tln
$LPE454_t0020$<tbV0>[-7.8,-10.4,8.0,0.0,27,1,0]
27.028
64

2002,4.07
MIRTGS : RIGHTBACK : INTERNAL 2
MIR : ON : INTERNAL 2
OPTKBR

0.200000
8
8.000000
FILLER
RATIO
SPECTRUM
UNLOCKED 256

DOUBLE
64
COMBINED
1
0
0

0.002000
RATIO

1
0
TRUE
51149
0
LEFT NOT FITTED RIGHT NOT FITTED 0
NONE
NONE
15600
12
4.427000
51148
TRUE
1 0 8 72 0 0 0 0

15798

#HDR
-1
-1
#GR
µM
%T
2.38419e-05
0.0
2.000000
0.002000
12515
8
30.9038
-3.397196
#DATA
2.000000	 -0.229763
2.084000	 0.232830
2.168000	 0.235841
2.252000	 0.447118
2.336000	 0.218099
2.420000	 0.314886
2.504000	 0.066465
2.588000	 0.042513
2.672000	 0.002895
2.756000	 0.185674
2.840000	 0.181477
2.924000	 0.116232
3.008000	 -0.051094
3.092000	 0.027908
3.176000	 -0.022404
3.260000	 0.096983
3.344000	 0.067829
3.428000	 -0.041386
3.512000	 0.036639
3.596000	 0.111058
3.680000	 0.065871
3.764000	 0.127841
3.848000	 0.120309
3.932000	 0.090037
4.016000	 -0.070849
4.100000	 0.248293
4.184000	 0.073382
4.268000	 0.304177
4.352000	 0.520387
4.436000	 1.550390
4.520000	 3.023000
4.604000	 5.610928
4.688000	 8.270709
4.772000	 11.5304
4.856000	 13.9636
4.940000	 16.332
5.024000	 17.944
5.108000	 19.3159
5.192000	 20.2496
5.276000	 21.2488
5.359999	 21.7719
5.444000	 22.4012
5.528000	 22.7185
5.612000	 23.1326
5.696000	 23.262
5.780000	 23.5346
5.864000	 23.7445
5.948000	 23.9126
6.032000	 24.1038
6.116000	 24.2344
6.200000	 24.3673
6.284000	 24.4635
6.368000	 24.5269
6.452000	 24.6655
6.536000	 24.7263
6.620000	 24.9213
6.704000	 24.9236
6.788000	 25.0615
6.872000	 25.0709
6.956000	 25.0205
7.040000	 25.1851
7.124000	 25.2011
7.208000	 25.2879
7.292000	 25.4354
7.376000	 25.548
7.460000	 25.459
7.544000	 25.4246
7.628000	 25.7459
7.712000	 25.8164
7.796000	 25.7559
7.880000	 25.7934
7.964000	 26.0176
8.048000	 25.9589
8.132000	 25.9842
8.216000	 26.055
8.300000	 26.0928
8.384000	 26.3538
8.468000	 26.2195
8.552000	 26.2742
8.635999	 26.3311
8.719999	 26.3824
8.804000	 26.4476
8.888000	 26.6619
8.972000	 26.3274
9.056000	 26.6618
9.140000	 26.4504
9.224000	 26.4059
9.308000	 26.6659
9.391999	 26.7996
9.475999	 26.8289
9.560000	 26.5881
9.644000	 26.6518
9.728000	 26.3471
9.812000	 26.3302
9.896000	 26.7486
9.980000	 26.9944
10.064	26.8408
10.148	26.9168
10.232	26.62
10.316	26.5372
10.4	26.7502
10.484	27.0272
10.568	27.1647
10.652	27.215
10.736	26.8031
10.82	26.6177
10.904	26.5344
10.988	26.7788
11.072	26.9737
11.156	26.842
11.24	26.7993
11.324	26.8356
11.408	26.6659
11.492	26.4466
11.576	26.3507
11.66	26.2459
11.744	26.2822
11.828	26.2099
11.912	26.331
11.996	26.6597
12.08	26.9299
12.164	26.8729
12.248	26.7928
12.332	26.5308
12.416	26.2362
12.5	26.2455
12.584	26.2089
12.668	26.0244
12.752	26.0893
12.836	26.3603
12.92	26.6279
13.004	26.7199
13.088	26.7255
13.172	26.5468
13.256	26.1617
13.34	25.9537
13.424	25.4638
13.508	24.8177
13.592	24.9491
13.676	25.5487
13.76	25.8871
13.844	25.8122
13.928	25.6931
14.012	25.7445
14.096	25.8376
14.18	25.8508
14.264	25.9202
14.348	26.0516
14.432	25.9344
14.516	25.7031
14.6	25.5396
14.684	25.3344
14.768	25.0768
14.852	24.7182
14.936	24.4247
15.02	24.4996
15.104	24.8617
15.188	25.1477
15.272	25.1675
15.356	25.0246
15.44	24.8978
15.524	24.8786
15.608	24.9249
15.692	24.9246
15.776	24.8508
15.86	24.7237
15.944	24.5195
16.028	24.2675
16.112	24.0709
16.196	23.9748
16.28	23.946
16.364	23.9685
16.448	24.0643
16.532	24.1881
16.616	24.2491
16.7	24.2444
16.784	24.2183
16.868	24.1539
16.952	24.0374
17.036	23.9391
17.12	23.9132
17.204	23.8982
17.288	23.8177
17.372	23.686
17.456	23.5635
17.54	23.4638
17.624	23.3413
17.708	23.1609
17.792	22.9579
17.876	22.7994
17.96	22.7008
18.044	22.6461
18.128	22.6737
18.212	22.8293
18.296	23.038
18.38	23.1346
18.464	23.0228
18.548	22.7649
18.632	22.5154
18.716	22.3869
18.8	22.3906
18.884	22.4803
18.968	22.6187
19.052	22.7756
19.136	22.8847
19.22	22.8495
19.304	22.6231
19.388	22.2762
19.472	21.9523
19.556	21.7437
19.64	21.63
19.724	21.5482
19.808	21.4907
19.892	21.4979
19.976	21.5918
20.06	21.7391
20.144	21.8853
20.228	21.9828
20.312	21.9839
20.396	21.8248
20.48	21.4669
20.564	20.9613
20.648	20.4559
20.732	20.1221
20.816	20.0587
20.9	20.2559
20.984	20.6416
21.068	21.1408
21.152	21.6927
21.236	22.2158
21.32	22.5853
21.404	22.665
21.488	22.3903
21.572	21.8261
21.656	21.1537
21.74	20.5802
21.824	20.2367
21.908	20.1259
21.992	20.1532
22.076	20.2058
22.16	20.2235
22.244	20.2082
22.328	20.1844
22.412	20.159
22.496	20.1054
22.58	19.9924
22.664	19.8209
22.748	19.6243
22.832	19.4177
22.916	19.1789
23	18.8581
23.084	18.4084
23.168	17.8709
23.252	17.3975
23.336	17.1884
23.42	17.3807
23.504	17.957
23.588	18.7313
23.672	19.4407
23.756	19.8384
23.84	19.8188
23.924	19.4869
24.008	19.1268
24.092	19.1033
24.176	19.6983
24.26	20.9204
24.344	22.4476
24.428	23.7383
24.512	24.1233
24.596	23.1787
24.68	20.9061
24.764	17.7659
24.848	14.4556
24.932	11.6493
25.016	9.681301
25.1	8.499504
25.184	7.733131
25.268	7.008360
25.352	6.264423
25.436	5.653125
25.52	5.400007
25.604	5.636223
25.688	6.322422
25.772	7.350158
25.856	8.685591
25.94	10.2779
26.024	12.0394
26.108	13.8073
26.192	15.7978
26.276	18.3798
26.36	21.9036
26.444	25.9667
26.528	29.5051
26.612	30.9012
26.696	29.3398
26.78	25.5709
26.864	22.0748
26.948	21.9547
27.028	26.7656

File: LPE454_t20_cm-1.asc
PE IR       SPECTRUM    SPECTRUM    ASCII       PEDS        1.60
  -1
LP58B5~1.ASC
17/05/19
15:57:34.00
17/05/19
15:57:34.00
tln
$LPE454_t0020$<tbV0>[-7.8,-10.4,8.0,0.0,27,1,0]
370
64

2002,4.07
MIRTGS : RIGHTBACK : INTERNAL 2
MIR : ON : INTERNAL 2
OPTKBR

0.200000
8
8.000000
FILLER
RATIO
SPECTRUM
UNLOCKED 256

DOUBLE
64
COMBINED
1
0
0

1.000000
RATIO

1
0
TRUE
51149
0
LEFT NOT FITTED RIGHT NOT FITTED 0
NONE
NONE
15600
12
4.427000
51148
TRUE
1 0 8 72 0 0 0 0

15798

#HDR
-1
-1
#GR
CM-1
%T
2.38419e-05
0.0
5000
-1.000000
4631
8
30.868
-4.192829
#DATA
5000	-0.229763
4984	-0.127148
4968	0.475668
4952	0.377535
4936	0.360393
4920	-0.180625
4904	-0.018405
4888	0.809478
4872	-0.201535
4856	-0.047588
4840	0.341415
4824	0.377416
4808	0.495553
4792	-0.014925
4776	0.391602
4760	0.085711
4744	-0.206160
4728	0.155496
4712	0.238919
4696	0.121712
4680	0.770115
4664	-0.721788
4648	0.159978
4632	-0.137710
4616	0.050044
4600	1.406836
4584	0.002479
4568	-0.042581
4552	-1.114010
4536	1.430535
4520	0.740003
4504	4.938340
4488	5.477023
4472	-0.038528
4456	-0.268626
4440	0.471496
4424	0.102162
4408	0.165724
4392	0.343179
4376	0.385117
4360	0.166082
4344	0.341010
4328	0.116991
4312	0.241875
4296	0.423932
4280	0.212955
4264	-0.403118
4248	-0.383639
4232	0.147724
4216	0.016331
4200	-0.037837
4184	-0.386476
4168	-0.333786
4152	0.019669
4136	0.372552
4120	0.075650
4104	0.048518
4088	0.131392
4072	0.052952
4056	0.070667
4040	-0.082349
4024	0.191545
4008	0.234246
3992	0.012016
3976	0.122499
3960	0.008773
3944	0.124049
3928	0.210547
3912	-0.041580
3896	0.112986
3880	0.157117
3864	0.042510
3848	0.077748
3832	-0.140619
3816	-0.017762
3800	-0.030159
3784	-0.006818
3768	-0.081443
3752	0.170469
3736	-0.081753
3720	0.154137
3704	0.121879
3688	0.087571
3672	0.182557
3656	-0.020575
3640	0.051474
3624	0.108504
3608	0.178480
3592	0.125741
3576	0.104618
3560	-0.214266
3544	-0.110507
3528	0.161695
3512	-0.069594
3496	0.068759
3480	0.279259
3464	0.139331
3448	0.086283
3432	0.209403
3416	0.046992
3400	0.111484
3384	0.142836
3368	-0.064611
3352	0.097560
3336	0.133061
3320	-0.027537
3304	0.194215
3288	-0.033712
3272	-0.040507
3256	0.010991
3240	0.005483
3224	0.184965
3208	0.080966
3192	0.062799
3176	0.037384
3160	0.025653
3144	-0.016045
3128	0.359511
3112	0.070071
3096	0.065636
3080	-0.096321
3064	0.064635
3048	0.061178
3032	-0.059700
3016	0.162887
3000	0.015926
2984	0.068354
2968	0.035691
2952	0.074267
2936	-0.013947
2920	-0.020170
2904	-0.006127
2888	-0.042176
2872	0.185966
2856	0.008583
2840	0.079250
2824	0.066971
2808	-0.003886
2792	0.057506
2776	0.061941
2760	0.118565
2744	0.094771
2728	0.047254
2712	0.082635
2696	0.050544
2680	-0.010609
2664	0.077223
2648	0.148463
2632	0.041055
2616	0.036430
2600	0.107336
2584	0.138854
2568	-0.018239
2552	0.102734
2536	0.115156
2520	-0.146389
2504	0.110054
2488	-0.058388
2472	0.000905
2456	-0.177836
2440	0.205421
2424	0.182890
2408	0.126385
2392	0.078988
2376	0.107383
2360	0.094985
2344	0.309944
2328	0.357365
2312	0.486588
2296	0.574302
2280	0.900793
2264	1.130962
2248	1.724123
2232	2.324891
2216	2.946758
2200	3.641867
2184	4.751157
2168	5.912232
2152	6.850743
2136	7.980847
2120	9.393310
2104	10.8113
2088	12.1368
2072	13.1032
2056	14.1553
2040	15.3046
2024	16.3522
2008	17.0852
1992	17.8318
1976	18.5565
1960	19.213
1944	19.8193
1928	20.2127
1912	20.8048
1896	21.2343
1880	21.4012
1864	21.7929
1848	22.2117
1832	22.5112
1816	22.6509
1800	22.9499
1784	23.1101
1768	23.4
1752	23.3073
1736	23.6274
1720	23.7226
1704	23.7567
1688	23.8622
1672	24.0208
1656	24.1349
1640	24.1524
1624	24.1105
1608	24.485
1592	24.4685
1576	24.5537
1560	24.7486
1544	24.8753
1528	24.716
1512	24.8919
1496	24.9287
1480	25.0674
1464	25.0536
1448	24.9879
1432	25.166
1416	25.2294
1400	25.1519
1384	25.3955
1368	25.4763
1352	25.5525
1336	25.4323
1320	25.5944
1304	25.8329
1288	25.87
1272	25.7677
1256	26.0128
1240	25.9724
1224	26.0177
1208	26.0847
1192	26.3446
1176	26.1766
1160	26.3633
1144	26.4363
1128	26.6359
1112	26.3485
1096	26.5065
1080	26.4294
1064	26.8194
1048	26.6472
1032	26.5801
1016	26.4441
1000	26.8657
984	 26.8667
968	 26.5382
952	 27.0747
936	 27.1172
920	 26.575
904	 26.9818
888	 26.7786
872	 26.4536
856	 26.2625
840	 26.3106
824	 26.9037
808	 26.3474
792	 26.1076
776	 26.5338
760	 26.6018
744	 25.3113
728	 25.8397
712	 25.7865
696	 26.0521
680	 25.2735
664	 24.6587
648	 24.9057
632	 24.7875
616	 23.9561
600	 24.2505
584	 23.913
568	 23.3728
552	 22.662
536	 22.4625
520	 22.831
504	 21.4833
488	 21.4025
472	 21.917
456	 20.1248
440	 19.6737
424	 18.7028
408	 24.1296
392	 5.404782
376	 30.868
370	 26.7656