Folder: Masteroppgave/Bakgrunnsmateriale/MATLAB/FTIR/ftir_data/LPE454/Mapping_121 (part 5)

File: LPE454_t03_cm-1.asc
PE IR       SPECTRUM    SPECTRUM    ASCII       PEDS        1.60
  -1
LP5730~1.ASC
17/05/19
14:38:34.00
17/05/19
14:38:34.00
tln
$LPE454_t0003$<tbV0>[7.8,-13.0,8.0,0.0,27,1,0]
370
64

2002,4.07
MIRTGS : RIGHTBACK : INTERNAL 2
MIR : ON : INTERNAL 2
OPTKBR

0.200000
8
8.000000
FILLER
RATIO
SPECTRUM
UNLOCKED 256

DOUBLE
64
COMBINED
1
0
0

1.000000
RATIO

1
0
TRUE
51149
0
LEFT NOT FITTED RIGHT NOT FITTED 0
NONE
NONE
15600
12
4.427000
51148
TRUE
1 0 8 72 0 0 0 0

15798

#HDR
-1
-1
#GR
CM-1
%T
2.38419e-05
0.0
5000
-1.000000
4631
8
42.4808
-30.9342
#DATA
5000	-0.401926
4984	0.326657
4968	0.431609
4952	0.592970
4936	-0.466084
4920	0.094437
4904	0.380349
4888	1.028418
4872	1.051282
4856	1.620888
4840	0.797104
4824	0.163316
4808	1.602649
4792	0.298976
4776	0.281834
4760	0.142145
4744	0.320243
4728	-0.094175
4712	-0.003290
4696	-0.005388
4680	0.349426
4664	-0.068783
4648	0.283432
4632	0.341343
4616	0.296139
4600	0.612139
4584	0.165915
4568	0.372266
4552	-0.033998
4536	0.173807
4520	0.316762
4504	-0.783991
4488	-0.408315
4472	3.236556
4456	11.857
4440	-0.584149
4424	-1.281452
4408	-0.707483
4392	-0.678062
4376	-0.711321
4360	0.087761
4344	0.171828
4328	0.113296
4312	0.117993
4296	0.042819
4280	-0.044989
4264	0.148105
4248	0.843811
4232	-0.034642
4216	0.190901
4200	0.499200
4184	0.778412
4168	-0.043630
4152	0.051379
4136	0.069832
4120	0.103187
4104	0.193667
4088	0.108957
4072	0.301885
4056	0.320625
4040	0.240778
4024	0.100398
4008	-0.222229
3992	-0.038599
3976	0.182175
3960	0.063085
3944	0.136518
3928	0.062227
3912	0.078821
3896	0.262618
3880	-0.138545
3864	-0.024867
3848	0.040626
3832	0.180482
3816	0.255942
3800	-0.111699
3784	-0.028324
3768	0.048875
3752	0.012779
3736	0.249290
3720	-0.176310
3704	0.078725
3688	0.028634
3672	0.181698
3656	0.084328
3640	0.197029
3624	0.073075
3608	0.277972
3592	-0.013995
3576	-0.087499
3560	-0.021362
3544	0.123071
3528	0.004959
3512	0.218296
3496	-0.016450
3480	0.198292
3464	0.085854
3448	-0.057697
3432	0.021600
3416	-0.078654
3400	-0.011968
3384	0.076460
3368	0.149464
3352	0.092411
3336	0.061774
3320	0.053238
3304	0.097084
3288	0.035262
3272	-0.054526
3256	0.052785
3240	-0.034141
3224	0.025463
3208	0.049543
3192	0.101661
3176	0.215363
3160	0.065946
3144	-0.008082
3128	0.221776
3112	0.063371
3096	-0.106525
3080	-0.033283
3064	0.021553
3048	-0.040054
3032	0.054430
3016	0.015735
3000	0.038194
2984	-0.009298
2968	0.034618
2952	0.079250
2936	0.020813
2920	0.038933
2904	0.102877
2888	0.114679
2872	0.096130
2856	-0.058436
2840	0.098204
2824	0.031542
2808	0.009942
2792	0.066304
2776	0.081038
2760	-0.026011
2744	-0.040435
2728	0.060820
2712	-0.045442
2696	0.057458
2680	0.099921
2664	0.014185
2648	0.017690
2632	0.036025
2616	0.023889
2600	0.093317
2584	0.075793
2568	0.025916
2552	0.000095
2536	0.067305
2520	-0.037097
2504	0.070166
2488	0.010108
2472	0.094580
2456	0.163149
2440	0.067687
2424	0.108122
2408	0.108814
2392	0.233268
2376	0.197625
2360	0.306606
2344	0.384449
2328	0.578832
2312	0.618124
2296	1.163244
2280	1.635622
2264	2.233934
2248	3.099918
2232	4.015970
2216	5.226111
2200	6.582689
2184	8.258390
2168	10.0841
2152	12.0845
2136	14.06
2120	15.9566
2104	17.8229
2088	20.0461
2072	21.7868
2056	23.3786
2040	25.0588
2024	26.7315
2008	27.7742
1992	28.8893
1976	30.1902
1960	31.1357
1944	31.5977
1928	32.3416
1912	33.2743
1896	33.7738
1880	33.7925
1864	34.495
1848	35.1304
1832	35.2091
1816	35.1433
1800	35.7169
1784	36.1476
1768	35.8128
1752	35.9107
1736	36.5633
1720	36.6868
1704	36.0502
1688	36.2883
1672	36.7284
1656	36.6463
1640	36.1359
1624	36.3195
1608	36.7153
1592	36.53
1576	36.1737
1560	36.523
1544	36.9879
1528	36.465
1512	36.0895
1496	36.4688
1480	36.769
1464	36.113
1448	35.5815
1432	36.2681
1416	36.7427
1400	35.9736
1384	35.6765
1368	36.1856
1352	36.5058
1336	35.7146
1320	35.4698
1304	36.1903
1288	36.3292
1272	35.4536
1256	35.261
1240	36.087
1224	36.094
1208	35.1647
1192	35.2068
1176	36.1147
1160	35.9307
1144	34.9218
1128	35.002
1112	35.7325
1096	35.7072
1080	34.6629
1064	34.722
1048	35.6432
1032	35.3936
1016	34.7005
1000	34.3524
984	 35.1236
968	 34.7307
952	 33.5677
936	 34.0894
920	 34.7252
904	 34.2385
888	 33.1958
872	 33.5666
856	 34.0594
840	 33.7153
824	 32.774
808	 32.8425
792	 33.4789
776	 32.6681
760	 31.7116
744	 32.1101
728	 32.5046
712	 31.8261
696	 30.7554
680	 30.9754
664	 31.5424
648	 30.8063
632	 29.6117
616	 29.5253
600	 29.9634
584	 29.1345
568	 28.0756
552	 28.0114
536	 29.3216
520	 27.5743
504	 26.6725
488	 26.4223
472	 28.1528
456	 24.157
440	 25.4725
424	 23.4178
408	 38.1507
392	 32.937
376	 -15.8213
370	 -25.7992

File: LPE454_t04.asc
PE IR       SPECTRUM    SPECTRUM    ASCII       PEDS        1.60
  -1
LPD39C~1.ASC
17/05/19
14:43:11.00
17/05/19
14:43:37.00
tln
$LPE454_t0004$<tbV0>[5.2,-13.0,8.0,0.0,27,1,0]
27.028
64

2002,4.07
MIRTGS : RIGHTBACK : INTERNAL 2
MIR : ON : INTERNAL 2
OPTKBR

0.200000
8
8.000000
FILLER
RATIO
SPECTRUM
UNLOCKED 256

DOUBLE
64
COMBINED
1
0
0

0.002000
RATIO

1
0
TRUE
51149
0
LEFT NOT FITTED RIGHT NOT FITTED 0
NONE
NONE
15600
12
4.427000
51148
TRUE
1 0 8 72 0 0 0 0

15798

#HDR
-1
-1
#GR
µM
%T
2.38419e-05
0.0
2.000000
0.002000
12515
8
89.6533
-6.327318
#DATA
2.000000	 0.100278
2.084000	 1.212648
2.168000	 0.310396
2.252000	 1.282555
2.336000	 0.241678
2.420000	 0.165778
2.504000	 0.041542
2.588000	 0.053388
2.672000	 -0.072884
2.756000	 0.020182
2.840000	 0.030203
2.924000	 -0.126226
3.008000	 0.287676
3.092000	 -0.056805
3.176000	 0.234338
3.260000	 -0.084902
3.344000	 0.051822
3.428000	 -0.068947
3.512000	 -0.252922
3.596000	 0.011281
3.680000	 -0.076170
3.764000	 -0.060240
3.848000	 0.102647
3.932000	 0.066587
4.016000	 -0.078758
4.100000	 0.157930
4.184000	 0.039192
4.268000	 0.306008
4.352000	 1.004863
4.436000	 2.296743
4.520000	 4.989394
4.604000	 8.864266
4.688000	 13.8083
4.772000	 18.2787
4.856000	 22.8008
4.940000	 26.2401
5.024000	 28.7646
5.108000	 30.8533
5.192000	 32.2022
5.276000	 33.1739
5.359999	 33.9372
5.444000	 34.4883
5.528000	 34.9821
5.612000	 35.2606
5.696000	 35.1672
5.780000	 35.4986
5.864000	 35.615
5.948000	 36.0746
6.032000	 35.5969
6.116000	 35.7673
6.200000	 36.0404
6.284000	 35.4707
6.368000	 35.79
6.452000	 35.8618
6.536000	 35.4035
6.620000	 35.9568
6.704000	 35.9442
6.788000	 35.4367
6.872000	 35.6088
6.956000	 35.918
7.040000	 35.4067
7.124000	 34.972
7.208000	 35.5388
7.292000	 35.8304
7.376000	 35.2361
7.460000	 35.004
7.544000	 35.5438
7.628000	 35.6693
7.712000	 35.0989
7.796000	 34.9228
7.880000	 35.2334
7.964000	 35.4245
8.048000	 35.2185
8.132000	 34.7258
8.216000	 34.8483
8.300000	 35.3337
8.384000	 35.6233
8.468000	 35.0032
8.552000	 34.478
8.635999	 34.4081
8.719999	 34.9586
8.804000	 35.1409
8.888000	 34.9444
8.972000	 34.3505
9.056000	 34.0639
9.140000	 34.1237
9.224000	 34.5867
9.308000	 34.9239
9.391999	 34.8446
9.475999	 34.3208
9.560000	 33.5713
9.644000	 33.5975
9.728000	 33.7209
9.812000	 34.3445
9.896000	 34.4561
9.980000	 34.4855
10.064	33.9454
10.148	33.4978
10.232	33.2673
10.316	33.5941
10.4	33.6531
10.484	33.7536
10.568	33.9702
10.652	33.7529
10.736	33.4329
10.82	32.918
10.904	32.6323
10.988	32.8685
11.072	33.2247
11.156	33.4612
11.24	33.6436
11.324	33.5313
11.408	33.1962
11.492	32.9737
11.576	32.5054
11.66	32.1727
11.744	32.3181
11.828	32.4511
11.912	32.527
11.996	32.9445
12.08	33.1284
12.164	32.9257
12.248	32.2927
12.332	31.9186
12.416	31.6417
12.5	31.3392
12.584	31.2437
12.668	31.1475
12.752	31.2873
12.836	31.4926
12.92	32.0553
13.004	32.3946
13.088	32.4407
13.172	32.4857
13.256	32.1212
13.34	31.6462
13.424	31.1019
13.508	30.4132
13.592	30.1893
13.676	30.2427
13.76	30.2603
13.844	30.2945
13.928	30.4304
14.012	30.7676
14.096	31.141
14.18	31.2045
14.264	31.0302
14.348	30.9019
14.432	30.6723
14.516	30.419
14.6	30.2513
14.684	29.96
14.768	29.6732
14.852	29.6473
14.936	29.7798
15.02	29.8747
15.104	29.8705
15.188	29.7677
15.272	29.6225
15.356	29.5625
15.44	29.707
15.524	30.0137
15.608	30.2271
15.692	30.1754
15.776	29.9199
15.86	29.5571
15.944	29.1938
16.028	28.938
16.112	28.8132
16.196	28.8081
16.28	28.8743
16.364	28.8933
16.448	28.7854
16.532	28.5858
16.616	28.435
16.7	28.4629
16.784	28.6168
16.868	28.7211
16.952	28.6824
17.036	28.5591
17.12	28.4693
17.204	28.4645
17.288	28.4893
17.372	28.4632
17.456	28.3599
17.54	28.1724
17.624	27.9103
17.708	27.6783
17.792	27.6136
17.876	27.6804
17.96	27.6388
18.044	27.3406
18.128	26.957
18.212	26.7898
18.296	26.9295
18.38	27.2056
18.464	27.4178
18.548	27.5118
18.632	27.5581
18.716	27.6375
18.8	27.7825
18.884	27.9793
18.968	28.1878
19.052	28.3492
19.136	28.3953
19.22	28.2776
19.304	28.0108
19.388	27.6598
19.472	27.2894
19.556	26.9364
19.64	26.6293
19.724	26.4128
19.808	26.3227
19.892	26.3449
19.976	26.4239
20.06	26.4975
20.144	26.4961
20.228	26.3234
20.312	25.9182
20.396	25.3585
20.48	24.8737
20.564	24.7073
20.648	24.9294
20.732	25.3866
20.816	25.8337
20.9	26.1244
20.984	26.2941
21.068	26.4692
21.152	26.7262
21.236	27.0173
21.32	27.2064
21.404	27.1908
21.488	26.9845
21.572	26.7153
21.656	26.5261
21.74	26.4858
21.824	26.5635
21.908	26.6622
21.992	26.6784
22.076	26.5332
22.16	26.188
22.244	25.6728
22.328	25.0746
22.412	24.5342
22.496	24.213
22.58	24.2306
22.664	24.6328
22.748	25.3739
22.832	26.3392
22.916	27.3596
23	28.2439
23.084	28.817
23.168	28.9733
23.252	28.718
23.336	28.1349
23.42	27.3535
23.504	26.4693
23.588	25.5511
23.672	24.6822
23.756	23.9822
23.84	23.5542
23.924	23.4738
24.008	23.7398
24.092	24.2481
24.176	24.8382
24.26	25.3368
24.344	25.594
24.428	25.5258
24.512	25.0757
24.596	24.2716
24.68	23.1217
24.764	21.544
24.848	19.481
24.932	16.9141
25.016	13.9514
25.1	10.862
25.184	8.179534
25.268	6.490214
25.352	6.124960
25.436	7.312549
25.52	10.1327
25.604	14.4778
25.688	19.6385
25.772	24.4457
25.856	27.796
25.94	29.1131
26.024	28.7586
26.108	28.0706
26.192	28.3121
26.276	30.2397
26.36	33.5856
26.444	38.2137
26.528	44.3209
26.612	53.0621
26.696	64.6319
26.78	77.4279
26.864	87.274
26.948	89.2194
27.028	81.1811

File: LPE454_t04_cm-1.asc
PE IR       SPECTRUM    SPECTRUM    ASCII       PEDS        1.60
  -1
LP67BB~1.ASC
17/05/19
14:43:11.00
17/05/19
14:43:11.00
tln
$LPE454_t0004$<tbV0>[5.2,-13.0,8.0,0.0,27,1,0]
370
64

2002,4.07
MIRTGS : RIGHTBACK : INTERNAL 2
MIR : ON : INTERNAL 2
OPTKBR

0.200000
8
8.000000
FILLER
RATIO
SPECTRUM
UNLOCKED 256

DOUBLE
64
COMBINED
1
0
0

1.000000
RATIO

1
0
TRUE
51149
0
LEFT NOT FITTED RIGHT NOT FITTED 0
NONE
NONE
15600
12
4.427000
51148
TRUE
1 0 8 72 0 0 0 0

15798

#HDR
-1
-1
#GR
CM-1
%T
2.38419e-05
0.0
5000
-1.000000
4631
8
88.946
-6.594204
#DATA
5000	0.100278
4984	-0.013589
4968	0.767254
4952	0.521540
4936	0.400495
4920	0.231099
4904	0.066852
4888	-0.925636
4872	1.101994
4856	1.369976
4840	-1.101183
4824	0.031089
4808	0.061345
4792	1.885390
4776	1.274657
4760	0.510287
4744	0.076317
4728	0.008654
4712	-0.005936
4696	0.118041
4680	0.044679
4664	0.082254
4648	0.048756
4632	0.021100
4616	0.446581
4600	-0.192117
4584	0.099349
4568	0.223183
4552	0.108408
4536	0.225687
4520	0.215339
4504	-1.034498
4488	-0.255727
4472	3.613281
4456	-6.069564
4440	1.314949
4424	0.111532
4408	-0.309348
4392	0.064158
4376	-0.043535
4360	-0.267887
4344	0.245952
4328	0.032615
4312	0.212860
4296	0.064802
4280	0.295114
4264	-0.109171
4248	0.207781
4232	-0.184369
4216	0.093436
4200	-0.335788
4184	0.284123
4168	0.045704
4152	0.049328
4136	0.223064
4120	-0.151705
4104	-0.123119
4088	-0.049185
4072	0.083899
4056	0.114202
4040	0.308036
4024	0.190639
4008	-0.031685
3992	0.092458
3976	0.004410
3960	-0.092983
3944	-0.036478
3928	0.042986
3912	0.234198
3896	0.014424
3880	0.079154
3864	0.053358
3848	0.146198
3832	-0.184798
3816	0.231957
3800	0.110292
3784	0.180506
3768	0.131273
3752	-0.101852
3736	-0.008654
3720	0.084590
3704	0.204634
3688	-0.028109
3672	-0.086951
3656	0.010609
3640	0.128579
3624	0.027418
3608	0.103235
3592	0.049233
3576	-0.012445
3560	-0.059437
3544	-0.041985
3528	0.125384
3512	-0.046563
3496	0.073051
3480	0.053572
3464	0.284647
3448	0.007271
3432	-0.052237
3416	-0.103306
3400	0.064659
3384	0.073981
3368	0.069665
3352	0.086641
3336	0.284528
3320	0.282049
3304	0.138354
3288	0.057101
3272	0.091099
3256	0.056028
3240	-0.035238
3224	-0.061273
3208	0.148177
3192	0.011467
3176	-0.009059
3160	-0.023245
3144	0.313639
3128	-0.042080
3112	0.186395
3096	0.086355
3080	-0.069284
3064	-0.119781
3048	0.068402
3032	0.219559
3016	-0.012588
3000	0.014567
2984	0.002098
2968	0.133824
2952	-0.109195
2936	0.040197
2920	-0.053334
2904	0.014209
2888	0.031042
2872	0.053286
2856	-0.101542
2840	-0.160622
2824	0.237822
2808	0.173234
2792	-0.032305
2776	-0.014877
2760	-0.105762
2744	0.029253
2728	-0.001144
2712	-0.005078
2696	-0.081110
2680	0.109910
2664	0.024771
2648	-0.047898
2632	-0.036096
2616	0.066328
2600	0.088644
2584	-0.012087
2568	-0.042676
2552	-0.107693
2536	0.078177
2520	-0.072455
2504	0.084781
2488	-0.051116
2472	0.063633
2456	0.054955
2440	0.143909
2424	-0.033497
2408	0.044560
2392	0.029468
2376	0.025224
2360	0.226545
2344	0.308084
2328	0.503945
2312	0.720238
2296	1.078057
2280	1.398468
2264	1.985764
2248	2.638125
2232	3.687119
2216	4.665017
2200	6.010961
2184	7.497978
2168	9.387636
2152	11.3263
2136	13.4685
2120	15.2878
2104	17.1326
2088	19.3922
2072	21.4888
2056	23.0871
2040	24.7201
2024	26.2625
2008	27.4882
1992	28.6732
1976	29.8467
1960	30.7247
1944	31.2366
1928	32.0733
1912	32.885
1896	33.1752
1880	33.491
1864	34.0143
1848	34.413
1832	34.5011
1816	34.6116
1800	35.3408
1784	35.2862
1768	35.2122
1752	35.2752
1736	35.7142
1720	35.6304
1704	35.6447
1688	35.9149
1672	36.0273
1656	35.6186
1640	35.5649
1624	35.9694
1608	35.8879
1592	35.4692
1576	35.6146
1560	36.1403
1544	35.8047
1528	35.408
1512	35.8862
1496	36.0482
1480	35.5955
1464	35.3784
1448	35.6083
1432	35.8624
1416	35.3361
1400	35.0916
1384	35.7422
1368	35.7094
1352	35.0925
1336	35.0942
1320	35.7177
1304	35.4692
1288	34.9527
1272	35.0937
1256	35.4156
1240	35.0895
1224	34.7372
1208	35.1561
1192	35.6159
1176	34.7716
1160	34.4069
1144	35.0529
1128	35.0305
1112	34.2257
1096	34.0765
1080	34.7398
1064	34.8221
1048	33.6704
1032	33.6449
1016	34.3992
1000	34.3644
984	 33.4326
968	 33.6144
952	 33.8056
936	 33.6407
920	 32.713
904	 33.2002
888	 33.6397
872	 33.0493
856	 32.1686
840	 32.4995
824	 33.0624
808	 31.7937
792	 31.1787
776	 31.8023
760	 32.5002
744	 30.9573
728	 30.2556
712	 30.9296
696	 30.8627
680	 29.8703
664	 29.8855
648	 29.6839
632	 29.7255
616	 28.8352
600	 28.429
584	 28.4676
568	 27.9705
552	 27.0046
536	 27.5754
520	 28.2507
504	 26.3207
488	 24.8271
472	 26.8486
456	 26.678
440	 25.1647
424	 25.5845
408	 25.0922
392	 9.719085
376	 51.1291
370	 81.1811

File: LPE454_t05.asc
PE IR       SPECTRUM    SPECTRUM    ASCII       PEDS        1.60
  -1
LPD398~1.ASC
17/05/19
14:47:47.00
17/05/19
14:48:13.00
tln
$LPE454_t0005$<tbV0>[2.6,-13.0,8.0,0.0,27,1,0]
27.028
64

2002,4.07
MIRTGS : RIGHTBACK : INTERNAL 2
MIR : ON : INTERNAL 2
OPTKBR

0.200000
8
8.000000
FILLER
RATIO
SPECTRUM
UNLOCKED 256

DOUBLE
64
COMBINED
1
0
0

0.002000
RATIO

1
0
TRUE
51149
0
LEFT NOT FITTED RIGHT NOT FITTED 0
NONE
NONE
15600
12
4.427000
51148
TRUE
1 0 8 72 0 0 0 0

15798

#HDR
-1
-1
#GR
µM
%T
2.38419e-05
0.0
2.000000
0.002000
12515
8
52.6527
-50.1082
#DATA
2.000000	 0.102663
2.084000	 0.396714
2.168000	 0.036253
2.252000	 0.287408
2.336000	 0.248227
2.420000	 0.250389
2.504000	 0.043308
2.588000	 0.105430
2.672000	 0.121473
2.756000	 0.167580
2.840000	 -0.024381
2.924000	 0.002977
3.008000	 0.034283
3.092000	 0.032564
3.176000	 0.030203
3.260000	 -0.026548
3.344000	 0.013478
3.428000	 -0.052888
3.512000	 0.102989
3.596000	 -0.028804
3.680000	 0.016133
3.764000	 -0.003244
3.848000	 0.035127
3.932000	 -0.039736
4.016000	 0.109366
4.100000	 0.174155
4.184000	 0.059914
4.268000	 0.146429
4.352000	 0.748219
4.436000	 1.818417
4.520000	 4.216254
4.604000	 7.903258
4.688000	 12.129
4.772000	 16.9331
4.856000	 20.7145
4.940000	 24.5234
5.024000	 27.1751
5.108000	 29.0412
5.192000	 30.5495
5.276000	 31.5847
5.359999	 32.2841
5.444000	 32.8544
5.528000	 33.3203
5.612000	 33.694
5.696000	 33.6619
5.780000	 33.956
5.864000	 33.9384
5.948000	 34.1119
6.032000	 34.1337
6.116000	 34.1744
6.200000	 34.108
6.284000	 34.0284
6.368000	 34.1383
6.452000	 34.1996
6.536000	 34.0263
6.620000	 34.1959
6.704000	 33.9789
6.788000	 34.0607
6.872000	 34.064
6.956000	 33.9581
7.040000	 33.816
7.124000	 33.7752
7.208000	 33.8585
7.292000	 33.6446
7.376000	 33.7106
7.460000	 33.669
7.544000	 33.6144
7.628000	 33.5754
7.712000	 33.4904
7.796000	 33.6081
7.880000	 33.314
7.964000	 33.486
8.048000	 33.4095
8.132000	 33.4012
8.216000	 33.3865
8.300000	 33.2955
8.384000	 33.1933
8.468000	 33.1455
8.552000	 33.1245
8.635999	 33.0723
8.719999	 33.0244
8.804000	 32.8697
8.888000	 32.9061
8.972000	 32.7553
9.056000	 32.7964
9.140000	 33.0342
9.224000	 32.5456
9.308000	 32.7278
9.391999	 32.4847
9.475999	 32.4145
9.560000	 32.4466
9.644000	 32.4423
9.728000	 32.3926
9.812000	 32.4828
9.896000	 32.3431
9.980000	 32.0975
10.064	32.1033
10.148	32.1842
10.232	32.2134
10.316	32.047
10.4	31.8975
10.484	31.6746
10.568	31.5221
10.652	31.6574
10.736	31.6128
10.82	31.6776
10.904	31.6345
10.988	31.5799
11.072	31.357
11.156	31.4108
11.24	31.5024
11.324	31.001
11.408	30.7763
11.492	31.1424
11.576	31.1876
11.66	30.9324
11.744	30.8654
11.828	30.6908
11.912	30.766
11.996	30.7994
12.08	30.6373
12.164	30.5086
12.248	30.533
12.332	30.4233
12.416	30.153
12.5	30.2046
12.584	30.2522
12.668	30.0574
12.752	29.984
12.836	29.9837
12.92	29.9021
13.004	29.9325
13.088	30.0333
13.172	29.8442
13.256	29.2683
13.34	29.2256
13.424	29.4555
13.508	29.597
13.592	29.7626
13.676	29.8284
13.76	29.526
13.844	29.0502
13.928	28.9519
14.012	28.9855
14.096	28.7868
14.18	28.5685
14.264	28.4694
14.348	28.5615
14.432	28.7008
14.516	28.6648
14.6	28.5535
14.684	28.5133
14.768	28.5098
14.852	28.524
14.936	28.5671
15.02	28.5832
15.104	28.5365
15.188	28.3959
15.272	28.1498
15.356	27.8695
15.44	27.6783
15.524	27.6057
15.608	27.4392
15.692	27.0809
15.776	26.8766
15.86	27.0257
15.944	27.1987
16.028	27.1753
16.112	27.1491
16.196	27.2769
16.28	27.445
16.364	27.4433
16.448	27.2141
16.532	26.9257
16.616	26.7414
16.7	26.6413
16.784	26.5677
16.868	26.5334
16.952	26.5265
17.036	26.4956
17.12	26.429
17.204	26.3357
17.288	26.2254
17.372	26.139
17.456	26.1404
17.54	26.2502
17.624	26.3942
17.708	26.4603
17.792	26.4025
17.876	26.2701
17.96	26.1086
18.044	25.8865
18.128	25.5755
18.212	25.2675
18.296	25.1547
18.38	25.3625
18.464	25.7826
18.548	26.1187
18.632	26.1514
18.716	25.9292
18.8	25.664
18.884	25.4801
18.968	25.3322
19.052	25.1271
19.136	24.8648
19.22	24.6309
19.304	24.4899
19.388	24.4311
19.472	24.3981
19.556	24.3486
19.64	24.2786
19.724	24.2361
19.808	24.2904
19.892	24.4896
19.976	24.8259
20.06	25.245
20.144	25.6705
20.228	26.0236
20.312	26.2377
20.396	26.276
20.48	26.1301
20.564	25.8115
20.648	25.358
20.732	24.8372
20.816	24.3488
20.9	23.9948
20.984	23.8261
21.068	23.8113
21.152	23.8664
21.236	23.9111
21.32	23.9311
21.404	23.9758
21.488	24.0989
21.572	24.2818
21.656	24.408
21.74	24.3148
21.824	23.905
21.908	23.2462
21.992	22.5608
22.076	22.1116
22.16	22.0481
22.244	22.2892
22.328	22.5847
22.412	22.6669
22.496	22.4301
22.58	21.9791
22.664	21.5402
22.748	21.3234
22.832	21.3809
22.916	21.6233
23	21.8467
23.084	21.8872
23.168	21.6884
23.252	21.3106
23.336	20.8805
23.42	20.5196
23.504	20.2586
23.588	20.0711
23.672	19.9402
23.756	19.8874
23.84	19.9987
23.924	20.4102
24.008	21.2068
24.092	22.3675
24.176	23.8327
24.26	25.5067
24.344	27.2984
24.428	29.1796
24.512	31.2145
24.596	33.4262
24.68	35.6669
24.764	37.576
24.848	38.5902
24.932	38.1634
25.016	36.059
25.1	32.3683
25.184	27.5333
25.268	22.2321
25.352	17.1647
25.436	13.2871
25.52	11.5824
25.604	12.7478
25.688	17.066
25.772	24.1833
25.856	33.1405
25.94	42.0666
26.024	48.8994
26.108	52.3536
26.192	51.9522
26.276	47.7643
26.36	39.9698
26.444	29.2308
26.528	16.5912
26.612	4.095334
26.696	-6.829241
26.78	-16.037
26.864	-25.4305
26.948	-37.2201
27.028	-50.1082

File: LPE454_t05_cm-1.asc
PE IR       SPECTRUM    SPECTRUM    ASCII       PEDS        1.60
  -1
LP673B~1.ASC
17/05/19
14:47:47.00
17/05/19
14:47:47.00
tln
$LPE454_t0005$<tbV0>[2.6,-13.0,8.0,0.0,27,1,0]
370
64

2002,4.07
MIRTGS : RIGHTBACK : INTERNAL 2
MIR : ON : INTERNAL 2
OPTKBR

0.200000
8
8.000000
FILLER
RATIO
SPECTRUM
UNLOCKED 256

DOUBLE
64
COMBINED
1
0
0

1.000000
RATIO

1
0
TRUE
51149
0
LEFT NOT FITTED RIGHT NOT FITTED 0
NONE
NONE
15600
12
4.427000
51148
TRUE
1 0 8 72 0 0 0 0

15798

#HDR
-1
-1
#GR
CM-1
%T
2.38419e-05
0.0
5000
-1.000000
4631
8
52.383
-50.1082
#DATA
5000	0.102663
4984	0.000119
4968	0.123977
4952	0.339579
4936	0.257444
4920	0.890994
4904	-0.221109
4888	0.712084
4872	-1.284003
4856	0.651574
4840	-0.524187
4824	1.433205
4808	0.293016
4792	0.806856
4776	0.105094
4760	0.094556
4744	-0.081157
4728	-0.182628
4712	-0.360369
4696	0.051927
4680	0.295853
4664	0.092768
4648	0.439691
4632	0.246453
4616	-0.271487
4600	0.165796
4584	-0.081110
4568	0.093817
4552	0.031471
4536	0.121498
4520	0.226712
4504	0.573611
4488	-1.104021
4472	8.312559
4456	2.060985
4440	0.335907
4424	-0.437831
4408	-0.441050
4392	-0.212931
4376	0.010919
4360	-0.052952
4344	-0.043249
4328	0.278162
4312	-0.212955
4296	-0.107598
4280	0.261068
4264	-0.089073
4248	0.352525
4232	-0.128889
4216	0.135445
4200	0.427794
4184	-0.047135
4168	-0.070929
4152	0.214934
4136	0.167417
4120	0.071334
4104	0.136160
4088	0.005269
4072	-0.106096
4056	0.237870
4040	0.241374
4024	-0.057077
4008	0.060772
3992	-0.004196
3976	0.085115
3960	-0.048232
3944	0.069117
3928	0.135827
3912	-0.107192
3896	0.038552
3880	0.127363
3864	0.105118
3848	0.036120
3832	-0.019574
3816	0.065350
3800	0.180792
3784	0.009560
3768	-0.107407
3752	-0.158858
3736	0.112485
3720	-0.041866
3704	0.028944
3688	0.138068
3672	0.182461
3656	-0.019979
3640	-0.017690
3624	0.087189
3608	-0.121116
3592	0.130057
3576	0.044441
3560	0.065684
3544	-0.014400
3528	0.088834
3512	0.019359
3496	-0.092625
3480	0.078940
3464	-0.008630
3448	0.041389
3432	-0.024867
3416	0.079917
3400	-0.030016
3384	-0.053262
3368	-0.061821
3352	0.175046
3336	0.010180
3320	0.090432
3304	0.018787
3288	0.123190
3272	0.069475
3256	0.027608
3240	-0.063300
3224	0.114655
3208	0.080680
3192	-0.050258
3176	0.160789
3160	-0.031280
3144	0.018334
3128	0.329065
3112	-0.021862
3096	-0.021576
3080	-0.074267
3064	-0.028920
3048	0.042557
3032	-0.029325
3016	-0.007581
3000	0.141310
2984	0.129032
2968	-0.060629
2952	-0.021457
2936	0.066614
2920	-0.075888
2904	0.040888
2888	0.036430
2872	-0.009727
2856	0.187540
2840	-0.188183
2824	0.052642
2808	-0.016736
2792	0.041484
2776	0.051379
2760	0.049519
2744	0.027537
2728	0.145649
2712	0.034523
2696	-0.043559
2680	0.096893
2664	0.043272
2648	-0.001978
2632	0.070190
2616	-0.002384
2600	0.033044
2584	-0.110912
2568	-0.003695
2552	-0.079369
2536	0.018548
2520	-0.153064
2504	0.134968
2488	0.119185
2472	-0.020575
2456	0.001168
2440	0.169539
2424	0.122642
2408	0.149917
2392	0.099349
2376	0.046968
2360	0.080204
2344	0.155854
2328	0.289082
2312	0.444436
2296	0.790572
2280	0.932359
2264	1.564550
2248	2.055764
2232	2.987718
2216	3.898787
2200	5.158638
2184	6.565046
2168	8.304524
2152	9.993529
2136	11.7839
2120	13.9074
2104	15.8552
2088	17.7049
2072	19.8929
2056	21.1089
2040	23.0613
2024	24.5487
2008	25.8724
1992	27.0671
1976	28.0818
1960	28.9386
1944	29.8324
1928	30.4703
1912	31.0131
1896	31.5642
1880	32.0061
1864	32.3198
1848	32.6591
1832	32.8622
1816	33.1933
1800	33.372
1784	33.6807
1768	33.8429
1752	33.7251
1736	34.0524
1720	33.9259
1704	33.9908
1688	34.147
1672	34.2066
1656	34.1865
1640	34.1125
1624	34.2048
1608	34.1231
1592	34.0397
1576	34.0856
1560	34.247
1544	34.307
1528	34.0414
1512	34.172
1496	34.183
1480	34.0398
1464	34.0819
1448	33.9293
1432	33.9334
1416	33.8291
1400	33.6821
1384	33.8271
1368	33.569
1352	33.6321
1336	33.6792
1320	33.5644
1304	33.6337
1288	33.6474
1272	33.338
1256	33.4799
1240	33.3567
1224	33.4046
1208	33.3341
1192	33.1906
1176	33.1383
1160	33.0481
1144	33.0194
1128	32.9322
1112	32.6802
1096	33.0596
1080	32.664
1064	32.4811
1048	32.5003
1032	32.4185
1016	32.4932
1000	32.0848
984	 32.2197
968	 32.0365
952	 31.6096
936	 31.643
920	 31.6465
904	 31.3877
888	 31.4042
872	 31.0215
856	 30.9086
840	 30.7506
824	 30.5448
808	 30.256
792	 30.1717
776	 29.9237
760	 29.9213
744	 29.4865
728	 29.6531
712	 28.9291
696	 28.6018
680	 28.5118
664	 28.57
648	 27.6899
632	 26.9297
616	 27.3608
600	 26.6765
584	 26.4258
568	 26.3658
552	 25.6236
536	 26.1039
520	 24.6071
504	 24.3511
488	 26.0953
472	 23.8888
456	 23.0595
440	 21.3507
424	 20.077
408	 31.1589
392	 11.6397
376	 6.401777
370	 -50.1082