Folder: Masteroppgave/Bakgrunnsmateriale/MATLAB/FTIR/ftir_data/LPE454/Mapping_121 (part 6)

File: LPE454_t06.asc
PE IR       SPECTRUM    SPECTRUM    ASCII       PEDS        1.60
  -1
LPD394~1.ASC
17/05/19
14:52:24.00
17/05/19
14:52:50.00
tln
$LPE454_t0006$<tbV0>[0.0,-13.0,8.0,0.0,27,1,0]
27.028
64

2002,4.07
MIRTGS : RIGHTBACK : INTERNAL 2
MIR : ON : INTERNAL 2
OPTKBR

0.200000
8
8.000000
FILLER
RATIO
SPECTRUM
UNLOCKED 256

DOUBLE
64
COMBINED
1
0
0

0.002000
RATIO

1
0
TRUE
51149
0
LEFT NOT FITTED RIGHT NOT FITTED 0
NONE
NONE
15600
12
4.427000
51148
TRUE
1 0 8 72 0 0 0 0

15798

#HDR
-1
-1
#GR
µM
%T
2.38419e-05
0.0
2.000000
0.002000
12515
8
69.0902
-1.899682
#DATA
2.000000	 0.023913
2.084000	 -1.013900
2.168000	 0.037075
2.252000	 0.835665
2.336000	 0.282894
2.420000	 -0.066507
2.504000	 0.078676
2.588000	 0.146589
2.672000	 0.109298
2.756000	 0.066381
2.840000	 0.129031
2.924000	 0.047024
3.008000	 0.149825
3.092000	 0.232132
3.176000	 0.114777
3.260000	 -0.062597
3.344000	 0.148841
3.428000	 -0.076378
3.512000	 -0.089413
3.596000	 0.047119
3.680000	 0.008824
3.764000	 0.117015
3.848000	 0.022892
3.932000	 0.030088
4.016000	 0.019494
4.100000	 0.210915
4.184000	 0.121124
4.268000	 0.198070
4.352000	 0.664224
4.436000	 1.607684
4.520000	 3.656609
4.604000	 6.998342
4.688000	 11.211
4.772000	 15.8225
4.856000	 19.8412
4.940000	 23.4787
5.024000	 26.0624
5.108000	 27.922
5.192000	 29.4941
5.276000	 30.6265
5.359999	 31.3154
5.444000	 31.8996
5.528000	 32.3466
5.612000	 32.6876
5.696000	 32.7953
5.780000	 33.0924
5.864000	 32.8287
5.948000	 33.0645
6.032000	 33.091
6.116000	 33.1255
6.200000	 33.2017
6.284000	 33.1407
6.368000	 33.2518
6.452000	 33.2705
6.536000	 33.209
6.620000	 33.2554
6.704000	 33.2111
6.788000	 33.2374
6.872000	 33.0884
6.956000	 33.1009
7.040000	 33.0794
7.124000	 33.0271
7.208000	 33.0183
7.292000	 32.8396
7.376000	 32.775
7.460000	 32.9259
7.544000	 32.6976
7.628000	 32.6612
7.712000	 32.6243
7.796000	 32.6635
7.880000	 32.4577
7.964000	 32.4193
8.048000	 32.5716
8.132000	 32.5959
8.216000	 32.4439
8.300000	 32.3819
8.384000	 32.2766
8.468000	 32.3333
8.552000	 32.3887
8.635999	 32.1281
8.719999	 32.187
8.804000	 31.9358
8.888000	 32.0411
8.972000	 32.1408
9.056000	 32.164
9.140000	 31.7595
9.224000	 31.7285
9.308000	 31.6292
9.391999	 31.8326
9.475999	 31.8842
9.560000	 31.8324
9.644000	 31.3864
9.728000	 31.4464
9.812000	 31.3736
9.896000	 31.4726
9.980000	 31.4391
10.064	31.6503
10.148	31.3851
10.232	31.1758
10.316	31.2002
10.4	30.7361
10.484	30.851
10.568	31.1391
10.652	30.9039
10.736	30.9008
10.82	30.6735
10.904	30.2505
10.988	30.28
11.072	30.1934
11.156	30.4021
11.24	30.5623
11.324	30.5239
11.408	30.422
11.492	30.405
11.576	30.0757
11.66	29.903
11.744	29.7119
11.828	29.6137
11.912	29.9723
11.996	30.0708
12.08	30.0605
12.164	30.2665
12.248	29.8906
12.332	29.5988
12.416	29.4696
12.5	29.0806
12.584	28.8284
12.668	28.8329
12.752	28.8182
12.836	28.9688
12.92	29.2172
13.004	29.2443
13.088	29.2162
13.172	29.1489
13.256	28.9201
13.34	28.6191
13.424	28.2983
13.508	27.9693
13.592	27.8681
13.676	28.2992
13.76	28.4876
13.844	28.4706
13.928	28.5936
14.012	28.4952
14.096	28.3525
14.18	28.1751
14.264	27.8955
14.348	27.6183
14.432	27.2557
14.516	26.999
14.6	27.0662
14.684	27.2045
14.768	27.1091
14.852	26.7453
14.936	26.6171
15.02	27.0538
15.104	27.3306
15.188	27.1403
15.272	27.043
15.356	27.078
15.44	26.9957
15.524	26.7402
15.608	26.383
15.692	26.3178
15.776	26.61
15.86	26.7196
15.944	26.4866
16.028	26.2938
16.112	26.2331
16.196	26.1013
16.28	25.9103
16.364	25.7905
16.448	25.7663
16.532	25.8778
16.616	26.1563
16.7	26.4106
16.784	26.3559
16.868	25.9989
16.952	25.6526
17.036	25.5215
17.12	25.4896
17.204	25.3935
17.288	25.2937
17.372	25.3298
17.456	25.4613
17.54	25.4912
17.624	25.2859
17.708	24.9105
17.792	24.5812
17.876	24.4982
17.96	24.6591
18.044	24.8534
18.128	24.8687
18.212	24.7222
18.296	24.6046
18.38	24.6269
18.464	24.7115
18.548	24.7284
18.632	24.6382
18.716	24.4607
18.8	24.2349
18.884	24.0735
18.968	24.1311
19.052	24.3891
19.136	24.5919
19.22	24.4724
19.304	24.0192
19.388	23.4588
19.472	23.0136
19.556	22.7326
19.64	22.5581
19.724	22.4779
19.808	22.5606
19.892	22.8548
19.976	23.2935
20.06	23.7185
20.144	23.993
20.228	24.0655
20.312	23.9347
20.396	23.6081
20.48	23.1287
20.564	22.6463
20.648	22.3889
20.732	22.5217
20.816	22.9982
20.9	23.5692
20.984	23.9486
21.068	23.9919
21.152	23.727
21.236	23.2543
21.32	22.6611
21.404	22.0209
21.488	21.4681
21.572	21.1895
21.656	21.325
21.74	21.8373
21.824	22.4823
21.908	22.951
21.992	23.0726
22.076	22.9043
22.16	22.683
22.244	22.6233
22.328	22.7614
22.412	22.957
22.496	22.9929
22.58	22.7587
22.664	22.2974
22.748	21.7472
22.832	21.2125
22.916	20.712
23	20.1767
23.084	19.5662
23.168	18.9824
23.252	18.6485
23.336	18.7952
23.42	19.5144
23.504	20.7093
23.588	22.071
23.672	23.1995
23.756	23.7467
23.84	23.5427
23.924	22.6647
24.008	21.3012
24.092	19.6487
24.176	17.9827
24.26	16.6794
24.344	16.2253
24.428	16.9261
24.512	18.595
24.596	20.4646
24.68	21.5705
24.764	21.3121
24.848	19.7934
24.932	17.7644
25.016	16.2117
25.1	15.8237
25.184	16.7707
25.268	18.6832
25.352	20.9713
25.436	23.3314
25.52	25.8249
25.604	28.6419
25.688	32.2757
25.772	37.2007
25.856	43.5129
25.94	50.729
26.024	57.8999
26.108	63.9702
26.192	67.9476
26.276	69.0553
26.36	66.9844
26.444	61.7675
26.528	53.8893
26.612	44.2783
26.696	34.4712
26.78	26.4453
26.864	22.1719
26.948	22.7427
27.028	27.4182

File: LPE454_t06_cm-1.asc
PE IR       SPECTRUM    SPECTRUM    ASCII       PEDS        1.60
  -1
LP67BA~1.ASC
17/05/19
14:52:24.00
17/05/19
14:52:24.00
tln
$LPE454_t0006$<tbV0>[0.0,-13.0,8.0,0.0,27,1,0]
370
64

2002,4.07
MIRTGS : RIGHTBACK : INTERNAL 2
MIR : ON : INTERNAL 2
OPTKBR

0.200000
8
8.000000
FILLER
RATIO
SPECTRUM
UNLOCKED 256

DOUBLE
64
COMBINED
1
0
0

1.000000
RATIO

1
0
TRUE
51149
0
LEFT NOT FITTED RIGHT NOT FITTED 0
NONE
NONE
15600
12
4.427000
51148
TRUE
1 0 8 72 0 0 0 0

15798

#HDR
-1
-1
#GR
CM-1
%T
2.38419e-05
0.0
5000
-1.000000
4631
8
69.0296
-1.918959
#DATA
5000	0.023913
4984	0.605916
4968	0.124669
4952	0.462675
4936	0.354886
4920	0.949358
4904	0.021243
4888	0.016880
4872	0.377273
4856	0.220537
4840	0.457835
4824	1.144695
4808	-0.177836
4792	0.566577
4776	-0.132656
4760	0.853180
4744	0.730013
4728	0.180220
4712	-0.007367
4696	-0.174140
4680	0.367856
4664	0.214481
4648	0.426077
4632	0.237488
4616	0.153803
4600	-0.008749
4584	0.084018
4568	0.358486
4552	0.477838
4536	0.153756
4520	-0.946378
4504	-1.046395
4488	-1.641750
4472	9.153294
4456	11.4405
4440	0.802421
4424	-0.482058
4408	-0.782823
4392	0.313973
4376	-0.078582
4360	0.006318
4344	0.123810
4328	0.129485
4312	0.327706
4296	0.049877
4280	0.290536
4264	0.245356
4248	0.080585
4232	0.030541
4216	0.061702
4200	0.030350
4184	-0.056028
4168	0.058245
4152	0.222086
4136	0.045800
4120	-0.010848
4104	0.076079
4088	0.187325
4072	0.136089
4056	-0.035071
4040	0.123596
4024	-0.083494
4008	0.081396
3992	0.129628
3976	0.064659
3960	-0.016379
3944	0.120925
3928	0.046849
3912	-0.044941
3896	0.112271
3880	-0.072860
3864	0.146317
3848	0.063824
3832	-0.109291
3816	0.152921
3800	-0.039505
3784	-0.058531
3768	-0.036501
3752	0.145673
3736	0.060081
3720	0.107336
3704	0.130796
3688	0.193071
3672	0.181078
3656	0.180363
3640	-0.000596
3624	0.148391
3608	0.077486
3592	0.143384
3576	-0.025820
3560	-0.092363
3544	-0.101804
3528	0.085306
3512	0.157189
3496	0.058555
3480	-0.026965
3464	0.160789
3448	0.100541
3432	0.071334
3416	0.119137
3400	0.241112
3384	0.150632
3368	-0.035023
3352	0.092411
3336	0.026917
3320	0.060510
3304	0.187993
3288	0.026535
3272	0.158190
3256	0.237631
3240	0.129437
3224	0.023794
3208	0.071930
3192	0.097727
3176	0.016689
3160	0.104784
3144	0.029158
3128	-0.245904
3112	0.005650
3096	-0.014233
3080	0.068807
3064	-0.075364
3048	0.081419
3032	-0.083541
3016	0.092220
3000	-0.027227
2984	0.141525
2968	0.076627
2952	0.044083
2936	0.017046
2920	-0.115942
2904	0.023174
2888	0.176978
2872	0.127506
2856	0.081467
2840	-0.134801
2824	-0.051951
2808	0.028848
2792	-0.066399
2776	-0.019359
2760	0.131821
2744	-0.010967
2728	0.063776
2712	-0.028586
2696	0.016593
2680	0.107264
2664	-0.009751
2648	0.093317
2632	0.060892
2616	0.023484
2600	0.037932
2584	-0.019383
2568	-0.013041
2552	-0.052928
2536	0.021791
2520	0.017595
2504	0.064969
2488	-0.009632
2472	0.045847
2456	0.004816
2440	0.237417
2424	-0.070428
2408	0.163030
2392	0.134706
2376	0.016903
2360	0.202822
2344	0.205826
2328	0.336170
2312	0.365972
2296	0.693535
2280	0.834178
2264	1.207160
2248	1.925349
2232	2.549457
2216	3.405213
2200	4.538440
2184	5.916881
2168	7.468891
2152	9.184527
2136	10.9238
2120	13.0029
2104	14.9117
2088	16.7263
2072	18.6529
2056	20.1937
2040	21.9646
2024	23.4997
2008	24.793
1992	25.965
1976	27.0219
1960	27.8031
1944	28.6834
1928	29.3948
1912	30.0677
1896	30.6115
1880	31.0015
1864	31.3645
1848	31.6767
1832	32.0024
1816	32.2779
1800	32.4128
1784	32.6704
1768	32.726
1752	32.8181
1736	32.926
1720	33.1814
1704	32.9135
1688	33.0938
1672	33.1936
1656	33.1317
1640	33.0925
1624	33.2828
1608	33.1155
1592	33.1451
1576	33.284
1560	33.3568
1544	33.3236
1528	33.2393
1512	33.2417
1496	33.2303
1480	33.2044
1464	33.1557
1448	33.015
1432	32.9857
1416	33.1008
1400	33.0503
1384	33.0338
1368	32.8531
1352	32.7967
1336	32.919
1320	32.7555
1304	32.5671
1288	32.6767
1272	32.4725
1256	32.4219
1240	32.5974
1224	32.5238
1208	32.4442
1192	32.2832
1176	32.419
1160	32.1617
1144	32.1142
1128	32.0054
1112	32.1134
1096	31.8598
1080	31.5661
1064	31.8274
1048	31.9568
1032	31.4386
1016	31.4118
1000	31.5245
984	 31.309
968	 31.1517
952	 30.9667
936	 30.8405
920	 30.3527
904	 30.1844
888	 30.5523
872	 30.4324
856	 29.8646
840	 29.9423
824	 30.2183
808	 29.5697
792	 28.8192
776	 29.1363
760	 29.1719
744	 28.2341
728	 28.4876
712	 28.4305
696	 27.5409
680	 27.2099
664	 27.2584
648	 27.0102
632	 26.7236
616	 26.0133
600	 26.3338
584	 25.4874
568	 25.351
552	 24.8797
536	 24.5939
520	 24.4301
504	 22.6528
488	 23.0567
472	 23.5524
456	 23.0187
440	 21.8841
424	 22.0234
408	 18.5464
392	 25.5226
376	 46.1975
370	 27.4182

File: LPE454_t07.asc
PE IR       SPECTRUM    SPECTRUM    ASCII       PEDS        1.60
  -1
LPD390~1.ASC
17/05/19
14:57:01.00
17/05/19
14:57:27.00
tln
$LPE454_t0007$<tbV0>[-2.6,-13.0,8.0,0.0,27,1,0]
27.028
64

2002,4.07
MIRTGS : RIGHTBACK : INTERNAL 2
MIR : ON : INTERNAL 2
OPTKBR

0.200000
8
8.000000
FILLER
RATIO
SPECTRUM
UNLOCKED 256

DOUBLE
64
COMBINED
1
0
0

0.002000
RATIO

1
0
TRUE
51149
0
LEFT NOT FITTED RIGHT NOT FITTED 0
NONE
NONE
15600
12
4.427000
51148
TRUE
1 0 8 72 0 0 0 0

15798

#HDR
-1
-1
#GR
µM
%T
2.38419e-05
0.0
2.000000
0.002000
12515
8
57.0368
-30.9466
#DATA
2.000000	 -0.003194
2.084000	 -1.047521
2.168000	 0.447590
2.252000	 -0.010405
2.336000	 -0.108765
2.420000	 0.231305
2.504000	 0.035902
2.588000	 -0.051972
2.672000	 0.088154
2.756000	 -0.011646
2.840000	 0.181272
2.924000	 0.118129
3.008000	 -0.085373
3.092000	 -0.013464
3.176000	 0.117353
3.260000	 -0.006635
3.344000	 0.086316
3.428000	 0.061482
3.512000	 0.097636
3.596000	 0.159312
3.680000	 0.016646
3.764000	 -0.050267
3.848000	 0.009228
3.932000	 0.044447
4.016000	 0.041140
4.100000	 -0.075221
4.184000	 0.070299
4.268000	 0.155582
4.352000	 0.601692
4.436000	 1.442055
4.520000	 3.393008
4.604000	 6.266022
4.688000	 9.700568
4.772000	 13.6204
4.856000	 16.9249
4.940000	 19.8837
5.024000	 22.1161
5.108000	 23.8446
5.192000	 25.0741
5.276000	 26.1074
5.359999	 26.783
5.444000	 27.3
5.528000	 27.8853
5.612000	 28.0103
5.696000	 28.3114
5.780000	 28.4365
5.864000	 28.3505
5.948000	 28.8268
6.032000	 28.6261
6.116000	 28.9337
6.200000	 28.864
6.284000	 28.7775
6.368000	 29.0669
6.452000	 28.9525
6.536000	 28.9203
6.620000	 29.1746
6.704000	 29.0893
6.788000	 29.1254
6.872000	 29.0552
6.956000	 29.1074
7.040000	 29.1848
7.124000	 29.1538
7.208000	 29.4129
7.292000	 29.1909
7.376000	 29.1831
7.460000	 29.3798
7.544000	 29.3809
7.628000	 29.1566
7.712000	 29.1963
7.796000	 29.3913
7.880000	 29.4637
7.964000	 29.3883
8.048000	 29.3139
8.132000	 29.5596
8.216000	 29.5499
8.300000	 29.6339
8.384000	 29.4395
8.468000	 29.3112
8.552000	 29.3522
8.635999	 29.4156
8.719999	 29.643
8.804000	 29.4598
8.888000	 29.2853
8.972000	 29.2536
9.056000	 29.1542
9.140000	 29.076
9.224000	 29.6179
9.308000	 29.2251
9.391999	 29.1183
9.475999	 29.2898
9.560000	 29.4537
9.644000	 29.5206
9.728000	 29.4445
9.812000	 29.3608
9.896000	 29.0957
9.980000	 28.9738
10.064	29.1166
10.148	29.574
10.232	29.7811
10.316	29.5496
10.4	29.4509
10.484	29.2473
10.568	29.0619
10.652	28.7285
10.736	28.9687
10.82	29.1636
10.904	29.2721
10.988	29.2086
11.072	28.9322
11.156	28.8005
11.24	28.6909
11.324	28.5553
11.408	28.3644
11.492	28.5989
11.576	28.6339
11.66	28.7789
11.744	28.9035
11.828	28.8764
11.912	29.0096
11.996	28.775
12.08	28.3351
12.164	28.2253
12.248	28.2929
12.332	28.4515
12.416	28.6384
12.5	28.6479
12.584	28.6097
12.668	28.5573
12.752	28.3123
12.836	27.9513
12.92	27.7571
13.004	27.8313
13.088	27.7394
13.172	27.6667
13.256	27.6449
13.34	27.8835
13.424	28.1162
13.508	27.9875
13.592	28.072
13.676	28.1357
13.76	28.0222
13.844	28.0265
13.928	27.8536
14.012	27.4792
14.096	27.2374
14.18	27.1586
14.264	27.0233
14.348	26.8607
14.432	26.885
14.516	27.166
14.6	27.4445
14.684	27.4627
14.768	27.3639
14.852	27.3873
14.936	27.4869
15.02	27.3712
15.104	26.9594
15.188	26.4792
15.272	26.1138
15.356	25.9168
15.44	25.8463
15.524	25.8292
15.608	25.8543
15.692	25.929
15.776	26.0732
15.86	26.2609
15.944	26.3813
16.028	26.4077
16.112	26.4563
16.196	26.5626
16.28	26.5591
16.364	26.343
16.448	26.1273
16.532	26.1046
16.616	26.0631
16.7	25.7307
16.784	25.2619
16.868	24.993
16.952	24.9566
17.036	24.9572
17.12	24.9
17.204	24.8063
17.288	24.6936
17.372	24.609
17.456	24.6641
17.54	24.9179
17.624	25.268
17.708	25.5181
17.792	25.5605
17.876	25.4729
17.96	25.3829
18.044	25.2884
18.128	25.1097
18.212	24.8618
18.296	24.6773
18.38	24.6612
18.464	24.7852
18.548	24.9111
18.632	24.8955
18.716	24.6803
18.8	24.3229
18.884	23.9321
18.968	23.5982
19.052	23.3703
19.136	23.281
19.22	23.3336
19.304	23.4515
19.388	23.4838
19.472	23.3166
19.556	22.996
19.64	22.7274
19.724	22.7359
19.808	23.0897
19.892	23.6493
19.976	24.1764
20.06	24.5041
20.144	24.5965
20.228	24.501
20.312	24.2858
20.396	24.0324
20.48	23.8296
20.564	23.7304
20.648	23.7147
20.732	23.7017
20.816	23.6202
20.9	23.4635
20.984	23.2617
21.068	23.0397
21.152	22.8011
21.236	22.5698
21.32	22.4166
21.404	22.4294
21.488	22.634
21.572	22.9418
21.656	23.1843
21.74	23.2071
21.824	22.9719
21.908	22.5907
21.992	22.2605
22.076	22.1651
22.16	22.3895
22.244	22.9082
22.328	23.6185
22.412	24.4112
22.496	25.2042
22.58	25.9437
22.664	26.5861
22.748	27.065
22.832	27.2925
22.916	27.2189
23	26.8206
23.084	26.15
23.168	25.3255
23.252	24.4557
23.336	23.6021
23.42	22.7768
23.504	21.9599
23.588	21.1214
23.672	20.2468
23.756	19.3624
23.84	18.5763
23.924	18.0211
24.008	17.8135
24.092	18.0403
24.176	18.7233
24.26	20.0116
24.344	22.2152
24.428	25.5354
24.512	29.6998
24.596	33.9837
24.68	37.3963
24.764	39.0683
24.848	38.6924
24.932	36.6193
25.016	33.679
25.1	30.5892
25.184	28.0676
25.268	26.5608
25.352	26.0672
25.436	26.1543
25.52	25.9625
25.604	24.4251
25.688	20.7385
25.772	14.7793
25.856	7.240035
25.94	-0.487607
26.024	-6.503067
26.108	-8.976175
26.192	-6.574871
26.276	1.157121
26.36	13.8101
26.444	29.4027
26.528	44.5162
26.612	54.8271
26.696	56.3389
26.78	46.7646
26.864	26.6873
26.948	-1.011753
27.028	-30.9466

File: LPE454_t07_cm-1.asc
PE IR       SPECTRUM    SPECTRUM    ASCII       PEDS        1.60
  -1
LP673A~1.ASC
17/05/19
14:57:01.00
17/05/19
14:57:01.00
tln
$LPE454_t0007$<tbV0>[-2.6,-13.0,8.0,0.0,27,1,0]
370
64

2002,4.07
MIRTGS : RIGHTBACK : INTERNAL 2
MIR : ON : INTERNAL 2
OPTKBR

0.200000
8
8.000000
FILLER
RATIO
SPECTRUM
UNLOCKED 256

DOUBLE
64
COMBINED
1
0
0

1.000000
RATIO

1
0
TRUE
51149
0
LEFT NOT FITTED RIGHT NOT FITTED 0
NONE
NONE
15600
12
4.427000
51148
TRUE
1 0 8 72 0 0 0 0

15798

#HDR
-1
-1
#GR
CM-1
%T
2.38419e-05
0.0
5000
-1.000000
4631
8
57.0353
-30.9466
#DATA
5000	-0.003194
4984	-0.095582
4968	0.088119
4952	0.456976
4936	0.414943
4920	0.122857
4904	-0.478768
4888	0.214576
4872	-0.352787
4856	1.246976
4840	-0.756478
4824	0.655102
4808	1.206469
4792	0.016427
4776	0.583219
4760	0.126719
4744	-0.013375
4728	0.417661
4712	0.076818
4696	-0.039410
4680	0.166368
4664	0.179696
4648	0.031805
4632	0.026011
4616	0.284361
4600	0.380015
4584	-0.194430
4568	0.057816
4552	-0.100898
4536	0.577712
4520	0.618290
4504	-0.061869
4488	0.050854
4472	0.940132
4456	0.192713
4440	-0.017237
4424	-0.092554
4408	-0.565552
4392	0.201010
4376	-0.142693
4360	0.121116
4344	0.060105
4328	0.034856
4312	0.224137
4296	-0.097608
4280	-0.127887
4264	0.136566
4248	0.094461
4232	0.161337
4216	0.454473
4200	0.107789
4184	0.331854
4168	-0.202822
4152	0.292110
4136	0.273227
4120	-0.034809
4104	-0.123310
4088	0.013041
4072	0.075101
4056	0.191092
4040	0.063514
4024	-0.010704
4008	0.096464
3992	0.006985
3976	0.149178
3960	0.075769
3944	0.198984
3928	0.024795
3912	0.058436
3896	0.076508
3880	0.195860
3864	-0.051712
3848	0.066566
3832	-0.021505
3816	0.111842
3800	0.106406
3784	-0.077772
3768	0.004506
3752	0.135540
3736	0.067615
3720	0.021672
3704	-0.011420
3688	0.000262
3672	0.078034
3656	0.027775
3640	0.063776
3624	0.045609
3608	0.135588
3592	-0.021576
3576	0.111913
3560	-0.027966
3544	0.134062
3528	0.144863
3512	0.058484
3496	-0.091791
3480	0.066781
3464	0.163173
3448	-0.058126
3432	0.005245
3416	0.226020
3400	-0.035262
3384	0.084042
3368	0.047707
3352	0.186610
3336	-0.051474
3320	0.028610
3304	0.023698
3288	0.052332
3272	0.075936
3256	0.124263
3240	0.011301
3224	0.077223
3208	0.183296
3192	0.211572
3176	0.094676
3160	-0.239968
3144	0.153279
3128	0.247764
3112	-0.174164
3096	0.023651
3080	-0.058245
3064	0.046324
3048	-0.093936
3032	0.057697
3016	0.010013
3000	-0.026655
2984	0.189542
2968	-0.037598
2952	-0.009822
2936	0.023007
2920	-0.014543
2904	-0.009298
2888	-0.065064
2872	-0.019907
2856	-0.005006
2840	0.086522
2824	0.052046
2808	0.109314
2792	0.162577
2776	0.096559
2760	0.043272
2744	0.055313
2728	-0.084042
2712	0.013685
2696	0.029063
2680	0.049948
2664	0.034070
2648	0.060606
2632	-0.038647
2616	-0.048565
2600	0.019121
2584	0.097632
2568	0.043344
2552	0.045323
2536	-0.015068
2520	-0.008893
2504	0.041508
2488	0.091075
2472	-0.035166
2456	-0.114178
2440	-0.044655
2424	0.397849
2408	0.095295
2392	0.042343
2376	0.060510
2360	0.086450
2344	0.165271
2328	0.371789
2312	0.395321
2296	0.609445
2280	0.928211
2264	1.190423
2248	1.679468
2232	2.249836
2216	3.166842
2200	4.230260
2184	5.162668
2168	6.565165
2152	8.217763
2136	9.512233
2120	11.0917
2104	12.7765
2088	14.3437
2072	16.0899
2056	17.2416
2040	18.5798
2024	19.9029
2008	20.967
1992	22.064
1976	22.8513
1960	23.7465
1944	24.3791
1928	25.0141
1912	25.8549
1896	26.1051
1880	26.3541
1864	26.8147
1848	27.2997
1832	27.2951
1816	27.6807
1800	27.938
1784	28.0009
1768	28.0591
1752	28.3357
1736	28.4155
1720	28.3714
1704	28.4064
1688	28.7846
1672	28.5042
1656	28.697
1640	28.8732
1624	28.901
1608	28.8144
1592	28.7718
1576	29.0184
1560	29.1527
1544	29.1413
1528	28.9202
1512	29.1581
1496	29.0983
1480	29.0079
1464	29.1389
1448	29.0429
1432	29.0912
1416	29.2616
1400	29.2192
1384	29.3371
1368	29.1992
1352	29.1517
1336	29.4085
1320	29.3971
1304	29.218
1288	29.3303
1272	29.4097
1256	29.3843
1240	29.2802
1224	29.647
1208	29.5954
1192	29.433
1176	29.4183
1160	29.3879
1144	29.5399
1128	29.3371
1112	29.2677
1096	28.9907
1080	29.3471
1064	29.1216
1048	29.396
1032	29.5012
1016	29.324
1000	28.9926
984	 29.6611
968	 29.5202
952	 29.2048
936	 28.7769
920	 29.2253
904	 28.9558
888	 28.6688
872	 28.5026
856	 28.8582
840	 29.0121
824	 28.2072
808	 28.569
792	 28.6061
776	 27.7794
760	 27.676
744	 28.1069
728	 28.0441
712	 27.3559
696	 26.8426
680	 27.4362
664	 27.2
648	 25.85
632	 26.1789
616	 26.5873
600	 25.8978
584	 24.8968
568	 25.1931
552	 25.1417
536	 24.8524
520	 23.3476
504	 23.3003
488	 23.809
472	 22.7022
456	 22.4913
440	 26.9678
424	 21.1529
408	 29.5871
392	 26.0411
376	 53.4559
370	 -30.9466

File: LPE454_t08.asc
PE IR       SPECTRUM    SPECTRUM    ASCII       PEDS        1.60
  -1
LPE39C~1.ASC
17/05/19
15:01:37.00
17/05/19
15:02:03.00
tln
$LPE454_t0008$<tbV0>[-5.2,-13.0,8.0,0.0,27,1,0]
27.028
64

2002,4.07
MIRTGS : RIGHTBACK : INTERNAL 2
MIR : ON : INTERNAL 2
OPTKBR

0.200000
8
8.000000
FILLER
RATIO
SPECTRUM
UNLOCKED 256

DOUBLE
64
COMBINED
1
0
0

0.002000
RATIO

1
0
TRUE
51149
0
LEFT NOT FITTED RIGHT NOT FITTED 0
NONE
NONE
15600
12
4.427000
51148
TRUE
1 0 8 72 0 0 0 0

15798

#HDR
-1
-1
#GR
µM
%T
2.38419e-05
0.0
2.000000
0.002000
12515
8
35.5544
-13.575
#DATA
2.000000	 -0.122332
2.084000	 1.498388
2.168000	 0.304917
2.252000	 -0.057101
2.336000	 0.181374
2.420000	 0.786591
2.504000	 0.121806
2.588000	 0.150499
2.672000	 -0.073127
2.756000	 0.080107
2.840000	 0.093172
2.924000	 0.082693
3.008000	 0.086424
3.092000	 0.224893
3.176000	 0.093000
3.260000	 0.000577
3.344000	 -0.170790
3.428000	 -0.037661
3.512000	 0.188590
3.596000	 0.059418
3.680000	 0.003781
3.764000	 0.067770
3.848000	 -0.033140
3.932000	 -0.014328
4.016000	 0.146329
4.100000	 0.021921
4.184000	 0.060713
4.268000	 0.265652
4.352000	 0.634318
4.436000	 1.553137
4.520000	 3.535665
4.604000	 6.418755
4.688000	 10.2593
4.772000	 14.1936
4.856000	 17.7547
4.940000	 20.7486
5.024000	 23.0489
5.108000	 24.8856
5.192000	 26.3719
5.276000	 27.1243
5.359999	 28.5856
5.444000	 28.678
5.528000	 29.84
5.612000	 29.6105
5.696000	 30.7432
5.780000	 30.1105
5.864000	 31.0658
5.948000	 30.6359
6.032000	 31.3061
6.116000	 31.4058
6.200000	 30.9556
6.284000	 31.831
6.368000	 31.2101
6.452000	 31.4306
6.536000	 31.9347
6.620000	 31.1669
6.704000	 31.5483
6.788000	 31.9501
6.872000	 31.0745
6.956000	 31.1462
7.040000	 31.8555
7.124000	 31.3718
7.208000	 30.8897
7.292000	 31.5839
7.376000	 31.6865
7.460000	 31.0104
7.544000	 30.9262
7.628000	 31.5609
7.712000	 31.5682
7.796000	 30.7948
7.880000	 30.8935
7.964000	 31.6168
8.048000	 31.6669
8.132000	 30.8266
8.216000	 30.8101
8.300000	 31.1358
8.384000	 31.6981
8.468000	 31.4321
8.552000	 30.842
8.635999	 30.5989
8.719999	 30.9733
8.804000	 31.4169
8.888000	 31.4681
8.972000	 30.7563
9.056000	 30.2935
9.140000	 30.1896
9.224000	 30.9064
9.308000	 31.1306
9.391999	 31.0356
9.475999	 30.3995
9.560000	 30.0633
9.644000	 30.4008
9.728000	 30.6527
9.812000	 31.0937
9.896000	 30.9988
9.980000	 30.4392
10.064	30.0095
10.148	29.7271
10.232	30.1012
10.316	30.4193
10.4	30.7095
10.484	30.7129
10.568	30.3568
10.652	29.7957
10.736	29.3599
10.82	29.5247
10.904	29.682
10.988	29.8981
11.072	30.3322
11.156	30.225
11.24	29.831
11.324	29.4357
11.408	28.9235
11.492	28.7412
11.576	28.9678
11.66	29.2105
11.744	29.4935
11.828	29.8444
11.912	29.9307
11.996	29.7127
12.08	29.124
12.164	28.5764
12.248	28.3297
12.332	28.2911
12.416	28.3407
12.5	28.5542
12.584	28.8317
12.668	28.9893
12.752	29.2094
12.836	29.0639
12.92	28.87
13.004	28.7502
13.088	28.2463
13.172	27.96
13.256	28.0157
13.34	28.1024
13.424	27.9389
13.508	27.5815
13.592	27.5766
13.676	27.8885
13.76	28.2425
13.844	28.2923
13.928	28.2016
14.012	27.9067
14.096	27.4414
14.18	27.2242
14.264	27.2049
14.348	26.9831
14.432	26.6588
14.516	26.6329
14.6	26.8788
14.684	27.2067
14.768	27.5372
14.852	27.6254
14.936	27.3424
15.02	27.1
15.104	27.153
15.188	27.1165
15.272	26.7964
15.356	26.4527
15.44	26.1798
15.524	25.8915
15.608	25.6649
15.692	25.6669
15.776	25.8202
15.86	25.7975
15.944	25.6033
16.028	25.5921
16.112	25.781
16.196	25.897
16.28	25.9165
16.364	25.9549
16.448	25.9508
16.532	25.8248
16.616	25.7169
16.7	25.7675
16.784	25.8242
16.868	25.6511
16.952	25.2627
17.036	24.8702
17.12	24.583
17.204	24.3171
17.288	24.0222
17.372	23.8421
17.456	23.9302
17.54	24.2088
17.624	24.4652
17.708	24.5949
17.792	24.6253
17.876	24.6079
17.96	24.572
18.044	24.5563
18.128	24.6167
18.212	24.7727
18.296	24.9397
18.38	24.9513
18.464	24.7114
18.548	24.3211
18.632	23.9862
18.716	23.7905
18.8	23.6465
18.884	23.4844
18.968	23.3827
19.052	23.4396
19.136	23.5919
19.22	23.6578
19.304	23.5339
19.388	23.294
19.472	23.0876
19.556	22.9863
19.64	22.9639
19.724	22.9956
19.808	23.1106
19.892	23.3404
19.976	23.6705
20.06	24.0697
20.144	24.5013
20.228	24.8842
20.312	25.0802
20.396	24.9637
20.48	24.5383
20.564	23.9715
20.648	23.4832
20.732	23.2007
20.816	23.0939
20.9	23.0294
20.984	22.8934
21.068	22.6796
21.152	22.5027
21.236	22.4966
21.32	22.6703
21.404	22.8584
21.488	22.8422
21.572	22.5338
21.656	22.075
21.74	21.7432
21.824	21.7366
21.908	22.0071
21.992	22.3023
22.076	22.3515
22.16	22.0481
22.244	21.5127
22.328	20.9784
22.412	20.6632
22.496	20.666
22.58	20.9348
22.664	21.3176
22.748	21.6215
22.832	21.6935
22.916	21.4559
23	20.9796
23.084	20.4338
23.168	20.0344
23.252	19.9321
23.336	20.1581
23.42	20.5545
23.504	20.8703
23.588	20.8781
23.672	20.4895
23.756	19.8128
23.84	19.0509
23.924	18.4338
24.008	18.1422
24.092	18.2542
24.176	18.6995
24.26	19.2007
24.344	19.3017
24.428	18.6152
24.512	17.0231
24.596	14.8472
24.68	12.7657
24.764	11.5391
24.848	11.6118
24.932	13.0881
25.016	15.7002
25.1	18.8803
25.184	22.0368
25.268	24.8101
25.352	27.1301
25.436	28.9972
25.52	30.3765
25.604	31.1857
25.688	31.3518
25.772	30.9656
25.856	30.3366
25.94	29.497
26.024	28.4114
26.108	27.2365
26.192	26.459
26.276	26.6496
26.36	28.2137
26.444	30.9525
26.528	33.8807
26.612	35.519
26.696	34.0804
26.78	28.0476
26.864	16.8183
26.948	1.510348
27.028	-13.575