Folder: Masteroppgave/Bakgrunnsmateriale/MATLAB/FTIR/ftir_data/LPE454/Mapping_121 (part 9)

File: LPE454_t13_cm-1.asc
PE IR       SPECTRUM    SPECTRUM    ASCII       PEDS        1.60
  -1
LPD730~1.ASC
17/05/19
15:25:18.00
17/05/19
15:25:18.00
tln
$LPE454_t0013$<tbV0>[10.4,-10.4,8.0,0.0,27,1,0]
370
64

2002,4.07
MIRTGS : RIGHTBACK : INTERNAL 2
MIR : ON : INTERNAL 2
OPTKBR

0.200000
8
8.000000
FILLER
RATIO
SPECTRUM
UNLOCKED 256

DOUBLE
64
COMBINED
1
0
0

1.000000
RATIO

1
0
TRUE
51149
0
LEFT NOT FITTED RIGHT NOT FITTED 0
NONE
NONE
15600
12
4.427000
51148
TRUE
1 0 8 72 0 0 0 0

15798

#HDR
-1
-1
#GR
CM-1
%T
2.38419e-05
0.0
5000
-1.000000
4631
8
121.224
-3.732895
#DATA
5000	0.424432
4984	0.037622
4968	0.088334
4952	0.589060
4936	0.227618
4920	0.285625
4904	0.341486
4888	0.446557
4872	0.389766
4856	0.315380
4840	0.100588
4824	0.416707
4808	-0.183033
4792	0.007200
4776	-0.674533
4760	1.378202
4744	1.178526
4728	0.605678
4712	0.377154
4696	0.106406
4680	-0.211119
4664	0.080728
4648	0.219106
4632	0.787425
4616	0.271582
4600	0.218677
4584	0.045275
4568	0.371789
4552	0.248742
4536	-0.474858
4520	-1.027131
4504	-1.495385
4488	4.152584
4472	12.5233
4456	1.613044
4440	-0.861501
4424	-0.407123
4408	0.200986
4392	0.186705
4376	0.140762
4360	0.718522
4344	0.392794
4328	0.410866
4312	0.012493
4296	0.253367
4280	0.435495
4264	-0.086760
4248	0.105357
4232	-0.081729
4216	-0.166177
4200	0.209856
4184	0.102400
4168	0.276780
4152	0.151181
4136	0.151753
4120	0.202798
4104	-0.052022
4088	0.084543
4072	0.013232
4056	0.081443
4040	-0.086498
4024	-0.011038
4008	-0.235486
3992	-0.023603
3976	0.135421
3960	0.057911
3944	0.211524
3928	0.052952
3912	0.092458
3896	0.136947
3880	0.227046
3864	0.013351
3848	-0.002145
3832	0.229668
3816	-0.034236
3800	0.195145
3784	0.038051
3768	0.032734
3752	-0.052857
3736	0.081467
3720	0.121712
3704	0.128364
3688	0.219821
3672	0.119900
3656	0.007605
3640	0.093150
3624	0.012898
3608	-0.010013
3592	0.178837
3576	0.144910
3560	-0.020766
3544	0.134110
3528	0.046038
3512	-0.037002
3496	0.116753
3480	0.060939
3464	-0.024843
3448	0.097393
3432	0.064706
3416	-0.027418
3400	-0.023555
3384	0.187635
3368	-0.141215
3352	0.155711
3336	0.049209
3320	0.134181
3304	-0.039720
3288	0.138640
3272	0.076556
3256	0.002980
3240	0.163745
3224	0.168871
3208	0.100159
3192	0.191664
3176	0.079751
3160	-0.015735
3144	0.005865
3128	0.063133
3112	0.046777
3096	0.027441
3080	0.039529
3064	-0.062298
3048	0.160479
3032	-0.035071
3016	0.014472
3000	0.048708
2984	0.098466
2968	0.069355
2952	-0.017929
2936	0.072741
2920	-0.032377
2904	0.120139
2888	-0.152564
2872	-0.040102
2856	0.028681
2840	-0.000977
2824	0.023484
2808	0.075554
2792	0.047802
2776	0.071692
2760	0.111031
2744	-0.054860
2728	0.039625
2712	0.010728
2696	0.010919
2680	0.073385
2664	0.038266
2648	0.102210
2632	-0.102806
2616	-0.015664
2600	0.010156
2584	0.032234
2568	0.043392
2552	-0.053882
2536	0.072908
2520	-0.085449
2504	0.115776
2488	0.093054
2472	-0.077772
2456	0.160646
2440	-0.022888
2424	-0.268435
2408	-0.158953
2392	0.041675
2376	0.153970
2360	0.070714
2344	-0.009846
2328	0.175166
2312	0.356340
2296	0.335693
2280	0.671434
2264	1.132273
2248	1.528620
2232	2.182912
2216	2.996230
2200	4.069280
2184	5.067205
2168	6.562280
2152	8.196353
2136	9.683299
2120	11.3812
2104	13.1919
2088	14.9153
2072	16.7264
2056	18.3084
2040	19.5689
2024	21.117
2008	22.194
1992	23.4141
1976	24.3984
1960	25.2838
1944	26.1964
1928	26.7956
1912	27.5262
1896	28.0488
1880	28.5362
1864	29.0687
1848	29.5151
1832	29.9551
1816	30.1792
1800	30.4098
1784	30.6776
1768	30.8624
1752	30.9976
1736	31.3328
1720	31.15
1704	31.5031
1688	31.4692
1672	31.3971
1656	31.7135
1640	31.6904
1624	31.6989
1608	31.7096
1592	31.5596
1576	31.6937
1560	31.7581
1544	31.8671
1528	31.7682
1512	31.6913
1496	31.5403
1480	31.5398
1464	31.5521
1448	31.5083
1432	31.6089
1416	31.5848
1400	31.4965
1384	31.5479
1368	31.4112
1352	31.3807
1336	31.3983
1320	31.4566
1304	31.2174
1288	31.2248
1272	31.3863
1256	31.1247
1240	31.1497
1224	31.1528
1208	31.1189
1192	30.952
1176	30.9247
1160	31.0222
1144	30.9023
1128	30.6962
1112	30.6749
1096	30.4108
1080	30.4296
1064	30.3555
1048	30.1095
1032	30.0978
1016	29.6634
1000	29.9022
984	 29.8513
968	 29.5584
952	 29.298
936	 29.4705
920	 29.1168
904	 29.0318
888	 28.9768
872	 28.6773
856	 28.2425
840	 28.5338
824	 27.9643
808	 27.9239
792	 27.2186
776	 27.2968
760	 26.6207
744	 26.8926
728	 26.6273
712	 26.2308
696	 25.6388
680	 25.5062
664	 25.6323
648	 24.9724
632	 24.3927
616	 24.5975
600	 23.7596
584	 23.418
568	 23.0826
552	 23.1763
536	 22.5481
520	 21.8369
504	 22.1108
488	 20.9503
472	 20.2868
456	 18.2967
440	 19.1451
424	 20.7382
408	 25.0413
392	 -3.568387
376	 3.992652
370	 121.224

File: LPE454_t14.asc
PE IR       SPECTRUM    SPECTRUM    ASCII       PEDS        1.60
  -1
LPD79C~1.ASC
17/05/19
15:29:54.00
17/05/19
15:30:20.00
tln
$LPE454_t0014$<tbV0>[7.8,-10.4,8.0,0.0,27,1,0]
27.028
64

2002,4.07
MIRTGS : RIGHTBACK : INTERNAL 2
MIR : ON : INTERNAL 2
OPTKBR

0.200000
8
8.000000
FILLER
RATIO
SPECTRUM
UNLOCKED 256

DOUBLE
64
COMBINED
1
0
0

0.002000
RATIO

1
0
TRUE
51149
0
LEFT NOT FITTED RIGHT NOT FITTED 0
NONE
NONE
15600
12
4.427000
51148
TRUE
1 0 8 72 0 0 0 0

15798

#HDR
-1
-1
#GR
µM
%T
2.38419e-05
0.0
2.000000
0.002000
12515
8
34.1239
-20.5541
#DATA
2.000000	 0.327444
2.084000	 0.192775
2.168000	 0.912361
2.252000	 -1.500432
2.336000	 0.000468
2.420000	 0.237172
2.504000	 0.204115
2.588000	 0.298661
2.672000	 0.111641
2.756000	 -0.077564
2.840000	 0.169714
2.924000	 0.035421
3.008000	 0.086617
3.092000	 -0.145298
3.176000	 0.057563
3.260000	 0.125591
3.344000	 0.049601
3.428000	 0.124004
3.512000	 -0.071887
3.596000	 0.077658
3.680000	 -0.049993
3.764000	 0.015881
3.848000	 -0.038694
3.932000	 0.018605
4.016000	 -0.006695
4.100000	 -0.015026
4.184000	 0.091091
4.268000	 0.206722
4.352000	 0.721541
4.436000	 1.826354
4.520000	 4.012700
4.604000	 7.479985
4.688000	 11.8891
4.772000	 16.5557
4.856000	 20.7521
4.940000	 23.9047
5.024000	 26.5289
5.108000	 28.6024
5.192000	 29.9939
5.276000	 31.2033
5.359999	 31.9677
5.444000	 32.58
5.528000	 33.028
5.612000	 33.2662
5.696000	 33.4996
5.780000	 33.7092
5.864000	 33.7094
5.948000	 33.9604
6.032000	 33.9562
6.116000	 34.0029
6.200000	 33.9555
6.284000	 33.7792
6.368000	 33.9664
6.452000	 33.8814
6.536000	 33.8693
6.620000	 33.9627
6.704000	 33.7713
6.788000	 33.9009
6.872000	 33.9116
6.956000	 33.742
7.040000	 33.7231
7.124000	 33.7612
7.208000	 33.8242
7.292000	 33.656
7.376000	 33.6296
7.460000	 33.7078
7.544000	 33.452
7.628000	 33.5788
7.712000	 33.5521
7.796000	 33.5414
7.880000	 33.2359
7.964000	 33.322
8.048000	 33.295
8.132000	 33.3146
8.216000	 33.307
8.300000	 33.2286
8.384000	 33.2869
8.468000	 33.1439
8.552000	 33.1294
8.635999	 33.1405
8.719999	 32.8711
8.804000	 32.8717
8.888000	 32.9009
8.972000	 32.9917
9.056000	 32.8179
9.140000	 32.7832
9.224000	 32.4914
9.308000	 32.5308
9.391999	 32.562
9.475999	 32.8055
9.560000	 32.3896
9.644000	 32.5332
9.728000	 32.1359
9.812000	 32.0363
9.896000	 32.4181
9.980000	 32.4744
10.064	32.2293
10.148	32.1592
10.232	32.0691
10.316	31.9344
10.4	31.918
10.484	31.8479
10.568	32.0203
10.652	31.7543
10.736	31.6834
10.82	31.4914
10.904	31.1757
10.988	31.1601
11.072	31.2219
11.156	31.231
11.24	31.1455
11.324	31.0105
11.408	31.1482
11.492	31.083
11.576	30.7893
11.66	30.5629
11.744	30.4777
11.828	30.5824
11.912	30.4736
11.996	30.5218
12.08	30.6061
12.164	30.5464
12.248	30.7156
12.332	30.4002
12.416	29.8439
12.5	29.8911
12.584	29.8647
12.668	29.5739
12.752	29.4617
12.836	29.6671
12.92	30.0624
13.004	30.1862
13.088	29.8218
13.172	29.3505
13.256	29.2004
13.34	29.1851
13.424	28.9975
13.508	28.8647
13.592	28.9563
13.676	28.743
13.76	28.5887
13.844	28.7594
13.928	28.8547
14.012	28.6651
14.096	28.5752
14.18	28.5328
14.264	28.1576
14.348	27.8356
14.432	27.8073
14.516	27.9024
14.6	27.9807
14.684	27.9208
14.768	27.8526
14.852	27.7974
14.936	27.7306
15.02	27.9373
15.104	28.2584
15.188	28.2482
15.272	27.9861
15.356	27.7404
15.44	27.6437
15.524	27.6356
15.608	27.4677
15.692	27.0809
15.776	26.7311
15.86	26.5648
15.944	26.4288
16.028	26.2558
16.112	26.19
16.196	26.2911
16.28	26.4154
16.364	26.3734
16.448	26.1989
16.532	26.1642
16.616	26.3799
16.7	26.632
16.784	26.7106
16.868	26.5872
16.952	26.3467
17.036	26.1199
17.12	25.9857
17.204	25.883
17.288	25.6984
17.372	25.4122
17.456	25.1269
17.54	24.9807
17.624	25.0097
17.708	25.106
17.792	25.1301
17.876	25.0363
17.96	24.8798
18.044	24.744
18.128	24.6892
18.212	24.7227
18.296	24.8069
18.38	24.9172
18.464	25.0518
18.548	25.1816
18.632	25.227
18.716	25.1145
18.8	24.8525
18.884	24.5605
18.968	24.4013
19.052	24.4501
19.136	24.6091
19.22	24.6779
19.304	24.5365
19.388	24.2606
19.472	24.0406
19.556	23.9934
19.64	24.0668
19.724	24.1314
19.808	24.1172
19.892	24.0439
19.976	23.9713
20.06	23.9492
20.144	23.9902
20.228	24.0621
20.312	24.116
20.396	24.1245
20.48	24.094
20.564	24.0418
20.648	23.9768
20.732	23.9059
20.816	23.852
20.9	23.8525
20.984	23.9174
21.068	23.9896
21.152	23.9687
21.236	23.7722
21.32	23.4003
21.404	22.9523
21.488	22.5677
21.572	22.346
21.656	22.2863
21.74	22.2999
21.824	22.2842
21.908	22.2053
21.992	22.1158
22.076	22.0958
22.16	22.1694
22.244	22.2521
22.328	22.1984
22.412	21.9105
22.496	21.4294
22.58	20.9272
22.664	20.6257
22.748	20.6847
22.832	21.1126
22.916	21.8037
23	22.5588
23.084	23.1886
23.168	23.5866
23.252	23.764
23.336	23.7972
23.42	23.7534
23.504	23.6502
23.588	23.4465
23.672	23.0774
23.756	22.4998
23.84	21.7757
23.924	21.0402
24.008	20.5058
24.092	20.4493
24.176	21.0755
24.26	22.511
24.344	24.7403
24.428	27.5038
24.512	30.1948
24.596	32.0965
24.68	32.6664
24.764	31.817
24.848	30.0456
24.932	28.1454
25.016	26.7623
25.1	26.1201
25.184	26.0359
25.268	26.0259
25.352	25.5268
25.436	23.9346
25.52	20.7624
25.604	15.7403
25.688	8.980266
25.772	1.062299
25.856	-7.072048
25.94	-14.1634
26.024	-18.9331
26.108	-20.5541
26.192	-18.8814
26.276	-14.3743
26.36	-8.059644
26.444	-0.915729
26.528	6.391075
26.612	13.6403
26.696	20.6409
26.78	26.9002
26.864	31.624
26.948	33.8828
27.028	33.1081

File: LPE454_t14_cm-1.asc
PE IR       SPECTRUM    SPECTRUM    ASCII       PEDS        1.60
  -1
LPE7BB~1.ASC
17/05/19
15:29:54.00
17/05/19
15:29:54.00
tln
$LPE454_t0014$<tbV0>[7.8,-10.4,8.0,0.0,27,1,0]
370
64

2002,4.07
MIRTGS : RIGHTBACK : INTERNAL 2
MIR : ON : INTERNAL 2
OPTKBR

0.200000
8
8.000000
FILLER
RATIO
SPECTRUM
UNLOCKED 256

DOUBLE
64
COMBINED
1
0
0

1.000000
RATIO

1
0
TRUE
51149
0
LEFT NOT FITTED RIGHT NOT FITTED 0
NONE
NONE
15600
12
4.427000
51148
TRUE
1 0 8 72 0 0 0 0

15798

#HDR
-1
-1
#GR
CM-1
%T
2.38419e-05
0.0
5000
-1.000000
4631
8
34.1235
-20.5526
#DATA
5000	0.327444
4984	0.251936
4968	0.541996
4952	0.443220
4936	0.009369
4920	0.068044
4904	-0.214076
4888	-0.116920
4872	0.775671
4856	0.185155
4840	0.067615
4824	0.269031
4808	0.197768
4792	0.605249
4776	1.907873
4760	0.212836
4744	1.816654
4728	-0.541090
4712	0.071907
4696	0.495409
4680	0.390458
4664	0.366520
4648	0.282979
4632	0.701308
4616	0.711369
4600	0.746297
4584	0.377988
4568	-0.576424
4552	-0.909209
4536	-1.406836
4520	-0.658369
4504	-0.586843
4488	14.5637
4472	5.822944
4456	-1.179194
4440	-1.480889
4424	-0.448369
4408	0.425434
4392	0.691103
4376	0.789070
4360	0.989127
4344	0.465512
4328	0.495982
4312	0.227546
4296	0.147294
4280	0.027108
4264	-0.049328
4248	0.325298
4232	0.343728
4216	0.307059
4200	0.120663
4184	0.535345
4168	0.483655
4152	-0.138092
4136	0.144100
4120	0.114107
4104	0.024056
4088	0.226593
4072	-0.187635
4056	0.135207
4040	-0.136613
4024	0.133633
4008	0.084185
3992	0.192427
3976	0.194478
3960	0.366926
3944	0.183296
3928	0.121903
3912	0.138187
3896	0.169610
3880	-0.049471
3864	0.298571
3848	-0.074100
3832	0.243258
3816	0.091123
3800	0.035500
3784	0.074434
3768	-0.106549
3752	0.123095
3736	0.190687
3720	0.131750
3704	-0.006318
3688	0.021147
3672	-0.012183
3656	0.119709
3640	0.111150
3624	-0.056457
3608	-0.004816
3592	-0.138640
3576	-0.155806
3560	0.121974
3544	0.127840
3528	0.091266
3512	0.056838
3496	0.107598
3480	0.042390
3464	0.258278
3448	-0.047349
3432	-0.166106
3416	-0.048422
3400	0.008845
3384	-0.103998
3368	0.120234
3352	-0.050139
3336	0.027036
3320	0.035810
3304	-0.044703
3288	-0.057697
3272	0.046300
3256	0.021243
3240	-0.025224
3224	0.051784
3208	0.044131
3192	-0.033664
3176	0.011730
3160	0.113248
3144	-0.031304
3128	0.188183
3112	-0.038003
3096	0.019359
3080	0.087594
3064	0.172805
3048	-0.011014
3032	-0.073289
3016	0.042128
3000	-0.042486
2984	0.028610
2968	0.174307
2952	0.061440
2936	0.075387
2920	0.184965
2904	0.059080
2888	-0.094461
2872	0.041890
2856	0.105905
2840	0.126385
2824	0.011944
2808	0.071454
2792	0.112390
2776	0.031805
2760	0.058507
2744	0.144481
2728	-0.061178
2712	0.022292
2696	-0.078082
2680	0.028777
2664	-0.013422
2648	0.039958
2632	0.004553
2616	0.008893
2600	-0.050330
2584	0.084066
2568	0.088357
2552	-0.007748
2536	-0.020599
2520	0.035047
2504	-0.014901
2488	-0.018143
2472	0.017881
2456	0.029635
2440	-0.021672
2424	0.156664
2408	0.052452
2392	0.051927
2376	0.080633
2360	0.054454
2344	0.186395
2328	0.310611
2312	0.458359
2296	0.760102
2280	1.008605
2264	1.458311
2248	2.152490
2232	2.884507
2216	3.784489
2200	4.983472
2184	6.409502
2168	7.958507
2152	9.582519
2136	11.5167
2120	13.4184
2104	15.3844
2088	17.2555
2072	19.2803
2056	21.1097
2040	22.501
2024	23.9325
2008	25.3007
1992	26.4237
1976	27.614
1960	28.4923
1944	29.2859
1928	29.8973
1912	30.6337
1896	31.1778
1880	31.561
1864	32.0053
1848	32.3705
1832	32.6318
1816	32.888
1800	33.1575
1784	33.277
1768	33.423
1752	33.6148
1736	33.6935
1720	33.7442
1704	33.7616
1688	33.9403
1672	33.9494
1656	33.9902
1640	33.9599
1624	33.8754
1608	33.8198
1592	33.7854
1576	34.0369
1560	34.1087
1544	33.9484
1528	33.8485
1512	33.9148
1496	33.7934
1480	33.8352
1464	33.8971
1448	33.711
1432	33.7998
1416	33.7479
1400	33.7709
1384	33.8025
1368	33.5801
1352	33.698
1336	33.711
1320	33.5047
1304	33.5162
1288	33.4889
1272	33.2878
1256	33.3153
1240	33.3071
1224	33.3069
1208	33.2271
1192	33.2788
1176	33.2259
1160	33.1522
1144	32.8572
1128	32.8855
1112	32.906
1096	32.8478
1080	32.4065
1064	32.5641
1048	32.468
1032	32.3954
1016	32.1728
1000	32.4558
984	 32.1577
968	 31.8943
952	 31.8878
936	 31.6797
920	 31.2595
904	 31.2071
888	 31.1015
872	 31.1361
856	 30.5155
840	 30.4828
824	 30.5377
808	 30.0531
792	 29.7195
776	 29.9105
760	 29.4097
744	 28.9461
728	 28.5927
712	 28.5973
696	 27.8076
680	 27.8964
664	 28.1119
648	 27.6461
632	 26.6218
616	 26.3574
600	 26.5452
584	 25.9818
568	 24.9922
552	 24.6911
536	 25.2122
520	 24.6721
504	 24.0922
488	 24.0877
472	 23.9119
456	 22.1796
440	 20.6338
424	 23.4567
408	 30.1328
392	 21.2268
376	 12.2482
370	 33.1081

File: LPE454_t15.asc
PE IR       SPECTRUM    SPECTRUM    ASCII       PEDS        1.60
  -1
LPD798~1.ASC
17/05/19
15:34:31.00
17/05/19
15:34:57.00
tln
$LPE454_t0015$<tbV0>[5.2,-10.4,8.0,0.0,27,1,0]
27.028
64

2002,4.07
MIRTGS : RIGHTBACK : INTERNAL 2
MIR : ON : INTERNAL 2
OPTKBR

0.200000
8
8.000000
FILLER
RATIO
SPECTRUM
UNLOCKED 256

DOUBLE
64
COMBINED
1
0
0

0.002000
RATIO

1
0
TRUE
51149
0
LEFT NOT FITTED RIGHT NOT FITTED 0
NONE
NONE
15600
12
4.427000
51148
TRUE
1 0 8 72 0 0 0 0

15798

#HDR
-1
-1
#GR
µM
%T
2.38419e-05
0.0
2.000000
0.002000
12515
8
77.049
-13.3461
#DATA
2.000000	 0.053191
2.084000	 -0.204345
2.168000	 0.231147
2.252000	 -0.122183
2.336000	 0.065265
2.420000	 0.225618
2.504000	 0.158110
2.588000	 -0.133728
2.672000	 -0.002666
2.756000	 0.167792
2.840000	 -0.063264
2.924000	 0.102348
3.008000	 0.080664
3.092000	 0.018090
3.176000	 0.251873
3.260000	 0.131064
3.344000	 0.008417
3.428000	 0.140313
3.512000	 0.090687
3.596000	 -0.000162
3.680000	 0.132717
3.764000	 0.076000
3.848000	 -0.010278
3.932000	 -0.027503
4.016000	 -0.034026
4.100000	 0.057994
4.184000	 0.055790
4.268000	 0.185328
4.352000	 0.614160
4.436000	 1.719085
4.520000	 3.901897
4.604000	 7.546047
4.688000	 11.9833
4.772000	 16.7026
4.856000	 20.9261
4.940000	 24.5592
5.024000	 27.2445
5.108000	 29.2104
5.192000	 30.6476
5.276000	 31.8494
5.359999	 32.5869
5.444000	 33.2029
5.528000	 33.605
5.612000	 33.8149
5.696000	 34.0345
5.780000	 34.2226
5.864000	 34.3467
5.948000	 34.3745
6.032000	 34.3703
6.116000	 34.5006
6.200000	 34.366
6.284000	 34.3304
6.368000	 34.4246
6.452000	 34.3524
6.536000	 34.3638
6.620000	 34.3615
6.704000	 34.4108
6.788000	 34.1298
6.872000	 34.2248
6.956000	 34.3929
7.040000	 34.1558
7.124000	 34.2047
7.208000	 34.0966
7.292000	 33.7644
7.376000	 33.7529
7.460000	 33.9139
7.544000	 33.9274
7.628000	 33.6701
7.712000	 33.7831
7.796000	 33.6839
7.880000	 33.6593
7.964000	 33.5728
8.048000	 33.5215
8.132000	 33.4714
8.216000	 33.5052
8.300000	 33.4982
8.384000	 33.3259
8.468000	 33.31
8.552000	 33.1311
8.635999	 33.2241
8.719999	 33.2243
8.804000	 32.9704
8.888000	 32.8443
8.972000	 33.0086
9.056000	 33.0108
9.140000	 33.0799
9.224000	 32.6294
9.308000	 32.5884
9.391999	 32.4521
9.475999	 32.6414
9.560000	 32.5847
9.644000	 32.3966
9.728000	 32.1782
9.812000	 32.1167
9.896000	 32.1546
9.980000	 31.988
10.064	32.3068
10.148	32.4373
10.232	32.1314
10.316	31.9133
10.4	31.7785
10.484	31.6561
10.568	31.6433
10.652	31.6738
10.736	31.5659
10.82	31.27
10.904	31.1266
10.988	30.7844
11.072	30.9473
11.156	31.1782
11.24	31.2109
11.324	31.2506
11.408	30.9616
11.492	30.9765
11.576	30.9605
11.66	30.6515
11.744	30.5062
11.828	30.2651
11.912	30.1443
11.996	30.2918
12.08	30.417
12.164	30.4271
12.248	30.4233
12.332	30.3908
12.416	29.9581
12.5	29.6375
12.584	29.4213
12.668	29.3177
12.752	29.233
12.836	29.2109
12.92	29.4176
13.004	29.5296
13.088	29.1499
13.172	29.0222
13.256	29.2243
13.34	29.1432
13.424	28.9145
13.508	28.6894
13.592	28.598
13.676	28.467
13.76	28.4016
13.844	28.6031
13.928	28.7658
14.012	28.8256
14.096	28.7179
14.18	28.5807
14.264	28.4581
14.348	28.2512
14.432	28.1855
14.516	28.0587
14.6	27.6926
14.684	27.45
14.768	27.4568
14.852	27.4936
14.936	27.3141
15.02	27.1442
15.104	27.3159
15.188	27.587
15.272	27.6816
15.356	27.5826
15.44	27.326
15.524	27.0576
15.608	26.9147
15.692	26.9232
15.776	27.015
15.86	26.9775
15.944	26.6825
16.028	26.3584
16.112	26.2584
16.196	26.324
16.28	26.3703
16.364	26.3026
16.448	26.1731
16.532	26.1217
16.616	26.2069
16.7	26.3145
16.784	26.2919
16.868	26.1457
16.952	26.0401
17.036	26.0753
17.12	26.157
17.204	26.1583
17.288	26.0755
17.372	25.9465
17.456	25.7665
17.54	25.5661
17.624	25.4239
17.708	25.326
17.792	25.1507
17.876	24.8579
17.96	24.5887
18.044	24.484
18.128	24.502
18.212	24.4967
18.296	24.4312
18.38	24.4227
18.464	24.5618
18.548	24.7823
18.632	24.9514
18.716	25.0242
18.8	25.0325
18.884	24.9589
18.968	24.7327
19.052	24.3709
19.136	24.0329
19.22	23.8896
19.304	23.9628
19.388	24.1189
19.472	24.1944
19.556	24.1028
19.64	23.8582
19.724	23.5375
19.808	23.2303
19.892	22.9922
19.976	22.8279
20.06	22.7184
20.144	22.6613
20.228	22.6719
20.312	22.7491
20.396	22.8428
20.48	22.8871
20.564	22.8566
20.648	22.8083
20.732	22.8326
20.816	22.9709
20.9	23.1787
20.984	23.3805
21.068	23.5559
21.152	23.7696
21.236	24.1069
21.32	24.5672
21.404	25.0123
21.488	25.2101
21.572	24.9679
21.656	24.2477
21.74	23.2049
21.824	22.126
21.908	21.294
21.992	20.8615
22.076	20.8083
22.16	20.9737
22.244	21.156
22.328	21.218
22.412	21.1294
22.496	20.963
22.58	20.8257
22.664	20.7971
22.748	20.8918
22.832	21.0656
22.916	21.2453
23	21.42
23.084	21.6067
23.168	21.8442
23.252	22.1508
23.336	22.4781
23.42	22.7432
23.504	22.8509
23.588	22.7792
23.672	22.6077
23.756	22.4786
23.84	22.5176
23.924	22.761
24.008	23.1869
24.092	23.7568
24.176	24.3798
24.26	24.8067
24.344	24.6165
24.428	23.412
24.512	20.9846
24.596	17.4936
24.68	13.4115
24.764	9.338772
24.848	5.776972
24.932	2.921564
25.016	0.644177
25.1	-1.148801
25.184	-2.563563
25.268	-3.705362
25.352	-4.713050
25.436	-5.695012
25.52	-6.769735
25.604	-8.079264
25.688	-9.702132
25.772	-11.4632
25.856	-12.8961
25.94	-13.3179
26.024	-12.2199
26.108	-9.676303
26.192	-6.387172
26.276	-3.379806
26.36	-1.774779
26.444	-1.919604
26.528	-2.903541
26.612	-2.687656
26.696	1.467839
26.78	12.0329
26.864	29.8921
26.948	53.4333
27.028	77.049

File: LPE454_t15_cm-1.asc
PE IR       SPECTRUM    SPECTRUM    ASCII       PEDS        1.60
  -1
LPE73B~1.ASC
17/05/19
15:34:31.00
17/05/19
15:34:31.00
tln
$LPE454_t0015$<tbV0>[5.2,-10.4,8.0,0.0,27,1,0]
370
64

2002,4.07
MIRTGS : RIGHTBACK : INTERNAL 2
MIR : ON : INTERNAL 2
OPTKBR

0.200000
8
8.000000
FILLER
RATIO
SPECTRUM
UNLOCKED 256

DOUBLE
64
COMBINED
1
0
0

1.000000
RATIO

1
0
TRUE
51149
0
LEFT NOT FITTED RIGHT NOT FITTED 0
NONE
NONE
15600
12
4.427000
51148
TRUE
1 0 8 72 0 0 0 0

15798

#HDR
-1
-1
#GR
CM-1
%T
2.38419e-05
0.0
5000
-1.000000
4631
8
77.049
-13.3221
#DATA
5000	0.053191
4984	0.285339
4968	-0.400042
4952	0.487446
4936	-0.276780
4920	0.442147
4904	0.180196
4888	-0.171899
4872	0.843858
4856	0.272297
4840	0.082850
4824	0.022792
4808	0.555443
4792	-0.640773
4776	0.184059
4760	1.271295
4744	1.298880
4728	0.413942
4712	0.298428
4696	-0.812172
4680	0.754213
4664	0.547719
4648	0.128173
4632	0.368762
4616	0.194835
4600	0.546169
4584	0.726628
4568	0.384092
4552	0.323152
4536	-0.217485
4520	-0.318622
4504	1.513195
4488	2.793502
4472	3.009915
4456	-0.075602
4440	-0.073122
4424	0.081467
4408	0.265669
4392	0.682735
4376	0.506019
4360	0.286650
4344	0.738358
4328	0.482845
4312	0.107717
4296	-0.146794
4280	0.031685
4264	0.157642
4248	-0.097322
4232	0.328421
4216	-0.398707
4200	-0.082921
4184	-0.505495
4168	0.466656
4152	0.240874
4136	0.098085
4120	0.485968
4104	0.044012
4088	0.141048
4072	0.118136
4056	-0.231909
4040	-0.044012
4024	-0.126409
4008	0.186657
3992	0.144004
3976	0.124049
3960	0.241661
3944	-0.066924
3928	0.174427
3912	0.093126
3896	0.123238
3880	-0.130391
3864	-0.133299
3848	-0.014138
3832	0.158286
3816	0.068330
3800	0.051498
3784	0.014185
3768	0.136756
3752	-0.022292
3736	0.052905
3720	0.184392
3704	0.004696
3688	0.143408
3672	0.149250
3656	-0.053119
3640	-0.112748
3624	0.187253
3608	0.051140
3592	0.070047
3576	0.194358
3560	0.002312
3544	0.150752
3528	0.113725
3512	0.141048
3496	0.115871
3480	-0.018954
3464	0.075578
3448	0.061392
3432	0.018477
3416	0.179147
3400	-0.054740
3384	0.107741
3368	0.134038
3352	0.082325
3336	0.013971
3320	0.112009
3304	0.203347
3288	0.105857
3272	0.022864
3256	0.099492
3240	0.074124
3224	0.070858
3208	0.062441
3192	0.182747
3176	0.076913
3160	0.027298
3144	0.402116
3128	0.063896
3112	0.019383
3096	0.045704
3080	-0.035238
3064	0.061178
3048	0.060892
3032	-0.063729
3016	0.174570
3000	0.071835
2984	0.051069
2968	0.063443
2952	-0.013685
2936	0.067281
2920	0.098657
2904	-0.101161
2888	0.054979
2872	0.117301
2856	0.097298
2840	0.170087
2824	0.033783
2808	-0.007772
2792	-0.063443
2776	0.026655
2760	-0.107407
2744	-0.037360
2728	0.143337
2712	0.132560
2696	0.063705
2680	0.069856
2664	0.006580
2648	0.001287
2632	-0.019598
2616	0.030779
2600	-0.009846
2584	0.058341
2568	0.104665
2552	-0.047039
2536	0.031709
2520	0.028204
2504	0.116062
2488	-0.039410
2472	0.128960
2456	0.014853
2440	0.006318
2424	-0.141549
2408	0.119924
2392	0.019001
2376	0.139141
2360	0.136351
2344	0.176548
2328	0.321054
2312	0.465130
2296	0.628471
2280	0.905609
2264	1.381039
2248	2.031326
2232	2.709674
2216	3.692340
2200	4.828381
2184	6.311106
2168	7.955884
2152	9.649705
2136	11.5474
2120	13.6394
2104	15.6035
2088	17.6593
2072	19.866
2056	21.1541
2040	23.0194
2024	24.5757
2008	25.8877
1992	27.1458
1976	28.1555
1960	29.1077
1944	29.9335
1928	30.5688
1912	31.0947
1896	31.828
1880	32.1881
1864	32.6037
1848	32.9351
1832	33.3422
1816	33.3799
1800	33.6469
1784	33.7756
1768	34.054
1752	34.0427
1736	34.0967
1720	34.1251
1704	34.3671
1688	34.3671
1672	34.3192
1656	34.437
1640	34.4823
1624	34.394
1608	34.3613
1592	34.3423
1576	34.3433
1560	34.6323
1544	34.4277
1528	34.3737
1512	34.3471
1496	34.4418
1480	34.0824
1464	34.2802
1448	34.2526
1432	34.1779
1416	34.0958
1400	34.2274
1384	34.0835
1368	33.7636
1352	33.707
1336	33.9002
1320	33.9643
1304	33.7578
1288	33.6148
1272	33.6923
1256	33.5759
1240	33.4993
1224	33.6165
1208	33.5033
1192	33.3253
1176	33.3018
1160	33.2062
1144	33.1729
1128	32.9123
1112	33.1156
1096	33.098
1080	32.6711
1064	32.46
1048	32.548
1032	32.2055
1016	32.1529
1000	32.062
984	 32.4163
968	 31.8931
952	 31.6215
936	 31.6888
920	 31.2229
904	 30.8896
888	 31.2429
872	 30.9108
856	 30.6037
840	 30.1382
824	 30.442
808	 30.1882
792	 29.3569
776	 29.3076
760	 29.002
744	 28.8658
728	 28.3872
712	 28.8038
696	 28.2188
680	 27.4326
664	 27.187
648	 27.3535
632	 27.0258
616	 26.3561
600	 26.2808
584	 26.159
568	 25.4481
552	 24.4979
536	 24.9818
520	 23.8884
504	 23.1263
488	 22.8871
472	 23.8898
456	 21.1404
440	 20.8583
424	 22.7841
408	 21.0625
392	 -6.633925
376	 -2.973198
370	 77.049