Folder: Masteroppgave/Bakgrunnsmateriale/MATLAB/FTIR/ftir_data/LPE454/Mapping_121 (part 2)

File: LPE454_e124.asc
PE IR       SPECTRUM    SPECTRUM    ASCII       PEDS        1.60
  -1
LP8305~1.ASC
17/05/19
18:01:49.00
17/05/19
18:02:15.00
tln
$LPE454_e0124$<ebV0>[-23.3,12.1,10.0,0.0,27,1,0]
27.028
64

2002,4.07
MIRTGS : RIGHTBACK : INTERNAL 2
MIR : ON : INTERNAL 2
OPTKBR

0.200000
8
8.000000
FILLER
SINGLE
SPECTRUM
UNLOCKED 256

DOUBLE

COMBINED
1
0
0

0.002000
BACKG

1
0
TRUE
51149
0
LEFT NOT FITTED RIGHT NOT FITTED 0
NONE
NONE
15600
12
4.427000
51148
TRUE
1 0 8 72 0 0 0 0

15798

#HDR
-1
-1
#GR
µM
EGY
2.38419e-05
0.0
2.000000
0.002000
12515
8
2.427470
0.008276
#DATA
2.000000	 0.774312
2.084000	 0.868759
2.168000	 0.928672
2.252000	 1.009936
2.336000	 1.134878
2.420000	 1.234262
2.504000	 1.390182
2.588000	 1.444779
2.672000	 1.542842
2.756000	 1.566818
2.840000	 1.615334
2.924000	 1.576750
3.008000	 1.676146
3.092000	 1.771332
3.176000	 1.799024
3.260000	 1.915844
3.344000	 2.013982
3.428000	 1.824551
3.512000	 1.996073
3.596000	 2.196166
3.680000	 2.235647
3.764000	 2.203859
3.848000	 2.205805
3.932000	 2.273173
4.016000	 2.305231
4.100000	 2.268152
4.184000	 2.226696
4.268000	 2.238788
4.352000	 2.317478
4.436000	 2.353003
4.520000	 2.343931
4.604000	 2.312392
4.688000	 2.306101
4.772000	 2.307471
4.856000	 2.353061
4.940000	 2.408909
5.024000	 2.424719
5.108000	 2.397697
5.192000	 2.367629
5.276000	 2.339089
5.359999	 2.345189
5.444000	 2.367195
5.528000	 2.395098
5.612000	 2.394291
5.696000	 2.362523
5.780000	 2.290678
5.864000	 2.247889
5.948000	 2.202508
6.032000	 2.153705
6.116000	 2.107035
6.200000	 1.975697
6.284000	 1.985152
6.368000	 1.947494
6.452000	 1.926474
6.536000	 2.065469
6.620000	 2.047562
6.704000	 1.664535
6.788000	 1.942650
6.872000	 1.764122
6.956000	 1.832609
7.040000	 1.828664
7.124000	 1.703030
7.208000	 1.760816
7.292000	 1.789687
7.376000	 1.792139
7.460000	 1.789782
7.544000	 1.821871
7.628000	 1.829621
7.712000	 1.831181
7.796000	 1.824952
7.880000	 1.750731
7.964000	 1.737843
8.048000	 1.810064
8.132000	 1.801860
8.216000	 1.763690
8.300000	 1.720783
8.384000	 1.719522
8.468000	 1.694000
8.552000	 1.654346
8.635999	 1.604017
8.719999	 1.584421
8.804000	 1.553740
8.888000	 1.506925
8.972000	 1.452455
9.056000	 1.416640
9.140000	 1.408472
9.224000	 1.410408
9.308000	 1.410968
9.391999	 1.421152
9.475999	 1.342197
9.560000	 1.311487
9.644000	 1.369352
9.728000	 1.353399
9.812000	 1.345939
9.896000	 1.363453
9.980000	 1.378985
10.064	1.380931
10.148	1.369772
10.232	1.353593
10.316	1.331384
10.4	1.303114
10.484	1.275193
10.568	1.252743
10.652	1.242295
10.736	1.227410
10.82	1.210543
10.904	1.190736
10.988	1.164432
11.072	1.147078
11.156	1.134158
11.24	1.113653
11.324	1.063302
11.408	1.021395
11.492	1.034356
11.576	1.068361
11.66	1.078923
11.744	1.073151
11.828	1.064102
11.912	1.045207
11.996	0.982599
12.08	0.871061
12.164	0.839024
12.248	0.901293
12.332	0.935014
12.416	0.937163
12.5	0.935101
12.584	0.942622
12.668	0.956881
12.752	0.967680
12.836	0.968918
12.92	0.964803
13.004	0.961657
13.088	0.958043
13.172	0.953519
13.256	0.949366
13.34	0.942164
13.424	0.932561
13.508	0.924272
13.592	0.916581
13.676	0.905097
13.76	0.890695
13.844	0.876501
13.928	0.863752
14.012	0.851536
14.096	0.838366
14.18	0.824560
14.264	0.808304
14.348	0.785332
14.432	0.755594
14.516	0.730366
14.6	0.723287
14.684	0.727213
14.768	0.726624
14.852	0.719725
14.936	0.710601
15.02	0.701880
15.104	0.694262
15.188	0.686437
15.272	0.677384
15.356	0.667011
15.44	0.656475
15.524	0.646795
15.608	0.637277
15.692	0.627597
15.776	0.618573
15.86	0.610685
15.944	0.603203
16.028	0.595060
16.112	0.585726
16.196	0.575082
16.28	0.561779
16.364	0.544997
16.448	0.528612
16.532	0.518833
16.616	0.516706
16.7	0.517230
16.784	0.516078
16.868	0.512939
16.952	0.508857
17.036	0.504961
17.12	0.502105
17.204	0.499945
17.288	0.497101
17.372	0.493310
17.456	0.489643
17.54	0.486669
17.624	0.483750
17.708	0.480221
17.792	0.476175
17.876	0.472110
17.96	0.468208
18.044	0.464131
18.128	0.459600
18.212	0.454672
18.296	0.449641
18.38	0.444961
18.464	0.440869
18.548	0.437010
18.632	0.432922
18.716	0.428110
18.8	0.422757
18.884	0.417232
18.968	0.411638
19.052	0.406071
19.136	0.400586
19.22	0.395252
19.304	0.390160
19.388	0.385294
19.472	0.380454
19.556	0.375497
19.64	0.370225
19.724	0.364604
19.808	0.358512
19.892	0.351987
19.976	0.345087
20.06	0.337960
20.144	0.330949
20.228	0.324169
20.312	0.317801
20.396	0.311520
20.48	0.305180
20.564	0.298512
20.648	0.291473
20.732	0.284167
20.816	0.276808
20.9	0.269541
20.984	0.262535
21.068	0.255906
21.152	0.249818
21.236	0.244381
21.32	0.239388
21.404	0.234679
21.488	0.229864
21.572	0.224656
21.656	0.219007
21.74	0.212841
21.824	0.206200
21.908	0.199162
21.992	0.191975
22.076	0.185009
22.16	0.178630
22.244	0.173153
22.328	0.168642
22.412	0.164842
22.496	0.161301
22.58	0.157588
22.664	0.153204
22.748	0.148202
22.832	0.142725
22.916	0.137134
23	0.131780
23.084	0.126881
23.168	0.122385
23.252	0.118204
23.336	0.114081
23.42	0.109821
23.504	0.105256
23.588	0.100505
23.672	0.095550
23.756	0.090588
23.84	0.085738
23.924	0.081079
24.008	0.076650
24.092	0.072451
24.176	0.068595
24.26	0.065040
24.344	0.061804
24.428	0.058688
24.512	0.055637
24.596	0.052510
24.68	0.049290
24.764	0.046111
24.848	0.043128
24.932	0.040504
25.016	0.038212
25.1	0.036228
25.184	0.034415
25.268	0.032524
25.352	0.030538
25.436	0.028421
25.52	0.026210
25.604	0.024087
25.688	0.022129
25.772	0.020407
25.856	0.018889
25.94	0.017502
26.024	0.016159
26.108	0.014808
26.192	0.013432
26.276	0.012057
26.36	0.010782
26.444	0.009707
26.528	0.008895
26.612	0.008444
26.696	0.008276
26.78	0.008344
26.864	0.008500
26.948	0.008649
27.028	0.008630

File: LPE454_e124_cm-1.asc
PE IR       SPECTRUM    SPECTRUM    ASCII       PEDS        1.60
  -1
LP071C~1.ASC
17/05/19
18:01:49.00
17/05/19
18:01:49.00
tln
$LPE454_e0124$<ebV0>[-23.3,12.1,10.0,0.0,27,1,0]
370
64

2002,4.07
MIRTGS : RIGHTBACK : INTERNAL 2
MIR : ON : INTERNAL 2
OPTKBR

0.200000
8
8.000000
FILLER
SINGLE
SPECTRUM
UNLOCKED 256

DOUBLE

COMBINED
1
0
0

1.000000
BACKG

1
0
TRUE
51149
0
LEFT NOT FITTED RIGHT NOT FITTED 0
NONE
NONE
15600
12
4.427000
51148
TRUE
1 0 8 72 0 0 0 0

15798

#HDR
-1
-1
#GR
CM-1
EGY
2.38419e-05
0.0
5000
-1.000000
4631
8
2.427458
0.008296
#DATA
5000	0.774312
4984	0.777983
4968	0.780510
4952	0.793290
4936	0.797629
4920	0.803852
4904	0.808095
4888	0.816202
4872	0.824832
4856	0.832366
4840	0.841617
4824	0.854372
4808	0.863885
4792	0.874137
4776	0.884103
4760	0.891709
4744	0.896787
4728	0.901460
4712	0.903367
4696	0.906682
4680	0.911140
4664	0.910258
4648	0.910902
4632	0.917267
4616	0.926327
4600	0.929951
4584	0.938081
4568	0.956821
4552	0.979208
4536	0.984740
4520	0.935578
4504	0.995492
4488	0.988554
4472	1.001691
4456	1.016187
4440	1.009559
4424	1.019215
4408	1.018619
4392	1.023554
4376	1.036024
4360	1.047420
4344	1.062154
4328	1.078009
4312	1.100206
4296	1.118516
4280	1.135706
4264	1.151704
4248	1.166057
4232	1.177525
4216	1.189208
4200	1.195240
4184	1.201891
4168	1.212120
4152	1.217269
4136	1.232290
4120	1.243662
4104	1.257610
4088	1.279163
4072	1.301074
4056	1.318550
4040	1.339268
4024	1.361298
4008	1.378536
3992	1.390743
3976	1.400089
3960	1.409292
3944	1.414608
3928	1.419305
3912	1.424765
3896	1.424098
3880	1.433420
3864	1.444768
3848	1.456880
3832	1.474928
3816	1.488256
3800	1.504850
3784	1.534199
3768	1.545143
3752	1.536679
3736	1.549053
3720	1.564860
3704	1.570296
3688	1.561999
3672	1.555776
3656	1.565241
3640	1.571083
3624	1.571536
3608	1.577019
3592	1.584696
3576	1.595950
3560	1.606798
3544	1.610946
3528	1.611304
3512	1.619601
3496	1.612067
3480	1.604700
3464	1.595640
3448	1.586771
3432	1.576232
3416	1.579141
3400	1.587629
3384	1.598787
3368	1.615142
3352	1.635837
3336	1.657605
3320	1.681828
3304	1.705360
3288	1.724553
3272	1.744294
3256	1.757049
3240	1.770067
3224	1.776337
3208	1.774430
3192	1.781272
3176	1.785731
3160	1.790285
3144	1.802134
3128	1.815509
3112	1.840662
3096	1.867055
3080	1.899409
3064	1.919579
3048	1.947116
3032	1.961517
3016	1.950073
3000	2.009320
2984	2.008748
2968	1.943421
2952	1.906657
2936	1.802539
2920	1.789331
2904	1.930403
2888	1.979756
2872	1.964449
2856	1.910448
2840	2.049255
2824	2.109408
2808	2.146792
2792	2.176618
2776	2.205133
2760	2.226877
2744	2.238130
2728	2.237677
2712	2.233982
2696	2.226424
2680	2.218747
2664	2.207708
2648	2.197909
2632	2.195739
2616	2.200627
2600	2.205538
2584	2.218818
2568	2.243685
2552	2.261757
2536	2.279472
2520	2.296376
2504	2.305912
2488	2.305698
2472	2.296113
2456	2.283167
2440	2.268385
2424	2.249455
2408	2.237081
2392	2.227830
2376	2.220201
2360	2.212071
2344	2.238273
2328	2.257084
2312	2.290177
2296	2.319836
2280	2.337169
2264	2.346754
2248	2.354741
2232	2.352333
2216	2.344584
2200	2.330946
2184	2.318453
2168	2.308869
2152	2.304601
2136	2.306127
2120	2.305674
2104	2.308201
2088	2.307987
2072	2.327132
2056	2.361774
2040	2.391028
2024	2.409219
2008	2.424716
1992	2.425479
1976	2.412819
1960	2.399444
1944	2.386021
1928	2.370738
1912	2.353072
1896	2.339458
1880	2.341341
1864	2.347493
1848	2.357769
1832	2.370166
1816	2.390050
1800	2.395892
1784	2.394914
1768	2.378225
1752	2.349996
1736	2.292728
1720	2.273917
1704	2.240657
1688	2.215003
1672	2.191805
1656	2.140712
1640	2.120804
1624	2.072787
1608	1.944446
1592	1.984930
1576	1.952934
1560	1.893258
1544	1.926946
1528	2.073931
1512	2.055335
1496	1.676845
1480	1.930046
1464	1.906108
1448	1.758408
1432	1.839733
1416	1.815867
1400	1.707911
1384	1.759505
1368	1.791644
1352	1.789999
1336	1.801061
1320	1.825189
1304	1.828956
1288	1.827192
1272	1.781129
1256	1.733970
1240	1.810288
1224	1.791620
1208	1.725363
1192	1.718568
1176	1.679992
1160	1.610755
1144	1.577734
1128	1.521873
1112	1.440501
1096	1.409006
1080	1.409649
1064	1.420617
1048	1.291561
1032	1.361989
1016	1.350188
1000	1.380610
984	 1.367235
968	 1.326799
952	 1.268839
936	 1.237773
920	 1.200151
904	 1.148724
888	 1.103401
872	 1.025390
856	 1.078295
840	 1.047873
824	 0.833821
808	 0.937867
792	 0.949668
776	 0.966501
760	 0.954222
744	 0.930714
728	 0.894832
712	 0.846481
696	 0.778722
680	 0.727796
664	 0.698161
648	 0.657439
632	 0.614047
616	 0.569558
600	 0.517058
584	 0.502014
568	 0.484418
552	 0.460290
536	 0.431585
520	 0.394582
504	 0.355982
488	 0.304269
472	 0.247526
456	 0.197291
440	 0.149488
424	 0.100684
408	 0.055718
392	 0.026464
376	 0.008511
370	 0.008630

File: LPE454_e125.asc
PE IR       SPECTRUM    SPECTRUM    ASCII       PEDS        1.60
  -1
LP8705~1.ASC
17/05/19
19:50:42.00
17/05/19
19:51:08.00
tln
$LPE454_e0125$<ebV0>[-23.3,12.1,10.0,0.0,27,1,0]
27.028
64

2002,4.07
MIRTGS : RIGHTBACK : INTERNAL 2
MIR : ON : INTERNAL 2
OPTKBR

0.200000
8
8.000000
FILLER
SINGLE
SPECTRUM
UNLOCKED 256

DOUBLE

COMBINED
1
0
0

0.002000
BACKG

1
0
TRUE
51149
0
LEFT NOT FITTED RIGHT NOT FITTED 0
NONE
NONE
15600
12
4.427000
51148
TRUE
1 0 8 72 0 0 0 0

15798

#HDR
-1
-1
#GR
µM
EGY
2.38419e-05
0.0
2.000000
0.002000
12515
8
2.427364
0.005984
#DATA
2.000000	 0.772905
2.084000	 0.870173
2.168000	 0.917322
2.252000	 1.003738
2.336000	 1.145873
2.420000	 1.231602
2.504000	 1.388495
2.588000	 1.444493
2.672000	 1.541622
2.756000	 1.562915
2.840000	 1.617772
2.924000	 1.577502
3.008000	 1.674392
3.092000	 1.772052
3.176000	 1.800762
3.260000	 1.916078
3.344000	 2.018863
3.428000	 1.824982
3.512000	 1.992843
3.596000	 2.200489
3.680000	 2.237106
3.764000	 2.201572
3.848000	 2.206502
3.932000	 2.276493
4.016000	 2.307189
4.100000	 2.268170
4.184000	 2.228365
4.268000	 2.241155
4.352000	 2.314746
4.436000	 2.353162
4.520000	 2.343922
4.604000	 2.310349
4.688000	 2.308168
4.772000	 2.309111
4.856000	 2.355194
4.940000	 2.413822
5.024000	 2.425275
5.108000	 2.399898
5.192000	 2.371101
5.276000	 2.339958
5.359999	 2.347454
5.444000	 2.372593
5.528000	 2.396956
5.612000	 2.396346
5.696000	 2.364858
5.780000	 2.289031
5.864000	 2.250043
5.948000	 2.203910
6.032000	 2.157105
6.116000	 2.106237
6.200000	 1.976416
6.284000	 1.987274
6.368000	 1.951074
6.452000	 1.928196
6.536000	 2.066016
6.620000	 2.051325
6.704000	 1.665906
6.788000	 1.945560
6.872000	 1.764910
6.956000	 1.835926
7.040000	 1.829419
7.124000	 1.702388
7.208000	 1.764662
7.292000	 1.788008
7.376000	 1.793309
7.460000	 1.791179
7.544000	 1.823304
7.628000	 1.830103
7.712000	 1.830456
7.796000	 1.827224
7.880000	 1.752212
7.964000	 1.736998
8.048000	 1.811607
8.132000	 1.803172
8.216000	 1.762890
8.300000	 1.723993
8.384000	 1.722519
8.468000	 1.695252
8.552000	 1.656634
8.635999	 1.605270
8.719999	 1.585541
8.804000	 1.556902
8.888000	 1.509949
8.972000	 1.454998
9.056000	 1.418449
9.140000	 1.408796
9.224000	 1.415421
9.308000	 1.412733
9.391999	 1.422340
9.475999	 1.343426
9.560000	 1.313561
9.644000	 1.371358
9.728000	 1.354320
9.812000	 1.343351
9.896000	 1.364894
9.980000	 1.380940
10.064	1.381253
10.148	1.367690
10.232	1.351997
10.316	1.332442
10.4	1.305702
10.484	1.278623
10.568	1.256956
10.652	1.243028
10.736	1.228111
10.82	1.210981
10.904	1.190155
10.988	1.162584
11.072	1.145595
11.156	1.136915
11.24	1.117040
11.324	1.066689
11.408	1.022492
11.492	1.037990
11.576	1.072413
11.66	1.081777
11.744	1.077085
11.828	1.065446
11.912	1.042683
11.996	0.979589
12.08	0.871762
12.164	0.843290
12.248	0.903821
12.332	0.933508
12.416	0.934470
12.5	0.933432
12.584	0.941602
12.668	0.956976
12.752	0.967644
12.836	0.969588
12.92	0.967164
13.004	0.963133
13.088	0.957584
13.172	0.951544
13.256	0.945608
13.34	0.940312
13.424	0.933915
13.508	0.924535
13.592	0.914578
13.676	0.904118
13.76	0.891263
13.844	0.877179
13.928	0.864686
14.012	0.853412
14.096	0.840558
14.18	0.826010
14.264	0.809855
14.348	0.789434
14.432	0.760616
14.516	0.732220
14.6	0.722310
14.684	0.725972
14.768	0.725805
14.852	0.718996
14.936	0.709666
15.02	0.700071
15.104	0.691485
15.188	0.683568
15.272	0.675189
15.356	0.665898
15.44	0.656524
15.524	0.647577
15.608	0.638650
15.692	0.629667
15.776	0.620769
15.86	0.611677
15.944	0.602422
16.028	0.593737
16.112	0.585242
16.196	0.575079
16.28	0.561802
16.364	0.545888
16.448	0.530886
16.532	0.521897
16.616	0.519952
16.7	0.520428
16.784	0.518471
16.868	0.513711
16.952	0.508351
17.036	0.503839
17.12	0.500184
17.204	0.497347
17.288	0.495319
17.372	0.493710
17.456	0.491513
17.54	0.488214
17.624	0.484289
17.708	0.480457
17.792	0.477020
17.876	0.473496
17.96	0.469516
18.044	0.465140
18.128	0.460732
18.212	0.456322
18.296	0.451675
18.38	0.446812
18.464	0.442104
18.548	0.437678
18.632	0.433241
18.716	0.428438
18.8	0.423085
18.884	0.417257
18.968	0.411256
19.052	0.405599
19.136	0.400447
19.22	0.395552
19.304	0.390497
19.388	0.385170
19.472	0.379992
19.556	0.375244
19.64	0.370608
19.724	0.365415
19.808	0.359229
19.892	0.352310
19.976	0.345191
20.06	0.338095
20.144	0.330949
20.228	0.323517
20.312	0.315933
20.396	0.308393
20.48	0.301210
20.564	0.294430
20.648	0.287875
20.732	0.281348
20.816	0.274799
20.9	0.268323
20.984	0.262100
21.068	0.256166
21.152	0.250449
21.236	0.244782
21.32	0.238984
21.404	0.233050
21.488	0.227017
21.572	0.220933
21.656	0.214820
21.74	0.208574
21.824	0.202066
21.908	0.195438
21.992	0.188850
22.076	0.182633
22.16	0.177001
22.244	0.171986
22.328	0.167455
22.412	0.163216
22.496	0.159034
22.58	0.154905
22.664	0.150665
22.748	0.146266
22.832	0.141711
22.916	0.136981
23	0.132096
23.084	0.127079
23.168	0.121936
23.252	0.116726
23.336	0.111628
23.42	0.106791
23.504	0.102292
23.588	0.098125
23.672	0.094116
23.756	0.090093
23.84	0.085896
23.924	0.081389
24.008	0.076626
24.092	0.071689
24.176	0.066700
24.26	0.061840
24.344	0.057276
24.428	0.053157
24.512	0.049576
24.596	0.046605
24.68	0.044180
24.764	0.042234
24.848	0.040578
24.932	0.039146
25.016	0.037788
25.1	0.036347
25.184	0.034764
25.268	0.032976
25.352	0.030907
25.436	0.028676
25.52	0.026276
25.604	0.023883
25.688	0.021682
25.772	0.019742
25.856	0.018142
25.94	0.016817
26.024	0.015749
26.108	0.014800
26.192	0.013888
26.276	0.012958
26.36	0.012005
26.444	0.010985
26.528	0.009931
26.612	0.008949
26.696	0.008073
26.78	0.007315
26.864	0.006689
26.948	0.006271
27.028	0.005984

File: LPE454_e125_cm-1.asc
PE IR       SPECTRUM    SPECTRUM    ASCII       PEDS        1.60
  -1
LP081C~1.ASC
17/05/19
19:50:42.00
17/05/19
19:50:42.00
tln
$LPE454_e0125$<ebV0>[-23.3,12.1,10.0,0.0,27,1,0]
370
64

2002,4.07
MIRTGS : RIGHTBACK : INTERNAL 2
MIR : ON : INTERNAL 2
OPTKBR

0.200000
8
8.000000
FILLER
SINGLE
SPECTRUM
UNLOCKED 256

DOUBLE

COMBINED
1
0
0

1.000000
BACKG

1
0
TRUE
51149
0
LEFT NOT FITTED RIGHT NOT FITTED 0
NONE
NONE
15600
12
4.427000
51148
TRUE
1 0 8 72 0 0 0 0

15798

#HDR
-1
-1
#GR
CM-1
EGY
2.38419e-05
0.0
5000
-1.000000
4631
8
2.427363
0.005984
#DATA
5000	0.772905
4984	0.779151
4968	0.786280
4952	0.794148
4936	0.798988
4920	0.810790
4904	0.809478
4888	0.815415
4872	0.824451
4856	0.835418
4840	0.847196
4824	0.854992
4808	0.865459
4792	0.872516
4776	0.880193
4760	0.889825
4744	0.897240
4728	0.897431
4712	0.898361
4696	0.898051
4680	0.904846
4664	0.903224
4648	0.902938
4632	0.912046
4616	0.913953
4600	0.930404
4584	0.949406
4568	1.058816
4552	0.971174
4536	0.962376
4520	0.970840
4504	0.987958
4488	0.992965
4472	1.000332
4456	1.004648
4440	1.003789
4424	1.003980
4408	1.012611
4392	1.024198
4376	1.029515
4360	1.045179
4344	1.061558
4328	1.084709
4312	1.102828
4296	1.118898
4280	1.146245
4264	1.156997
4248	1.159787
4232	1.177453
4216	1.185560
4200	1.192593
4184	1.200580
4168	1.208496
4152	1.217818
4136	1.228785
4120	1.241683
4104	1.255941
4088	1.278281
4072	1.297998
4056	1.317763
4040	1.339459
4024	1.357984
4008	1.376104
3992	1.389908
3976	1.402330
3960	1.407957
3944	1.412415
3928	1.420521
3912	1.424455
3896	1.429128
3880	1.437211
3864	1.444482
3848	1.456499
3832	1.476073
3816	1.487469
3800	1.506280
3784	1.535010
3768	1.547193
3752	1.538825
3736	1.550364
3720	1.569151
3704	1.569247
3688	1.562285
3672	1.554775
3656	1.563549
3640	1.574039
3624	1.567673
3608	1.575922
3592	1.584267
3576	1.596546
3560	1.607561
3544	1.615619
3528	1.615548
3512	1.615428
3496	1.612687
3480	1.605105
3464	1.599454
3448	1.587343
3432	1.576304
3416	1.578164
3400	1.589250
3384	1.599693
3368	1.612496
3352	1.637339
3336	1.657605
3320	1.682829
3304	1.705098
3288	1.725912
3272	1.743245
3256	1.757836
3240	1.769137
3224	1.775670
3208	1.777362
3192	1.781845
3176	1.786351
3160	1.792407
3144	1.801609
3128	1.816463
3112	1.843094
3096	1.869821
3080	1.899623
3064	1.922488
3048	1.949095
3032	1.963734
3016	1.951146
3000	2.009010
2984	2.012920
2968	1.945900
2952	1.908636
2936	1.804494
2920	1.790595
2904	1.931619
2888	1.981329
2872	1.970529
2856	1.909160
2840	2.050447
2824	2.109432
2808	2.148675
2792	2.177715
2776	2.206945
2760	2.226281
2744	2.236199
2728	2.239537
2712	2.233648
2696	2.227711
2680	2.220654
2664	2.206802
2648	2.197933
2632	2.199888
2616	2.201700
2600	2.206254
2584	2.219724
2568	2.244615
2552	2.264714
2536	2.284193
2520	2.299070
2504	2.302813
2488	2.307629
2472	2.299118
2456	2.283668
2440	2.269077
2424	2.252984
2408	2.239131
2392	2.229642
2376	2.217054
2360	2.214360
2344	2.240991
2328	2.261519
2312	2.293515
2296	2.318143
2280	2.337908
2264	2.349948
2248	2.355408
2232	2.355980
2216	2.346611
2200	2.332592
2184	2.318215
2168	2.310943
2152	2.306365
2136	2.308154
2120	2.308440
2104	2.309846
2088	2.310228
2072	2.328658
2056	2.361774
2040	2.394533
2024	2.414035
2008	2.423715
1992	2.425861
1976	2.416539
1960	2.401638
1944	2.387380
1928	2.373600
1912	2.354860
1896	2.340316
1880	2.343463
1864	2.350306
1848	2.357912
1832	2.373337
1816	2.391695
1800	2.396345
1784	2.396965
1768	2.379131
1752	2.352094
1736	2.291560
1720	2.273178
1704	2.242159
1688	2.215814
1672	2.193450
1656	2.144193
1640	2.121400
1624	2.074790
1608	1.946473
1592	1.987075
1576	1.955056
1560	1.897883
1544	1.924991
1528	2.074432
1512	2.059364
1496	1.678586
1480	1.932215
1464	1.907896
1448	1.759648
1432	1.843214
1416	1.817107
1400	1.706528
1384	1.762342
1368	1.789879
1352	1.791286
1336	1.801419
1320	1.826667
1304	1.830363
1288	1.831197
1272	1.781511
1256	1.733183
1240	1.812028
1224	1.791071
1208	1.727008
1192	1.721477
1176	1.681852
1160	1.613092
1144	1.580047
1128	1.524591
1112	1.442742
1096	1.409387
1080	1.413726
1064	1.421451
1048	1.293635
1032	1.363301
1016	1.348257
1000	1.382470
984	 1.365065
968	 1.328158
952	 1.272821
936	 1.238107
920	 1.199889
904	 1.146960
888	 1.107001
872	 1.028013
856	 1.081466
840	 1.045608
824	 0.837326
808	 0.935316
792	 0.949192
776	 0.968360
760	 0.952553
744	 0.932240
728	 0.895142
712	 0.848650
696	 0.783371
680	 0.726699
664	 0.695824
648	 0.657391
632	 0.615763
616	 0.569534
600	 0.520324
584	 0.500059
568	 0.485181
552	 0.461363
536	 0.431895
520	 0.394916
504	 0.356554
488	 0.300240
472	 0.248122
456	 0.193715
440	 0.147366
424	 0.098276
408	 0.049662
392	 0.026559
376	 0.009131
370	 0.005984