Folder: Masteroppgave/Bakgrunnsmateriale/MATLAB/FTIR/ftir_data/LPE454/Mapping_121 (part 7)

File: LPE454_t08_cm-1.asc
PE IR       SPECTRUM    SPECTRUM    ASCII       PEDS        1.60
  -1
LP67B9~1.ASC
17/05/19
15:01:37.00
17/05/19
15:01:37.00
tln
$LPE454_t0008$<tbV0>[-5.2,-13.0,8.0,0.0,27,1,0]
370
64

2002,4.07
MIRTGS : RIGHTBACK : INTERNAL 2
MIR : ON : INTERNAL 2
OPTKBR

0.200000
8
8.000000
FILLER
RATIO
SPECTRUM
UNLOCKED 256

DOUBLE
64
COMBINED
1
0
0

1.000000
RATIO

1
0
TRUE
51149
0
LEFT NOT FITTED RIGHT NOT FITTED 0
NONE
NONE
15600
12
4.427000
51148
TRUE
1 0 8 72 0 0 0 0

15798

#HDR
-1
-1
#GR
CM-1
%T
2.38419e-05
0.0
5000
-1.000000
4631
8
35.4016
-13.575
#DATA
5000	-0.122332
4984	0.159764
4968	0.276923
4952	0.242114
4936	0.880718
4920	0.219464
4904	-0.153994
4888	0.960993
4872	-0.771832
4856	0.304722
4840	0.613093
4824	1.316213
4808	0.257301
4792	2.108168
4776	-0.591087
4760	0.016117
4744	0.051760
4728	0.109791
4712	-0.236415
4696	0.275397
4680	0.413131
4664	0.168204
4648	-0.003337
4632	0.110125
4616	0.264859
4600	0.082612
4584	0.220179
4568	0.452780
4552	0.700116
4536	0.371527
4520	0.644803
4504	0.470519
4488	2.302050
4472	3.366661
4456	0.765085
4440	-0.077867
4424	0.342655
4408	0.752115
4392	0.522184
4376	0.518202
4360	0.500583
4344	0.507116
4328	0.413417
4312	0.287485
4296	0.331616
4280	0.189185
4264	0.574254
4248	0.305438
4232	-0.103425
4216	0.146198
4200	0.038814
4184	-0.107645
4168	0.486874
4152	-0.115704
4136	0.638818
4120	0.230216
4104	0.244903
4088	0.021886
4072	-0.146245
4056	0.153398
4040	0.367259
4024	0.446009
4008	0.227069
3992	0.061058
3976	0.306057
3960	0.272035
3944	0.066041
3928	-0.055623
3912	-0.065994
3896	0.044822
3880	0.135087
3864	0.150752
3848	-0.074791
3832	0.050616
3816	-0.153350
3800	-0.029182
3784	0.010061
3768	0.058269
3752	0.133728
3736	-0.102210
3720	-0.079727
3704	0.105237
3688	-0.038433
3672	-0.060367
3656	0.258970
3640	-0.127458
3624	-0.120830
3608	0.170183
3592	0.191593
3576	0.012397
3560	0.053167
3544	0.115108
3528	-0.065064
3512	-0.157976
3496	0.104689
3480	0.034856
3464	0.166225
3448	0.186014
3432	-0.160193
3416	0.044536
3400	0.010418
3384	0.012016
3368	0.123190
3352	-0.040459
3336	0.055408
3320	0.229883
3304	0.071024
3288	0.101304
3272	0.037574
3256	0.044822
3240	0.075745
3224	0.089907
3208	0.054645
3192	0.060796
3176	-0.068902
3160	0.099253
3144	0.111508
3128	0.403475
3112	0.184488
3096	0.075197
3080	0.062036
3064	-0.046181
3048	0.087857
3032	-0.037837
3016	-0.021195
3000	0.093030
2984	-0.097632
2968	-0.084781
2952	0.114345
2936	0.030589
2920	0.030112
2904	0.099539
2888	0.078797
2872	-0.000119
2856	0.021028
2840	0.076675
2824	0.021219
2808	-0.103402
2792	-0.023937
2776	0.085139
2760	0.054407
2744	0.034379
2728	0.022649
2712	0.013518
2696	0.076794
2680	0.026464
2664	0.020360
2648	0.180149
2632	0.021123
2616	0.035786
2600	-0.021505
2584	0.114512
2568	0.032210
2552	0.020909
2536	-0.019669
2520	0.180792
2504	0.240087
2488	0.143575
2472	-0.005221
2456	-0.086951
2440	0.021886
2424	0.319099
2408	0.305294
2392	0.039958
2376	0.062513
2360	0.110435
2344	0.279116
2328	0.362300
2312	0.388598
2296	0.678944
2280	0.919651
2264	1.341962
2248	1.716542
2232	2.428221
2216	3.292989
2200	4.270839
2184	5.577850
2168	6.810712
2152	8.368229
2136	10.0052
2120	11.6159
2104	13.4254
2088	15.0635
2072	16.6182
2056	18.0586
2040	19.4836
2024	20.7693
2008	21.8687
1992	22.9114
1976	24.1382
1960	24.8332
1944	25.346
1928	26.236
1912	26.9027
1896	27.1076
1880	27.8707
1864	28.6022
1848	28.5966
1832	28.8987
1816	29.5657
1800	29.5986
1784	29.5986
1768	30.3553
1752	30.6466
1736	30.2572
1720	30.802
1704	31.1247
1688	30.8015
1672	30.6675
1656	31.4533
1640	31.477
1624	30.9592
1608	31.046
1592	31.823
1576	31.4046
1560	31.2231
1544	31.7421
1528	31.8793
1512	31.205
1496	31.2824
1480	31.9411
1464	31.5934
1448	30.7741
1432	31.5364
1416	31.8114
1400	31.2294
1384	30.9899
1368	31.7343
1352	31.5417
1336	30.8034
1320	31.2469
1304	31.7434
1288	31.127
1272	30.7936
1256	31.5998
1240	31.5518
1224	30.6946
1208	30.9272
1192	31.7077
1176	31.1662
1160	30.6206
1144	31.0897
1128	31.5248
1112	30.6046
1096	30.1322
1080	30.9765
1064	30.9969
1048	30.0497
1032	30.5542
1016	31.2428
1000	30.3108
984	 29.7498
968	 30.4475
952	 30.6328
936	 29.5553
920	 29.6337
904	 30.286
888	 29.7443
872	 28.7377
856	 29.2614
840	 29.9297
824	 28.7332
808	 28.3121
792	 28.9029
776	 28.9081
760	 27.9737
744	 27.8623
728	 28.1662
712	 27.7203
696	 26.8986
680	 27.2981
664	 27.1033
648	 26.2054
632	 25.8431
616	 25.9087
600	 25.7318
584	 24.5729
568	 24.4191
552	 24.6016
536	 23.9157
520	 23.6528
504	 23.1879
488	 24.4625
472	 22.4747
456	 22.0938
440	 21.5631
424	 20.8849
408	 17.0736
392	 30.2441
376	 35.4016
370	 -13.575

File: LPE454_t09.asc
PE IR       SPECTRUM    SPECTRUM    ASCII       PEDS        1.60
  -1
LPE398~1.ASC
17/05/19
15:06:14.00
17/05/19
15:06:40.00
tln
$LPE454_t0009$<tbV0>[-7.8,-13.0,8.0,0.0,27,1,0]
27.028
64

2002,4.07
MIRTGS : RIGHTBACK : INTERNAL 2
MIR : ON : INTERNAL 2
OPTKBR

0.200000
8
8.000000
FILLER
RATIO
SPECTRUM
UNLOCKED 256

DOUBLE
64
COMBINED
1
0
0

0.002000
RATIO

1
0
TRUE
51149
0
LEFT NOT FITTED RIGHT NOT FITTED 0
NONE
NONE
15600
12
4.427000
51148
TRUE
1 0 8 72 0 0 0 0

15798

#HDR
-1
-1
#GR
µM
%T
2.38419e-05
0.0
2.000000
0.002000
12515
8
59.9537
-2.041336
#DATA
2.000000	 -0.031042
2.084000	 2.625069
2.168000	 0.225963
2.252000	 -1.834083
2.336000	 0.225518
2.420000	 0.181733
2.504000	 0.052938
2.588000	 -0.010088
2.672000	 -0.072975
2.756000	 0.027386
2.840000	 -0.102059
2.924000	 -0.066657
3.008000	 0.037127
3.092000	 0.053628
3.176000	 -0.029703
3.260000	 0.124973
3.344000	 -0.018467
3.428000	 0.116086
3.512000	 0.021126
3.596000	 0.058413
3.680000	 0.089443
3.764000	 -0.015378
3.848000	 0.060234
3.932000	 -0.029124
4.016000	 0.122041
4.100000	 -0.030278
4.184000	 0.006354
4.268000	 0.151368
4.352000	 0.601229
4.436000	 1.437492
4.520000	 3.277073
4.604000	 6.084365
4.688000	 9.414696
4.772000	 13.0469
4.856000	 16.1069
4.940000	 18.8528
5.024000	 20.8163
5.108000	 22.6955
5.192000	 23.679
5.276000	 24.822
5.359999	 25.5635
5.444000	 26.1007
5.528000	 26.6886
5.612000	 26.9802
5.696000	 27.5869
5.780000	 27.7224
5.864000	 27.848
5.948000	 28.2657
6.032000	 28.2947
6.116000	 28.8335
6.200000	 28.6214
6.284000	 28.8566
6.368000	 29.0994
6.452000	 28.9094
6.536000	 29.395
6.620000	 29.4654
6.704000	 29.0915
6.788000	 29.8216
6.872000	 29.6001
6.956000	 29.2245
7.040000	 29.8548
7.124000	 30.0538
7.208000	 29.6569
7.292000	 29.7247
7.376000	 30.2671
7.460000	 30.086
7.544000	 29.6755
7.628000	 29.9426
7.712000	 30.2054
7.796000	 30.11
7.880000	 29.5353
7.964000	 29.9738
8.048000	 30.4393
8.132000	 30.2333
8.216000	 29.9302
8.300000	 29.7511
8.384000	 30.2476
8.468000	 30.4213
8.552000	 30.04
8.635999	 29.6964
8.719999	 29.6682
8.804000	 29.9794
8.888000	 30.3685
8.972000	 30.1355
9.056000	 29.7171
9.140000	 29.4366
9.224000	 29.5491
9.308000	 29.9194
9.391999	 30.1796
9.475999	 29.7744
9.560000	 29.4527
9.644000	 29.3565
9.728000	 29.297
9.812000	 29.831
9.896000	 29.9389
9.980000	 29.884
10.064	29.3827
10.148	29.2191
10.232	29.0543
10.316	29.3254
10.4	29.6216
10.484	29.7194
10.568	29.6129
10.652	29.3965
10.736	28.9595
10.82	28.7012
10.904	28.3616
10.988	28.6875
11.072	29.2298
11.156	29.4511
11.24	29.2462
11.324	28.9528
11.408	28.5025
11.492	28.3494
11.576	28.2051
11.66	28.3428
11.744	28.3962
11.828	28.6483
11.912	29.01
11.996	29.0723
12.08	28.7342
12.164	28.3047
12.248	27.9912
12.332	27.7031
12.416	27.6
12.5	27.8509
12.584	27.9119
12.668	27.96
12.752	28.1605
12.836	28.3139
12.92	28.3103
13.004	27.9332
13.088	27.4963
13.172	27.0216
13.256	26.668
13.34	26.6223
13.424	26.6822
13.508	26.7124
13.592	26.7839
13.676	27.1549
13.76	27.3465
13.844	27.2623
13.928	27.256
14.012	27.2173
14.096	27.1539
14.18	26.8832
14.264	26.6315
14.348	26.6059
14.432	26.4694
14.516	26.263
14.6	26.0284
14.684	25.8772
14.768	26.058
14.852	26.3378
14.936	26.5181
15.02	26.6998
15.104	26.8608
15.188	26.8575
15.272	26.6944
15.356	26.4784
15.44	26.199
15.524	25.7666
15.608	25.2874
15.692	24.974
15.776	24.8249
15.86	24.7974
15.944	24.8989
16.028	25.0446
16.112	25.227
16.196	25.4852
16.28	25.667
16.364	25.6989
16.448	25.7468
16.532	25.8132
16.616	25.711
16.7	25.4897
16.784	25.3474
16.868	25.2149
16.952	24.8664
17.036	24.3639
17.12	24.0195
17.204	23.9511
17.288	23.988
17.372	23.9279
17.456	23.734
17.54	23.5412
17.624	23.5188
17.708	23.7122
17.792	24.0409
17.876	24.4044
17.96	24.6823
18.044	24.7272
18.128	24.5163
18.212	24.2362
18.296	24.1018
18.38	24.1317
18.464	24.1568
18.548	24.0069
18.632	23.6504
18.716	23.207
18.8	22.8506
18.884	22.674
18.968	22.6418
19.052	22.6677
19.136	22.7047
19.22	22.7402
19.304	22.7553
19.388	22.7351
19.472	22.7278
19.556	22.831
19.64	23.0897
19.724	23.4331
19.808	23.7226
19.892	23.8583
19.976	23.8474
20.06	23.7681
20.144	23.6629
20.228	23.4826
20.312	23.1731
20.396	22.7842
20.48	22.47
20.564	22.3601
20.648	22.4508
20.732	22.6094
20.816	22.6819
20.9	22.598
20.984	22.3979
21.068	22.1789
21.152	22.0393
21.236	22.0291
21.32	22.1143
21.404	22.201
21.488	22.1788
21.572	21.9897
21.656	21.6581
21.74	21.2704
21.824	20.9319
21.908	20.7203
21.992	20.6579
22.076	20.7063
22.16	20.7734
22.244	20.7458
22.328	20.5595
22.412	20.2687
22.496	20.0764
22.58	20.2152
22.664	20.8233
22.748	21.8217
22.832	22.917
22.916	23.7431
23	24.0362
23.084	23.7519
23.168	23.0782
23.252	22.3082
23.336	21.7139
23.42	21.3995
23.504	21.3238
23.588	21.3536
23.672	21.3705
23.756	21.3512
23.84	21.3746
23.924	21.5934
24.008	22.1779
24.092	23.2656
24.176	24.8995
24.26	26.9468
24.344	29.1074
24.428	31.0155
24.512	32.2606
24.596	32.5988
24.68	32.0502
24.764	30.9225
24.848	29.6762
24.932	28.8364
25.016	28.7655
25.1	29.4548
25.184	30.7727
25.268	32.4794
25.352	34.1466
25.436	35.4166
25.52	36.0784
25.604	36.0518
25.688	35.4375
25.772	34.5965
25.856	34.1324
25.94	34.4632
26.024	36.0224
26.108	39.3626
26.192	44.4174
26.276	50.3827
26.36	55.539
26.444	58.755
26.528	59.7968
26.612	59.9392
26.696	59.7729
26.78	58.1997
26.864	51.926
26.948	37.3844
27.028	15.4579

File: LPE454_t09_cm-1.asc
PE IR       SPECTRUM    SPECTRUM    ASCII       PEDS        1.60
  -1
LP673D~1.ASC
17/05/19
15:06:14.00
17/05/19
15:06:14.00
tln
$LPE454_t0009$<tbV0>[-7.8,-13.0,8.0,0.0,27,1,0]
370
64

2002,4.07
MIRTGS : RIGHTBACK : INTERNAL 2
MIR : ON : INTERNAL 2
OPTKBR

0.200000
8
8.000000
FILLER
RATIO
SPECTRUM
UNLOCKED 256

DOUBLE
64
COMBINED
1
0
0

1.000000
RATIO

1
0
TRUE
51149
0
LEFT NOT FITTED RIGHT NOT FITTED 0
NONE
NONE
15600
12
4.427000
51148
TRUE
1 0 8 72 0 0 0 0

15798

#HDR
-1
-1
#GR
CM-1
%T
2.38419e-05
0.0
5000
-1.000000
4631
8
59.9231
-2.050256
#DATA
5000	-0.031042
4984	0.319576
4968	-0.098252
4952	0.462126
4936	-0.143718
4920	-0.044965
4904	0.308775
4888	0.177001
4872	1.072311
4856	-0.193500
4840	-0.083136
4824	-1.973247
4808	1.262784
4792	1.333117
4776	0.024485
4760	0.963330
4744	0.918292
4728	-0.326132
4712	-0.156140
4696	0.169396
4680	0.170993
4664	0.345873
4648	0.497198
4632	0.166177
4616	0.212836
4600	0.648951
4584	0.176262
4568	0.229716
4552	-0.300884
4536	-0.113368
4520	0.145387
4504	-0.431418
4488	0.702524
4472	14.5201
4456	1.345825
4440	-1.811861
4424	-0.646448
4408	-0.247240
4392	0.050330
4376	0.215816
4360	0.126051
4344	0.353980
4328	0.117564
4312	0.118660
4296	0.153398
4280	0.236797
4264	-0.381374
4248	-0.246167
4232	-0.102448
4216	-0.016736
4200	-0.243806
4184	-0.514483
4168	-0.065493
4152	0.333690
4136	0.161123
4120	0.542211
4104	0.284457
4088	0.029015
4072	0.052475
4056	-0.057482
4040	0.255560
4024	0.156784
4008	0.167989
3992	0.066018
3976	0.157070
3960	0.038790
3944	0.118875
3928	0.123095
3912	-0.090360
3896	-0.060534
3880	-0.135588
3864	-0.010204
3848	0.078010
3832	-0.066351
3816	0.110030
3800	-0.128936
3784	-0.015592
3768	0.240468
3752	0.074219
3736	-0.036191
3720	0.069761
3704	0.057673
3688	0.191020
3672	0.025606
3656	0.029301
3640	0.163865
3624	0.028896
3608	0.087404
3592	-0.010418
3576	0.017452
3560	0.123095
3544	0.021910
3528	0.108098
3512	0.007653
3496	0.117826
3480	0.173926
3464	0.144624
3448	-0.016307
3432	0.006794
3416	0.017356
3400	-0.080323
3384	0.024938
3368	0.179743
3352	0.040912
3336	-0.039196
3320	0.045108
3304	0.119900
3288	0.136280
3272	0.037455
3256	0.123500
3240	0.006103
3224	0.078153
3208	0.041437
3192	0.160503
3176	0.147914
3160	0.091886
3144	0.049471
3128	-0.006699
3112	0.375652
3096	0.130271
3080	0.060439
3064	0.085544
3048	0.165724
3032	0.051331
3016	-0.063657
3000	0.033044
2984	0.054860
2968	0.113105
2952	0.068092
2936	0.056147
2920	0.062847
2904	0.019454
2888	0.080728
2872	0.057911
2856	-0.038743
2840	-0.011014
2824	0.068664
2808	-0.036644
2792	0.017881
2776	0.018429
2760	0.106525
2744	0.088167
2728	0.117135
2712	0.036120
2696	0.090241
2680	0.047159
2664	0.101971
2648	0.033497
2632	0.002169
2616	0.057864
2600	0.062060
2584	0.041866
2568	0.070571
2552	0.184607
2536	-0.016140
2520	-0.023126
2504	-0.097727
2488	0.074005
2472	-0.097751
2456	0.017380
2440	-0.056767
2424	0.170683
2408	0.033569
2392	-0.048923
2376	0.083470
2360	0.092291
2344	0.133490
2328	0.269818
2312	0.438117
2296	0.637602
2280	0.760960
2264	1.240587
2248	1.589059
2232	2.342224
2216	3.102707
2200	3.961968
2184	5.077195
2168	6.449532
2152	7.846426
2136	9.079766
2120	10.6871
2104	12.2002
2088	13.6912
2072	14.8731
2056	16.3788
2040	17.7351
2024	18.8757
2008	19.9721
1992	20.7481
1976	21.6175
1960	22.6007
1944	23.1434
1928	23.5639
1912	24.4045
1896	24.8226
1880	25.0792
1864	25.6268
1848	26.0534
1832	26.129
1816	26.4791
1800	26.9608
1784	27.0052
1768	27.1304
1752	27.6981
1736	27.7966
1720	27.5463
1704	27.9001
1688	28.4438
1672	28.1145
1656	28.3957
1640	28.7704
1624	28.6765
1608	28.597
1592	28.8364
1576	29.174
1560	29.068
1544	29.1232
1528	29.459
1512	29.4912
1496	29.1222
1480	29.5553
1464	29.804
1448	29.4023
1432	29.3816
1416	29.9801
1400	29.9631
1384	29.5768
1368	29.8707
1352	30.2875
1336	29.9432
1320	29.6438
1304	30.1792
1288	30.1827
1272	29.5546
1256	29.9637
1240	30.4959
1224	30.0227
1208	29.7114
1192	30.2766
1176	30.33
1160	29.7004
1144	29.6604
1128	30.3644
1112	30.0327
1096	29.5025
1080	29.6881
1064	30.164
1048	29.5072
1032	29.3378
1016	29.8911
1000	29.7459
984	 29.1673
968	 29.376
952	 29.6865
936	 29.212
920	 28.4884
904	 29.1677
888	 29.1909
872	 28.3933
856	 28.3432
840	 28.982
824	 28.4221
808	 27.6054
792	 27.905
776	 28.3552
760	 27.104
744	 26.6945
728	 27.3395
712	 27.2017
696	 26.5909
680	 25.8935
664	 26.7895
648	 26.231
632	 24.7924
616	 25.5879
600	 25.5764
584	 24.012
568	 23.5043
552	 24.5567
536	 23.521
520	 22.7438
504	 23.7969
488	 22.4406
472	 22.0195
456	 20.69
440	 21.5526
424	 21.3524
408	 32.2393
392	 36.0371
376	 59.9231
370	 15.4579

File: LPE454_t10.asc
PE IR       SPECTRUM    SPECTRUM    ASCII       PEDS        1.60
  -1
LPC79C~1.ASC
17/05/19
15:10:51.00
17/05/19
15:11:17.00
tln
$LPE454_t0010$<tbV0>[-10.4,-13.0,8.0,0.0,27,1,0]
27.028
64

2002,4.07
MIRTGS : RIGHTBACK : INTERNAL 2
MIR : ON : INTERNAL 2
OPTKBR

0.200000
8
8.000000
FILLER
RATIO
SPECTRUM
UNLOCKED 256

DOUBLE
64
COMBINED
1
0
0

0.002000
RATIO

1
0
TRUE
51149
0
LEFT NOT FITTED RIGHT NOT FITTED 0
NONE
NONE
15600
12
4.427000
51148
TRUE
1 0 8 72 0 0 0 0

15798

#HDR
-1
-1
#GR
µM
%T
2.38419e-05
0.0
2.000000
0.002000
12515
8
127.458
-1.590556
#DATA
2.000000	 0.695610
2.084000	 0.990842
2.168000	 -0.091014
2.252000	 -0.401622
2.336000	 0.369531
2.420000	 0.142341
2.504000	 0.075119
2.588000	 0.213264
2.672000	 0.109850
2.756000	 -0.079482
2.840000	 0.126712
2.924000	 0.024783
3.008000	 0.067038
3.092000	 -0.035876
3.176000	 -0.153014
3.260000	 -0.018523
3.344000	 0.037804
3.428000	 -0.089711
3.512000	 0.197045
3.596000	 0.089341
3.680000	 -0.116897
3.764000	 0.108018
3.848000	 0.018018
3.932000	 0.048759
4.016000	 0.012964
4.100000	 -0.097739
4.184000	 0.029037
4.268000	 0.154077
4.352000	 0.295529
4.436000	 0.815775
4.520000	 1.803405
4.604000	 3.677888
4.688000	 5.959851
4.772000	 8.125282
4.856000	 10.5208
4.940000	 12.0673
5.024000	 13.7187
5.108000	 14.7268
5.192000	 15.6653
5.276000	 16.2783
5.359999	 16.7416
5.444000	 17.0867
5.528000	 17.5111
5.612000	 17.7172
5.696000	 17.8601
5.780000	 18.0194
5.864000	 18.2263
5.948000	 18.4936
6.032000	 18.5402
6.116000	 18.709
6.200000	 18.8484
6.284000	 18.8626
6.368000	 18.9079
6.452000	 18.8467
6.536000	 19.1018
6.620000	 19.2123
6.704000	 19.0221
6.788000	 19.2557
6.872000	 19.2739
6.956000	 19.3493
7.040000	 19.3566
7.124000	 19.1521
7.208000	 19.2325
7.292000	 19.2052
7.376000	 19.4245
7.460000	 19.5334
7.544000	 19.8791
7.628000	 20.1717
7.712000	 20.2356
7.796000	 20.208
7.880000	 20.3413
7.964000	 20.5399
8.048000	 20.7029
8.132000	 20.5141
8.216000	 20.8155
8.300000	 20.9807
8.384000	 21.0707
8.468000	 21.1023
8.552000	 20.9286
8.635999	 21.1046
8.719999	 21.2847
8.804000	 21.5727
8.888000	 21.4682
8.972000	 21.3713
9.056000	 21.7001
9.140000	 21.8916
9.224000	 21.9984
9.308000	 21.7335
9.391999	 21.5219
9.475999	 21.7407
9.560000	 21.8235
9.644000	 22.0617
9.728000	 22.1618
9.812000	 22.0162
9.896000	 21.7609
9.980000	 21.7431
10.064	21.9148
10.148	22.0983
10.232	22.1419
10.316	22.5163
10.4	22.3021
10.484	22.0425
10.568	22.0538
10.652	22.1939
10.736	22.3744
10.82	22.5018
10.904	22.5176
10.988	22.4396
11.072	22.5503
11.156	22.2893
11.24	22.1553
11.324	22.3437
11.408	22.4501
11.492	22.4917
11.576	22.7407
11.66	22.5595
11.744	22.4048
11.828	22.4477
11.912	22.3516
11.996	22.166
12.08	22.2976
12.164	22.3061
12.248	22.4178
12.332	22.565
12.416	22.5115
12.5	22.6065
12.584	22.5587
12.668	22.2093
12.752	21.9895
12.836	22.2418
12.92	22.4069
13.004	22.3136
13.088	22.3839
13.172	22.9539
13.256	23.3345
13.34	22.6892
13.424	22.0138
13.508	22.1751
13.592	22.2089
13.676	21.9996
13.76	22.0326
13.844	22.3809
13.928	22.4988
14.012	22.1508
14.096	21.8971
14.18	22.0861
14.264	22.2926
14.348	22.3001
14.432	22.3316
14.516	22.412
14.6	22.5136
14.684	22.4963
14.768	22.2617
14.852	21.8696
14.936	21.4304
15.02	21.1544
15.104	21.1824
15.188	21.4253
15.272	21.6967
15.356	21.8782
15.44	21.9248
15.524	21.8694
15.608	21.8309
15.692	21.8358
15.776	21.856
15.86	21.9718
15.944	22.0474
16.028	21.7874
16.112	21.3219
16.196	21.0128
16.28	20.8985
16.364	20.8678
16.448	20.9285
16.532	21.0797
16.616	21.2462
16.7	21.3796
16.784	21.453
16.868	21.4408
16.952	21.4231
17.036	21.5446
17.12	21.7215
17.204	21.6141
17.288	21.1284
17.372	20.6284
17.456	20.4723
17.54	20.6141
17.624	20.7758
17.708	20.8115
17.792	20.7827
17.876	20.8075
17.96	20.893
18.044	20.9161
18.128	20.7696
18.212	20.5053
18.296	20.284
18.38	20.2092
18.464	20.2667
18.548	20.4027
18.632	20.5943
18.716	20.8054
18.8	20.9553
18.884	20.9932
18.968	20.96
19.052	20.9292
19.136	20.9319
19.22	20.9429
19.304	20.9029
19.388	20.747
19.472	20.4528
19.556	20.0955
19.64	19.8324
19.724	19.7895
19.808	19.9608
19.892	20.2172
19.976	20.4039
20.06	20.4276
20.144	20.2751
20.228	19.9949
20.312	19.6778
20.396	19.4252
20.48	19.3028
20.564	19.3091
20.648	19.4117
20.732	19.5918
20.816	19.854
20.9	20.1873
20.984	20.5457
21.068	20.872
21.152	21.1449
21.236	21.3898
21.32	21.6295
21.404	21.8361
21.488	21.9256
21.572	21.8147
21.656	21.4878
21.74	21.0055
21.824	20.4731
21.908	19.9879
21.992	19.5892
22.076	19.2594
22.16	18.9676
22.244	18.7008
22.328	18.497
22.412	18.4266
22.496	18.5599
22.58	18.9289
22.664	19.4898
22.748	20.0934
22.832	20.5191
22.916	20.4963
23	19.897
23.084	18.7942
23.168	17.4813
23.252	16.3729
23.336	15.9095
23.42	16.3212
23.504	17.5815
23.588	19.4163
23.672	21.4341
23.756	23.2313
23.84	24.5337
23.924	25.2055
24.008	25.2426
24.092	24.7086
24.176	23.6338
24.26	21.7676
24.344	18.7086
24.428	14.3161
24.512	8.983897
24.596	3.827009
24.68	0.316375
24.764	-0.422972
24.848	1.895812
24.932	6.593452
25.016	12.2535
25.1	17.34
25.184	20.572
25.268	21.2785
25.352	19.2558
25.436	15.0484
25.52	9.696826
25.604	4.284961
25.688	0.149701
25.772	-1.535433
25.856	-0.089482
25.94	4.786523
26.024	13.057
26.108	24.3959
26.192	37.8733
26.276	52.3248
26.36	66.6381
26.444	80.1405
26.528	92.534
26.612	103.949
26.696	114.167
26.78	122.342
26.864	127.017
26.948	126.342
27.028	119.297

File: LPE454_t10_cm-1.asc
PE IR       SPECTRUM    SPECTRUM    ASCII       PEDS        1.60
  -1
LPD7B5~1.ASC
17/05/19
15:10:51.00
17/05/19
15:10:51.00
tln
$LPE454_t0010$<tbV0>[-10.4,-13.0,8.0,0.0,27,1,0]
370
64

2002,4.07
MIRTGS : RIGHTBACK : INTERNAL 2
MIR : ON : INTERNAL 2
OPTKBR

0.200000
8
8.000000
FILLER
RATIO
SPECTRUM
UNLOCKED 256

DOUBLE
64
COMBINED
1
0
0

1.000000
RATIO

1
0
TRUE
51149
0
LEFT NOT FITTED RIGHT NOT FITTED 0
NONE
NONE
15600
12
4.427000
51148
TRUE
1 0 8 72 0 0 0 0

15798

#HDR
-1
-1
#GR
CM-1
%T
2.38419e-05
0.0
5000
-1.000000
4631
8
127.368
-1.666545
#DATA
5000	0.695610
4984	0.003719
4968	0.162291
4952	0.327992
4936	-0.536966
4920	0.183963
4904	-0.262761
4888	-0.090694
4872	-0.761508
4856	-0.433588
4840	0.327587
4824	0.833773
4808	1.598238
4792	1.449275
4776	0.432491
4760	0.107789
4744	-0.759339
4728	0.374031
4712	-0.064063
4696	-0.409269
4680	0.131511
4664	0.835227
4648	0.405502
4632	0.433230
4616	-0.143647
4600	0.377774
4584	0.512290
4568	-0.275993
4552	-0.362229
4536	-0.290441
4520	0.217032
4504	-0.907826
4488	0.536394
4472	13.4376
4456	2.521705
4440	-0.398063
4424	-0.680589
4408	-1.001214
4392	-0.589418
4376	-0.590252
4360	-0.452685
4344	0.430011
4328	0.407385
4312	0.291252
4296	0.276994
4280	0.357556
4264	0.120830
4248	-0.113105
4232	-0.369310
4216	0.322246
4200	0.024223
4184	0.010037
4168	-0.085711
4152	-0.222802
4136	0.210976
4120	0.287699
4104	0.267267
4088	-0.043821
4072	0.074553
4056	0.105404
4040	-0.121879
4024	0.091147
4008	-0.155878
3992	0.100231
3976	0.075769
3960	0.251698
3944	0.245594
3928	0.035452
3912	0.087714
3896	-0.108289
3880	0.121641
3864	0.213170
3848	-0.233244
3832	0.215387
3816	0.033855
3800	-0.043320
3784	-0.029158
3768	0.144410
3752	0.190067
3736	0.085234
3720	0.054693
3704	0.099444
3688	0.016760
3672	-0.006699
3656	0.116324
3640	0.093483
3624	-0.023102
3608	0.021982
3592	0.050640
3576	0.094389
3560	0.170469
3544	0.147080
3528	0.079298
3512	0.100541
3496	0.027036
3480	-0.072002
3464	0.308084
3448	0.091695
3432	0.006937
3416	0.096011
3400	0.030875
3384	0.189805
3368	-0.021600
3352	-0.003695
3336	0.086665
3320	0.004410
3304	-0.030159
3288	-0.047779
3272	-0.029993
3256	0.006389
3240	0.135231
3224	-0.019550
3208	0.237917
3192	-0.034546
3176	0.054216
3160	0.024509
3144	-0.166916
3128	0.138902
3112	0.294804
3096	0.132179
3080	0.138854
3064	0.089383
3048	0.120329
3032	0.176191
3016	0.057888
3000	0.011396
2984	0.021004
2968	0.088334
2952	-0.050997
2936	0.046133
2920	-0.060606
2904	0.129914
2888	-0.045824
2872	0.086450
2856	0.085020
2840	0.103855
2824	0.091028
2808	-0.089335
2792	-0.000643
2776	0.127220
2760	0.007605
2744	0.033950
2728	-0.070166
2712	-0.102686
2696	0.069522
2680	0.112247
2664	0.043225
2648	0.062823
2632	-0.005054
2616	0.050377
2600	0.029563
2584	-0.052881
2568	0.052428
2552	0.121092
2536	-0.004768
2520	0.205230
2504	0.017619
2488	-0.009274
2472	0.010514
2456	0.048255
2440	-0.133848
2424	0.124382
2408	-0.066947
2392	0.082612
2376	-0.041270
2360	0.159192
2344	0.138425
2328	0.153613
2312	0.200152
2296	0.297355
2280	0.360417
2264	0.659990
2248	0.904583
2232	1.155066
2216	1.697397
2200	2.262639
2184	3.122520
2168	3.904747
2152	4.790210
2136	5.790495
2120	6.724071
2104	7.680249
2088	8.722329
2072	9.779024
2056	10.7723
2040	11.4816
2024	12.0861
2008	12.8921
1992	13.6735
1976	14.1374
1960	14.6657
1944	15.0805
1928	15.6112
1912	15.8713
1896	16.2616
1880	16.5283
1864	16.7973
1848	16.8848
1832	17.1073
1816	17.3682
1800	17.5423
1784	17.7144
1768	17.9227
1752	17.925
1736	18.1297
1720	18.0806
1704	18.2788
1688	18.4064
1672	18.42
1656	18.598
1640	18.6685
1624	18.6194
1608	18.8142
1592	18.8572
1576	18.8731
1560	19.031
1544	18.9982
1528	19.0903
1512	19.2071
1496	19.0508
1480	19.2584
1464	19.2259
1448	18.9279
1432	19.3937
1416	19.3394
1400	19.1568
1384	19.2331
1368	19.228
1352	19.4553
1336	19.6275
1320	19.9458
1304	20.3115
1288	20.0379
1272	20.2808
1256	20.5468
1240	20.6869
1224	20.5887
1208	20.9357
1192	21.0528
1176	21.0761
1160	21.0832
1144	21.3532
1128	21.51
1112	21.4121
1096	21.8246
1080	21.7619
1064	21.5128
1048	21.8425
1032	22.0671
1016	21.8016
1000	21.7609
984	 22.0515
968	 22.4931
952	 22.0173
936	 22.2595
920	 22.5263
904	 22.55
888	 22.1642
872	 22.3976
856	 22.5109
840	 22.3763
824	 22.3173
808	 22.5267
792	 22.41
776	 22.3835
760	 22.8384
744	 21.9978
728	 21.9828
712	 22.003
696	 22.301
680	 22.455
664	 21.1304
648	 21.9262
632	 21.908
616	 20.946
600	 21.3319
584	 21.7247
568	 20.7501
552	 20.8009
536	 20.6574
520	 20.942
504	 20.0617
488	 19.2965
472	 21.2465
456	 19.876
440	 19.9506
424	 19.3438
408	 9.124708
392	 10.3403
376	 101.823
370	 119.297