Folder: Masteroppgave/Bakgrunnsmateriale/MATLAB/FTIR/ftir_data/LPE454/Mapping_121 (part 8)

File: LPE454_t11.asc
PE IR       SPECTRUM    SPECTRUM    ASCII       PEDS        1.60
  -1
LPC798~1.ASC
17/05/19
15:15:27.00
17/05/19
15:15:54.00
tln
$LPE454_t0011$<tbV0>[-13.0,-13.0,8.0,0.0,27,1,0]
27.028
64

2002,4.07
MIRTGS : RIGHTBACK : INTERNAL 2
MIR : ON : INTERNAL 2
OPTKBR

0.200000
8
8.000000
FILLER
RATIO
SPECTRUM
UNLOCKED 256

DOUBLE
64
COMBINED
1
0
0

0.002000
RATIO

1
0
TRUE
51149
0
LEFT NOT FITTED RIGHT NOT FITTED 0
NONE
NONE
15600
12
4.427000
51148
TRUE
1 0 8 72 0 0 0 0

15798

#HDR
-1
-1
#GR
µM
%T
2.38419e-05
0.0
2.000000
0.002000
12515
8
15.6062
-64.8042
#DATA
2.000000	 0.265979
2.084000	 1.649646
2.168000	 0.875773
2.252000	 -0.901883
2.336000	 0.102456
2.420000	 0.134440
2.504000	 0.009763
2.588000	 -0.018820
2.672000	 0.195586
2.756000	 0.129511
2.840000	 0.152472
2.924000	 0.133646
3.008000	 0.105724
3.092000	 0.119092
3.176000	 0.012719
3.260000	 -0.028164
3.344000	 0.169844
3.428000	 0.034598
3.512000	 0.073975
3.596000	 0.079530
3.680000	 0.036362
3.764000	 0.039247
3.848000	 0.163106
3.932000	 -0.020118
4.016000	 0.011112
4.100000	 0.142306
4.184000	 0.004871
4.268000	 -0.096243
4.352000	 0.029308
4.436000	 0.066513
4.520000	 0.119445
4.604000	 0.204528
4.688000	 0.275508
4.772000	 0.300695
4.856000	 0.545990
4.940000	 0.530614
5.024000	 0.537474
5.108000	 0.526485
5.192000	 0.555069
5.276000	 0.645624
5.359999	 0.623368
5.444000	 0.657991
5.528000	 0.615469
5.612000	 0.746617
5.696000	 0.654082
5.780000	 0.740876
5.864000	 0.621911
5.948000	 0.701426
6.032000	 0.770084
6.116000	 0.611278
6.200000	 0.708179
6.284000	 0.752495
6.368000	 0.805303
6.452000	 0.909911
6.536000	 0.756612
6.620000	 0.763296
6.704000	 0.740481
6.788000	 0.802616
6.872000	 0.892582
6.956000	 0.993803
7.040000	 0.807058
7.124000	 0.755613
7.208000	 0.801402
7.292000	 0.943366
7.376000	 0.813421
7.460000	 0.778201
7.544000	 0.878012
7.628000	 0.875715
7.712000	 0.940776
7.796000	 0.973146
7.880000	 1.173547
7.964000	 1.094084
8.048000	 0.893631
8.132000	 1.079956
8.216000	 1.127456
8.300000	 1.026117
8.384000	 1.066578
8.468000	 1.008222
8.552000	 1.199969
8.635999	 1.001322
8.719999	 1.066699
8.804000	 1.024699
8.888000	 1.186525
8.972000	 1.188572
9.056000	 1.073010
9.140000	 1.055001
9.224000	 1.168938
9.308000	 1.385422
9.391999	 1.227278
9.475999	 1.117177
9.560000	 1.008641
9.644000	 1.240753
9.728000	 1.401368
9.812000	 1.068135
9.896000	 1.233874
9.980000	 1.331217
10.064	1.196275
10.148	1.082096
10.232	1.150651
10.316	1.332495
10.4	1.216385
10.484	1.414368
10.568	1.562973
10.652	1.394561
10.736	1.412250
10.82	1.296996
10.904	1.314787
10.988	1.331941
11.072	1.379908
11.156	1.533257
11.24	1.415488
11.324	1.449550
11.408	1.543843
11.492	1.612901
11.576	1.406954
11.66	1.473868
11.744	1.480153
11.828	1.329532
11.912	1.293416
11.996	1.432659
12.08	1.692447
12.164	1.730832
12.248	1.646796
12.332	1.648697
12.416	1.559368
12.5	1.374745
12.584	1.318717
12.668	1.410019
12.752	1.697352
12.836	1.796900
12.92	1.695606
13.004	1.694146
13.088	1.680073
13.172	1.961860
13.256	2.095779
13.34	1.824351
13.424	1.673588
13.508	1.646616
13.592	1.612621
13.676	1.726159
13.76	1.838660
13.844	1.851492
13.928	1.849747
14.012	1.782581
14.096	1.788027
14.18	1.898817
14.264	2.040801
14.348	2.231895
14.432	2.402998
14.516	2.315631
14.6	2.020331
14.684	1.910010
14.768	2.063054
14.852	2.229430
14.936	2.076878
15.02	1.657181
15.104	1.473455
15.188	1.690076
15.272	1.930184
15.356	1.968936
15.44	1.937153
15.524	1.873667
15.608	1.846245
15.692	2.062143
15.776	2.381472
15.86	2.494793
15.944	2.396634
16.028	2.258350
16.112	2.170943
16.196	2.123692
16.28	2.094302
16.364	2.100198
16.448	2.144087
16.532	2.250338
16.616	2.419091
16.7	2.526104
16.784	2.483484
16.868	2.380609
16.952	2.319070
17.036	2.274200
17.12	2.174397
17.204	1.994726
17.288	1.802937
17.372	1.713042
17.456	1.761443
17.54	1.877923
17.624	2.008181
17.708	2.182165
17.792	2.417204
17.876	2.618205
17.96	2.638426
18.044	2.432549
18.128	2.129703
18.212	1.925036
18.296	1.897231
18.38	1.942334
18.464	1.910266
18.548	1.794346
18.632	1.749235
18.716	1.897308
18.8	2.177755
18.884	2.434141
18.968	2.589039
19.052	2.671453
19.136	2.705162
19.22	2.672824
19.304	2.601151
19.388	2.583992
19.472	2.671631
19.556	2.786747
19.64	2.790062
19.724	2.631131
19.808	2.401315
19.892	2.258861
19.976	2.303622
20.06	2.505729
20.144	2.719489
20.228	2.776249
20.312	2.624164
20.396	2.394400
20.48	2.308890
20.564	2.491493
20.648	2.842659
20.732	3.112937
20.816	3.106557
20.9	2.836735
20.984	2.505626
21.068	2.344466
21.152	2.460794
21.236	2.790136
21.32	3.152034
21.404	3.368028
21.488	3.362863
21.572	3.195320
21.656	3.011063
21.74	2.951538
21.824	3.066834
21.908	3.286677
21.992	3.491578
22.076	3.598977
22.16	3.593861
22.244	3.517164
22.328	3.405751
22.412	3.280594
22.496	3.167039
22.58	3.113105
22.664	3.176771
22.748	3.388076
22.832	3.721820
22.916	4.114527
23	4.461297
23.084	4.690255
23.168	4.749985
23.252	4.584417
23.336	4.130409
23.42	3.376241
23.504	2.377315
23.588	1.301366
23.672	0.374675
23.756	-0.215691
23.84	-0.352692
23.924	-0.089559
24.008	0.360930
24.092	0.729566
24.176	0.837871
24.26	0.838310
24.344	1.190495
24.428	2.379295
24.512	4.716042
24.596	7.997412
24.68	11.5065
24.764	14.2754
24.848	15.5666
24.932	14.9977
25.016	12.6796
25.1	9.115588
25.184	4.904916
25.268	0.480597
25.352	-3.950136
25.436	-8.283672
25.52	-12.3579
25.604	-15.888
25.688	-18.6078
25.772	-20.508
25.856	-21.9608
25.94	-23.547
26.024	-25.9398
26.108	-29.6351
26.192	-35
26.276	-41.96
26.36	-49.8364
26.444	-57.3267
26.528	-62.8202
26.612	-64.8001
26.696	-62.3592
26.78	-55.6166
26.864	-45.9143
26.948	-35.4102
27.028	-26.8717

File: LPE454_t11_cm-1.asc
PE IR       SPECTRUM    SPECTRUM    ASCII       PEDS        1.60
  -1
LPD731~1.ASC
17/05/19
15:15:27.00
17/05/19
15:15:27.00
tln
$LPE454_t0011$<tbV0>[-13.0,-13.0,8.0,0.0,27,1,0]
370
64

2002,4.07
MIRTGS : RIGHTBACK : INTERNAL 2
MIR : ON : INTERNAL 2
OPTKBR

0.200000
8
8.000000
FILLER
RATIO
SPECTRUM
UNLOCKED 256

DOUBLE
64
COMBINED
1
0
0

1.000000
RATIO

1
0
TRUE
51149
0
LEFT NOT FITTED RIGHT NOT FITTED 0
NONE
NONE
15600
12
4.427000
51148
TRUE
1 0 8 72 0 0 0 0

15798

#HDR
-1
-1
#GR
CM-1
%T
2.38419e-05
0.0
5000
-1.000000
4631
8
15.5908
-64.7573
#DATA
5000	0.265979
4984	0.079774
4968	0.028467
4952	0.038218
4936	0.077939
4920	-0.167322
4904	0.044226
4888	0.412654
4872	0.205755
4856	-0.011181
4840	0.142073
4824	0.119090
4808	1.154565
4792	1.461267
4776	-1.960301
4760	2.203559
4744	-0.208449
4728	0.450706
4712	-0.529646
4696	-0.377106
4680	0.495719
4664	0.339603
4648	0.442147
4632	0.251603
4616	0.707936
4600	0.643467
4584	0.656700
4568	0.538063
4552	1.059079
4536	0.016093
4520	-1.096105
4504	-0.842285
4488	1.670527
4472	11.3362
4456	-0.174045
4440	-0.872516
4424	0.299644
4408	0.190925
4392	0.797796
4376	1.138615
4360	0.920009
4344	0.515818
4328	0.454592
4312	0.146603
4296	0.070261
4280	0.088167
4264	0.250792
4248	0.044608
4232	0.367021
4216	-0.028944
4200	0.026273
4184	-0.457048
4168	0.768804
4152	0.122642
4136	0.048565
4120	0.413084
4104	0.293207
4088	0.143957
4072	0.206160
4056	0.105500
4040	-0.116729
4024	0.011539
4008	0.011277
3992	0.030517
3976	0.044560
3960	0.109910
3944	0.345158
3928	0.144219
3912	0.058603
3896	0.135445
3880	0.134110
3864	-0.018811
3848	0.137352
3832	0.136184
3816	0.079464
3800	-0.125980
3784	0.069999
3768	0.061392
3752	0.110602
3736	0.090694
3720	-0.058984
3704	-0.037813
3688	0.034284
3672	-0.090217
3656	0.076103
3640	0.028705
3624	0.136399
3608	0.103330
3592	0.007057
3576	-0.104713
3560	0.111055
3544	0.039696
3528	0.093007
3512	0.028872
3496	0.002312
3480	-0.126814
3464	0.168609
3448	0.062894
3432	0.082993
3416	-0.055575
3400	-0.172567
3384	0.070142
3368	-0.007057
3352	0.072598
3336	0.001215
3320	-0.019335
3304	0.181508
3288	-0.060057
3272	0.090599
3256	0.030088
3240	0.067067
3224	0.106358
3208	0.096273
3192	-0.027275
3176	0.038671
3160	-0.026273
3144	0.064015
3128	0.131130
3112	-0.054216
3096	0.043916
3080	-0.018262
3064	0.019979
3048	-0.034213
3032	0.037193
3016	0.018739
3000	0.185060
2984	0.020289
2968	0.043725
2952	-0.045418
2936	0.004267
2920	0.045132
2904	-0.056838
2888	0.202655
2872	-0.111603
2856	0.147080
2840	-0.001049
2824	0.147962
2808	0.048303
2792	0.127339
2776	0.041866
2760	-0.030422
2744	0.069236
2728	-0.020265
2712	0.017213
2696	0.085020
2680	0.079011
2664	-0.042438
2648	0.146460
2632	0.067973
2616	0.046896
2600	0.155210
2584	-0.013399
2568	0.034427
2552	0.121259
2536	0.003981
2520	-0.000381
2504	0.234818
2488	0.057840
2472	0.022697
2456	0.138735
2440	0.110340
2424	-0.140285
2408	-0.104331
2392	-0.016689
2376	0.258803
2360	0.054955
2344	-0.078153
2328	-0.104141
2312	0.027799
2296	0.045776
2280	0.006413
2264	0.029635
2248	0.048708
2232	0.090050
2216	0.123882
2200	0.084614
2184	0.181841
2168	0.216031
2152	0.295186
2136	0.257802
2120	0.353670
2104	0.175309
2088	0.216865
2072	0.396203
2056	0.302314
2040	0.477457
2024	0.532293
2008	0.501298
1992	0.531625
1976	0.507640
1960	0.574207
1944	0.484991
1928	0.554823
1912	0.584459
1896	0.629854
1880	0.624823
1864	0.618958
1848	0.659942
1832	0.680327
1816	0.548768
1800	0.750231
1784	0.778937
1768	0.657057
1752	0.674176
1736	0.744056
1720	0.879406
1704	0.645565
1688	0.693345
1672	0.816464
1656	0.788760
1640	0.701379
1624	0.749564
1608	0.689935
1592	0.754284
1576	0.874924
1560	0.842094
1544	0.942850
1528	0.751137
1512	0.759029
1496	0.752758
1480	0.904893
1464	0.791406
1448	0.851559
1432	0.665855
1416	0.779581
1400	0.843548
1384	0.826668
1368	0.971055
1352	0.855970
1336	0.818991
1320	0.833415
1304	1.016545
1288	0.924086
1272	1.117777
1256	1.098799
1240	0.926160
1224	1.059317
1208	1.151132
1192	1.068162
1176	1.056408
1160	0.974869
1144	1.018309
1128	1.159334
1112	1.119709
1096	1.113963
1080	1.217985
1064	1.232719
1048	0.976562
1032	1.290845
1016	1.031851
1000	1.399326
984	 1.082110
968	 1.299118
952	 1.470088
936	 1.365733
920	 1.251745
904	 1.347851
888	 1.400303
872	 1.618862
856	 1.509141
840	 1.291918
824	 1.740932
808	 1.637434
792	 1.334095
776	 1.726818
760	 1.900959
744	 1.667714
728	 1.821327
712	 1.767516
696	 2.281451
680	 1.931023
664	 1.512908
648	 1.940751
632	 2.478694
616	 2.107667
600	 2.500557
584	 2.168750
568	 1.977944
552	 2.171087
536	 1.771402
520	 2.664351
504	 2.326154
488	 2.317881
472	 2.579283
456	 3.345799
440	 3.322863
424	 1.339173
408	 4.641604
392	 -11.9069
376	 -64.7573
370	 -26.8717

File: LPE454_t12.asc
PE IR       SPECTRUM    SPECTRUM    ASCII       PEDS        1.60
  -1
LPC794~1.ASC
17/05/19
15:20:41.00
17/05/19
15:21:07.00
tln
$LPE454_t0012$<tbV0>[13.0,-10.4,8.0,0.0,27,1,0]
27.028
64

2002,4.07
MIRTGS : RIGHTBACK : INTERNAL 2
MIR : ON : INTERNAL 2
OPTKBR

0.200000
8
8.000000
FILLER
RATIO
SPECTRUM
UNLOCKED 256

DOUBLE
64
COMBINED
1
0
0

0.002000
RATIO

1
0
TRUE
51149
0
LEFT NOT FITTED RIGHT NOT FITTED 0
NONE
NONE
15600
12
4.427000
51148
TRUE
1 0 8 72 0 0 0 0

15798

#HDR
-1
-1
#GR
µM
%T
2.38419e-05
0.0
2.000000
0.002000
12515
8
106.388
-6.155594
#DATA
2.000000	 -0.274085
2.084000	 0.331069
2.168000	 0.535565
2.252000	 0.251218
2.336000	 0.139405
2.420000	 0.121893
2.504000	 -0.225493
2.588000	 0.295558
2.672000	 0.168075
2.756000	 -0.038233
2.840000	 0.165667
2.924000	 0.132537
3.008000	 0.057411
3.092000	 0.123009
3.176000	 -0.014642
3.260000	 0.156031
3.344000	 0.105219
3.428000	 0.041895
3.512000	 0.088406
3.596000	 -0.005956
3.680000	 -0.093223
3.764000	 0.053458
3.848000	 0.070481
3.932000	 0.051993
4.016000	 0.020248
4.100000	 0.070797
4.184000	 0.120612
4.268000	 0.049586
4.352000	 0.135477
4.436000	 0.702942
4.520000	 1.879781
4.604000	 3.818986
4.688000	 6.509399
4.772000	 9.483840
4.856000	 12.7115
4.940000	 15.0039
5.024000	 17.1824
5.108000	 18.8987
5.192000	 20.0486
5.276000	 21.1679
5.359999	 21.9778
5.444000	 22.4737
5.528000	 22.9827
5.612000	 23.368
5.696000	 23.723
5.780000	 24.1596
5.864000	 24.2578
5.948000	 24.4423
6.032000	 24.728
6.116000	 24.811
6.200000	 24.8795
6.284000	 25.0655
6.368000	 25.2066
6.452000	 25.3863
6.536000	 25.4459
6.620000	 25.4006
6.704000	 25.2976
6.788000	 25.5275
6.872000	 25.5674
6.956000	 25.6233
7.040000	 25.4523
7.124000	 25.5856
7.208000	 25.6306
7.292000	 25.5972
7.376000	 25.5906
7.460000	 25.7688
7.544000	 25.6774
7.628000	 25.6633
7.712000	 25.5491
7.796000	 25.6315
7.880000	 25.6592
7.964000	 25.5895
8.048000	 25.6464
8.132000	 25.6811
8.216000	 25.6947
8.300000	 25.6887
8.384000	 25.6256
8.468000	 25.7199
8.552000	 25.5466
8.635999	 25.3635
8.719999	 25.3929
8.804000	 25.382
8.888000	 25.5407
8.972000	 25.4861
9.056000	 25.399
9.140000	 25.0954
9.224000	 25.288
9.308000	 25.4401
9.391999	 25.0862
9.475999	 25.2874
9.560000	 25.1927
9.644000	 25.2718
9.728000	 25.166
9.812000	 24.7323
9.896000	 24.5061
9.980000	 24.6407
10.064	24.7111
10.148	24.913
10.232	24.8652
10.316	24.5267
10.4	24.4473
10.484	24.391
10.568	24.3392
10.652	24.5892
10.736	24.5165
10.82	24.24
10.904	23.8764
10.988	23.988
11.072	24.2819
11.156	24.2069
11.24	23.8842
11.324	23.7577
11.408	23.6807
11.492	23.3385
11.576	23.2691
11.66	23.306
11.744	23.4392
11.828	23.3545
11.912	23.5348
11.996	23.3365
12.08	23.021
12.164	22.9436
12.248	22.9195
12.332	23.0688
12.416	23.1263
12.5	22.9844
12.584	22.8424
12.668	22.6616
12.752	22.4729
12.836	22.3121
12.92	22.1462
13.004	21.9069
13.088	22.0032
13.172	22.1125
13.256	21.9628
13.34	21.8292
13.424	21.8179
13.508	22.0032
13.592	22.0879
13.676	21.885
13.76	21.6373
13.844	21.501
13.928	21.4797
14.012	21.47
14.096	21.3262
14.18	21.2092
14.264	21.2001
14.348	21.2453
14.432	21.3002
14.516	21.2429
14.6	21.1043
14.684	21.0404
14.768	20.9853
14.852	20.8822
14.936	20.7728
15.02	20.6696
15.104	20.6376
15.188	20.619
15.272	20.504
15.356	20.4076
15.44	20.3678
15.524	20.2098
15.608	19.9143
15.692	19.5861
15.776	19.2579
15.86	19.0548
15.944	19.1505
16.028	19.4621
16.112	19.7144
16.196	19.7754
16.28	19.6893
16.364	19.527
16.448	19.4455
16.532	19.6023
16.616	19.8307
16.7	19.795
16.784	19.4957
16.868	19.1957
16.952	19.0244
17.036	18.9633
17.12	18.9939
17.204	19.0295
17.288	18.9036
17.372	18.6005
17.456	18.3475
17.54	18.3535
17.624	18.5488
17.708	18.6977
17.792	18.6779
17.876	18.5331
17.96	18.3395
18.044	18.1516
18.128	18.0396
18.212	18.0492
18.296	18.1353
18.38	18.2024
18.464	18.1812
18.548	18.054
18.632	17.8438
18.716	17.6134
18.8	17.4426
18.884	17.3841
18.968	17.4413
19.052	17.5771
19.136	17.7279
19.22	17.8163
19.304	17.7988
19.388	17.7024
19.472	17.5978
19.556	17.5194
19.64	17.4376
19.724	17.3231
19.808	17.2067
19.892	17.1367
19.976	17.1006
20.06	17.0145
20.144	16.8013
20.228	16.4661
20.312	16.1012
20.396	15.827
20.48	15.7298
20.564	15.8315
20.648	16.0818
20.732	16.3804
20.816	16.6267
20.9	16.7684
20.984	16.8233
21.068	16.8558
21.152	16.9369
21.236	17.1018
21.32	17.3383
21.404	17.5986
21.488	17.8348
21.572	18.031
21.656	18.2089
21.74	18.4018
21.824	18.6121
21.908	18.787
21.992	18.8446
22.076	18.7266
22.16	18.4369
22.244	18.0435
22.328	17.6175
22.412	17.1967
22.496	16.7793
22.58	16.3553
22.664	15.9555
22.748	15.6557
22.832	15.5135
22.916	15.5541
23	15.6793
23.084	15.7496
23.168	15.6629
23.252	15.4182
23.336	15.097
23.42	14.8018
23.504	14.5794
23.588	14.3983
23.672	14.1856
23.756	13.886
23.84	13.5636
23.924	13.3871
24.008	13.5489
24.092	14.2205
24.176	15.5576
24.26	17.7071
24.344	20.8155
24.428	24.8678
24.512	29.4509
24.596	33.8027
24.68	37.0141
24.764	38.3875
24.848	37.9006
24.932	36.0167
25.016	33.4087
25.1	30.6938
25.184	28.279
25.268	26.1965
25.352	24.1384
25.436	21.8019
25.52	19.1938
25.604	16.7001
25.688	14.8718
25.772	14.2905
25.856	15.4225
25.94	18.4527
26.024	23.2322
26.108	29.3134
26.192	35.6987
26.276	41.229
26.36	44.6007
26.444	46.0297
26.528	47.2959
26.612	51.4011
26.696	60.5153
26.78	74.621
26.864	90.3936
26.948	102.526
27.028	106.388

File: LPE454_t12_cm-1.asc
PE IR       SPECTRUM    SPECTRUM    ASCII       PEDS        1.60
  -1
LPD7B0~1.ASC
17/05/19
15:20:41.00
17/05/19
15:20:41.00
tln
$LPE454_t0012$<tbV0>[13.0,-10.4,8.0,0.0,27,1,0]
370
64

2002,4.07
MIRTGS : RIGHTBACK : INTERNAL 2
MIR : ON : INTERNAL 2
OPTKBR

0.200000
8
8.000000
FILLER
RATIO
SPECTRUM
UNLOCKED 256

DOUBLE
64
COMBINED
1
0
0

1.000000
RATIO

1
0
TRUE
51149
0
LEFT NOT FITTED RIGHT NOT FITTED 0
NONE
NONE
15600
12
4.427000
51148
TRUE
1 0 8 72 0 0 0 0

15798

#HDR
-1
-1
#GR
CM-1
%T
2.38419e-05
0.0
5000
-1.000000
4631
8
106.388
-6.268930
#DATA
5000	-0.274085
4984	0.312781
4968	0.692629
4952	0.224804
4936	0.257301
4920	0.195693
4904	0.485920
4888	0.031566
4872	0.211477
4856	0.338816
4840	0.436305
4824	-0.219082
4808	0.270104
4792	1.081824
4776	-0.265622
4760	0.878453
4744	0.152778
4728	-0.256991
4712	0.936675
4696	0.138354
4680	0.310993
4664	0.151586
4648	0.589466
4632	0.454664
4616	0.304150
4600	0.570559
4584	0.282740
4568	0.116491
4552	0.402092
4536	0.152850
4520	1.072096
4504	-0.010466
4488	1.192474
4472	17.3265
4456	-0.620651
4440	0.246095
4424	0.052499
4408	0.250458
4392	0.234031
4376	0.265169
4360	0.132727
4344	0.168108
4328	-0.085234
4312	0.175070
4296	0.209498
4280	0.130820
4264	0.208330
4248	-0.149774
4232	-0.342059
4216	0.195193
4200	-0.033068
4184	0.340604
4168	0.462865
4152	0.062251
4136	0.127720
4120	0.105810
4104	0.224041
4088	0.073456
4072	0.024485
4056	0.130963
4040	0.145339
4024	0.066852
4008	-0.036740
3992	-0.194716
3976	-0.140500
3960	-0.010752
3944	0.206303
3928	-0.067090
3912	-0.003242
3896	0.007390
3880	-0.068283
3864	0.295376
3848	0.098848
3832	0.211477
3816	0.090360
3800	-0.016474
3784	0.255584
3768	-0.043249
3752	0.102949
3736	0.217294
3720	-0.012612
3704	0.076508
3688	-0.162339
3672	-0.010538
3656	0.076150
3640	-0.031781
3624	0.043892
3608	0.085377
3592	0.119614
3576	0.000739
3560	0.129199
3544	-0.108551
3528	0.159049
3512	0.193786
3496	-0.085878
3480	0.087475
3464	0.236082
3448	-0.019574
3432	-0.053977
3416	0.074386
3400	0.126814
3384	0.060582
3368	-0.022268
3352	-0.029230
3336	0.061058
3320	0.148248
3304	-0.047802
3288	0.043535
3272	0.094318
3256	-0.084209
3240	0.144505
3224	0.059676
3208	0.158190
3192	0.046229
3176	-0.061416
3160	-0.060534
3144	-0.071811
3128	0.034570
3112	-0.080490
3096	0.017333
3080	0.039863
3064	0.173878
3048	0.023627
3032	-0.020885
3016	0.019407
3000	0.118541
2984	0.062489
2968	0.025391
2952	-0.038504
2936	-0.008678
2920	-0.027799
2904	0.147938
2888	0.011205
2872	-0.105881
2856	-0.055217
2840	0.083160
2824	-0.022149
2808	-0.094366
2792	0.086998
2776	0.039267
2760	-0.005125
2744	0.028944
2728	0.168585
2712	-0.059604
2696	0.096297
2680	0.097823
2664	0.092625
2648	-0.047802
2632	0.028181
2616	0.070476
2600	0.055313
2584	0.006055
2568	0.038814
2552	0.004982
2536	-0.044894
2520	-0.012850
2504	0.125980
2488	-0.024557
2472	-0.009226
2456	0.169944
2440	0.047945
2424	0.232815
2408	0.204515
2392	0.171971
2376	0.124692
2360	0.036859
2344	0.033187
2328	0.119638
2312	0.019884
2296	0.150799
2280	0.265240
2264	0.484800
2248	0.752806
2232	1.226830
2216	1.667451
2200	2.236580
2184	2.991127
2168	4.013371
2152	4.964613
2136	6.272816
2120	7.548427
2104	8.920478
2088	10.078
2072	11.7592
2056	12.9183
2040	13.9605
2024	15.0251
2008	16.1634
1992	17.1088
1976	18.0288
1960	18.7881
1944	19.46
1928	19.9448
1912	20.535
1896	21.1395
1880	21.4748
1864	22.0164
1848	22.2782
1832	22.5967
1816	22.8878
1800	23.0306
1784	23.3182
1768	23.6534
1752	23.8438
1736	24.1537
1720	24.305
1704	24.2486
1688	24.326
1672	24.5641
1656	24.7617
1640	24.7929
1624	24.7518
1608	24.8563
1592	25.0608
1576	25.2729
1560	25.3193
1544	25.3392
1528	25.4638
1512	25.3748
1496	25.2512
1480	25.4385
1464	25.4871
1448	25.4209
1432	25.497
1416	25.5267
1400	25.5976
1384	25.5235
1368	25.5882
1352	25.6577
1336	25.7247
1320	25.5822
1304	25.6825
1288	25.6611
1272	25.6774
1256	25.5918
1240	25.5956
1224	25.7243
1208	25.6765
1192	25.6208
1176	25.6857
1160	25.3884
1144	25.4103
1128	25.4678
1112	25.4609
1096	25.0829
1080	25.382
1064	25.0827
1048	25.2917
1032	25.2748
1016	24.7043
1000	24.6831
984	 24.9324
968	 24.4887
952	 24.3279
936	 24.5981
920	 24.0175
904	 24.2499
888	 23.8204
872	 23.4017
856	 23.3655
840	 23.5261
824	 22.9605
808	 23.1399
792	 22.7534
776	 22.2288
760	 22.1183
744	 21.8433
728	 21.6971
712	 21.426
696	 21.2609
680	 21.0309
664	 20.6434
648	 20.3741
632	 19.1152
616	 19.751
600	 19.851
584	 18.9961
568	 18.502
552	 18.0484
536	 17.7744
520	 17.8202
504	 17.172
488	 15.7323
472	 16.9941
456	 18.8164
440	 15.7172
424	 14.4052
408	 29.3318
392	 19.4988
376	 50.2352
370	 106.388

File: LPE454_t13.asc
PE IR       SPECTRUM    SPECTRUM    ASCII       PEDS        1.60
  -1
LPC790~1.ASC
17/05/19
15:25:18.00
17/05/19
15:25:44.00
tln
$LPE454_t0013$<tbV0>[10.4,-10.4,8.0,0.0,27,1,0]
27.028
64

2002,4.07
MIRTGS : RIGHTBACK : INTERNAL 2
MIR : ON : INTERNAL 2
OPTKBR

0.200000
8
8.000000
FILLER
RATIO
SPECTRUM
UNLOCKED 256

DOUBLE
64
COMBINED
1
0
0

0.002000
RATIO

1
0
TRUE
51149
0
LEFT NOT FITTED RIGHT NOT FITTED 0
NONE
NONE
15600
12
4.427000
51148
TRUE
1 0 8 72 0 0 0 0

15798

#HDR
-1
-1
#GR
µM
%T
2.38419e-05
0.0
2.000000
0.002000
12515
8
121.224
-3.775029
#DATA
2.000000	 0.424432
2.084000	 -0.304292
2.168000	 0.255785
2.252000	 -0.875942
2.336000	 0.422947
2.420000	 0.191955
2.504000	 -0.013198
2.588000	 0.013151
2.672000	 -0.105404
2.756000	 -0.031789
2.840000	 0.023996
2.924000	 -0.096474
3.008000	 0.156399
3.092000	 0.107115
3.176000	 -0.043931
3.260000	 0.025606
3.344000	 0.124479
3.428000	 -0.053831
3.512000	 0.146239
3.596000	 0.027891
3.680000	 0.016054
3.764000	 -0.008915
3.848000	 0.016004
3.932000	 0.120402
4.016000	 0.129721
4.100000	 -0.008349
4.184000	 0.035200
4.268000	 -0.006809
4.352000	 0.300333
4.436000	 1.336286
4.520000	 3.221810
4.604000	 6.194044
4.688000	 10.0844
4.772000	 14.1428
4.856000	 17.9784
4.940000	 21.0984
5.024000	 23.5058
5.108000	 25.3879
5.192000	 26.9282
5.276000	 28.0678
5.359999	 29.0307
5.444000	 29.8258
5.528000	 30.3397
5.612000	 30.6825
5.696000	 30.954
5.780000	 31.2093
5.864000	 31.4846
5.948000	 31.5298
6.032000	 31.6523
6.116000	 31.7224
6.200000	 31.6528
6.284000	 31.5579
6.368000	 31.6349
6.452000	 31.7598
6.536000	 31.728
6.620000	 31.6983
6.704000	 31.5291
6.788000	 31.6498
6.872000	 31.5879
6.956000	 31.553
7.040000	 31.5887
7.124000	 31.4634
7.208000	 31.4984
7.292000	 31.5696
7.376000	 31.4128
7.460000	 31.4291
7.544000	 31.3987
7.628000	 31.4106
7.712000	 31.2724
7.796000	 31.2246
7.880000	 31.2805
7.964000	 31.1261
8.048000	 31.1514
8.132000	 31.0843
8.216000	 31.1786
8.300000	 31.1106
8.384000	 30.9671
8.468000	 30.904
8.552000	 30.9152
8.635999	 30.9471
8.719999	 30.9492
8.804000	 30.7015
8.888000	 30.6311
8.972000	 30.5807
9.056000	 30.9036
9.140000	 30.3967
9.224000	 30.5397
9.308000	 30.2324
9.391999	 30.3673
9.475999	 30.1546
9.560000	 30.0926
9.644000	 30.1605
9.728000	 30.0186
9.812000	 29.7617
9.896000	 29.7797
9.980000	 29.9805
10.064	29.6291
10.148	29.8123
10.232	29.8498
10.316	29.6089
10.4	29.4426
10.484	29.3556
10.568	29.4192
10.652	29.5296
10.736	29.3686
10.82	29.2639
10.904	28.9868
10.988	28.886
11.072	29.0562
11.156	29.069
11.24	28.9754
11.324	28.9584
11.408	28.7433
11.492	28.6501
11.576	28.3775
11.66	28.2422
11.744	28.2496
11.828	28.4669
11.912	28.5107
11.996	28.1981
12.08	28.1226
12.164	27.9298
12.248	28.118
12.332	28.0811
12.416	27.7742
12.5	27.5473
12.584	27.3174
12.668	27.1984
12.752	27.3902
12.836	27.391
12.92	27.2618
13.004	27.1578
13.088	26.8066
13.172	26.6258
13.256	26.8386
13.34	27.0359
13.424	26.9574
13.508	26.6104
13.592	26.5589
13.676	26.635
13.76	26.6313
13.844	26.7091
13.928	26.6795
14.012	26.3722
14.096	26.0612
14.18	25.8951
14.264	25.7123
14.348	25.6202
14.432	25.7886
14.516	25.923
14.6	25.7314
14.684	25.5257
14.768	25.4853
14.852	25.4426
14.936	25.4855
15.02	25.6136
15.104	25.5925
15.188	25.3658
15.272	25.0784
15.356	24.9434
15.44	24.9758
15.524	24.9259
15.608	24.7103
15.692	24.4904
15.776	24.3983
15.86	24.3948
15.944	24.3848
16.028	24.3821
16.112	24.4438
16.196	24.5546
16.28	24.6188
16.364	24.5327
16.448	24.3465
16.532	24.1339
16.616	23.8883
16.7	23.7067
16.784	23.7163
16.868	23.8026
16.952	23.7488
17.036	23.5625
17.12	23.4208
17.204	23.4202
17.288	23.5134
17.372	23.5871
17.456	23.5303
17.54	23.3106
17.624	23.0204
17.708	22.7885
17.792	22.6704
17.876	22.6756
17.96	22.8135
18.044	23.0346
18.128	23.1871
18.212	23.122
18.296	22.8487
18.38	22.5517
18.464	22.4224
18.548	22.476
18.632	22.5495
18.716	22.4789
18.8	22.25
18.884	21.9811
18.968	21.791
19.052	21.7157
19.136	21.736
19.22	21.8227
19.304	21.9392
19.388	22.0347
19.472	22.0804
19.556	22.096
19.64	22.1201
19.724	22.1508
19.808	22.1385
19.892	22.0415
19.976	21.8692
20.06	21.6663
20.144	21.4708
20.228	21.2945
20.312	21.1446
20.396	21.0313
20.48	20.9583
20.564	20.9067
20.648	20.8506
20.732	20.7704
20.816	20.6577
20.9	20.5138
20.984	20.3638
21.068	20.2627
21.152	20.2593
21.236	20.3427
21.32	20.4186
21.404	20.3587
21.488	20.0865
21.572	19.6406
21.656	19.1487
21.74	18.7446
21.824	18.4834
21.908	18.3278
21.992	18.2166
22.076	18.134
22.16	18.1272
22.244	18.2543
22.328	18.5042
22.412	18.7968
22.496	19.0228
22.58	19.1261
22.664	19.1388
22.748	19.1528
22.832	19.2321
22.916	19.3918
23	19.5693
23.084	19.7045
23.168	19.7985
23.252	19.9054
23.336	20.0746
23.42	20.3371
23.504	20.6154
23.588	20.7374
23.672	20.5241
23.756	19.8714
23.84	18.8516
23.924	17.7203
24.008	16.8111
24.092	16.425
24.176	16.7444
24.26	17.8432
24.344	19.7171
24.428	22.2469
24.512	25.1157
24.596	27.8152
24.68	29.6336
24.764	29.81
24.848	27.9567
24.932	24.0049
25.016	18.322
25.1	11.8483
25.184	5.735053
25.268	0.887753
25.352	-2.289772
25.436	-3.681089
25.52	-3.477452
25.604	-2.128149
25.688	-0.301339
25.772	1.263631
25.856	1.983651
25.94	1.823947
26.024	1.232453
26.108	0.875083
26.192	0.916210
26.276	1.116776
26.36	0.835854
26.444	0.265981
26.528	0.895385
26.612	5.304265
26.696	16.284
26.78	35.6275
26.864	62.6291
26.948	93.6421
27.028	121.224