Folder: Masteroppgave/Bakgrunnsmateriale/MATLAB/FTIR/ftir_data/LPE454/Mapping_121 (part 19)

File: LPE454_t114_cm-1.asc
PE IR       SPECTRUM    SPECTRUM    ASCII       PEDS        1.60
  -1
LP0758~1.ASC
17/05/19
23:46:54.00
17/05/19
23:46:54.00
tln
$LPE454_t0114$<tbV0>[5.2,13.0,8.0,0.0,27,1,0]
370
64

2002,4.07
MIRTGS : RIGHTBACK : INTERNAL 2
MIR : ON : INTERNAL 2
OPTKBR

0.200000
8
8.000000
FILLER
RATIO
SPECTRUM
UNLOCKED 256

DOUBLE
64
COMBINED
1
0
0

1.000000
RATIO

1
0
TRUE
51149
0
LEFT NOT FITTED RIGHT NOT FITTED 0
NONE
NONE
15600
12
4.427000
51148
TRUE
1 0 8 72 0 0 0 0

15798

#HDR
-1
-1
#GR
CM-1
%T
2.38419e-05
0.0
5000
-1.000000
4631
8
40.4823
-4.661870
#DATA
5000	-0.021624
4984	0.384140
4968	0.099992
4952	0.581026
4936	0.447106
4920	0.586438
4904	0.243139
4888	0.283837
4872	0.513219
4856	-0.031614
4840	0.349211
4824	0.072717
4808	0.177693
4792	0.337123
4776	0.272059
4760	0.384664
4744	0.413465
4728	1.000881
4712	0.987005
4696	0.939726
4680	1.037549
4664	0.288271
4648	0.131106
4632	-0.771236
4616	-0.815057
4600	-2.632260
4584	39.1949
4568	-0.798511
4552	-0.716161
4536	-0.415372
4520	-1.116704
4504	-0.433301
4488	-0.007057
4472	0.678777
4456	0.527763
4440	0.446701
4424	0.331592
4408	0.370049
4392	0.393986
4376	0.027298
4360	0.019502
4344	0.401043
4328	0.250720
4312	0.433158
4296	0.008296
4280	0.070190
4264	0.161147
4248	0.314521
4232	0.060343
4216	0.392127
4200	0.153422
4184	-0.215983
4168	0.422072
4152	0.447726
4136	0.343656
4120	0.256299
4104	-0.438547
4088	-0.960564
4072	0.271797
4056	0.132560
4040	0.120592
4024	0.005412
4008	0.426912
3992	-0.026822
3976	0.151181
3960	-0.041866
3944	0.202751
3928	0.212740
3912	0.058698
3896	-0.096273
3880	-0.094485
3864	0.085854
3848	0.076293
3832	0.022411
3816	0.105023
3800	-0.022840
3784	0.028634
3768	-0.053882
3752	0.188374
3736	0.029897
3720	0.182056
3704	0.023102
3688	0.005292
3672	0.009202
3656	0.122475
3640	0.030112
3624	0.139260
3608	-0.080585
3592	0.027227
3576	-0.038242
3560	0.149846
3544	0.128412
3528	0.047469
3512	0.010895
3496	0.003170
3480	-0.106263
3464	0.110769
3448	0.135803
3432	0.187540
3416	0.225663
3400	0.138807
3384	0.023198
3368	-0.023174
3352	-0.002765
3336	0.168395
3320	0.237751
3304	0.063228
3288	0.100016
3272	0.053048
3256	0.075626
3240	0.181698
3224	-0.003981
3208	0.109100
3192	0.032019
3176	0.036120
3160	0.098490
3144	0.067853
3128	0.071930
3112	0.057244
3096	-0.130009
3080	-0.013685
3064	0.094532
3048	-0.049996
3032	0.124430
3016	0.048947
3000	0.091385
2984	0.012445
2968	-0.032663
2952	0.073266
2936	-0.015163
2920	0.069594
2904	0.085306
2888	-0.117802
2872	0.056457
2856	0.019454
2840	0.033164
2824	0.049686
2808	-0.015187
2792	-0.031208
2776	0.054383
2760	-0.051283
2744	-0.090169
2728	-0.037908
2712	0.068092
2696	-0.064587
2680	0.074243
2664	0.095891
2648	0.023961
2632	-0.013113
2616	-0.048518
2600	-0.057435
2584	-0.012874
2568	-0.027346
2552	0.078630
2536	-0.071144
2520	0.013661
2504	0.065326
2488	0.071835
2472	0.185632
2456	0.149202
2440	0.106811
2424	-0.093150
2408	0.218486
2392	0.330567
2376	0.486183
2360	0.611114
2344	0.803017
2328	1.199531
2312	1.617479
2296	2.189636
2280	2.853274
2264	3.730392
2248	4.726696
2232	6.036090
2216	7.638859
2200	9.303164
2184	11.2698
2168	13.347
2152	15.5734
2136	17.6923
2120	19.9693
2104	22.0922
2088	24.1145
2072	26.195
2056	27.7972
2040	29.6326
2024	30.9391
2008	32.365
1992	33.4329
1976	34.495
1960	35.3416
1944	36.1779
1928	37.0043
1912	37.4832
1896	37.9908
1880	38.3437
1864	38.7956
1848	39.1764
1832	39.4765
1816	39.642
1800	39.7622
1784	39.9518
1768	40.0908
1752	40.1322
1736	40.2586
1720	40.321
1704	40.2335
1688	40.343
1672	40.4107
1656	40.4427
1640	40.2798
1624	40.2587
1608	40.4403
1592	40.382
1576	40.162
1560	40.2054
1544	40.2349
1528	40.2434
1512	40.1028
1496	40.1405
1480	40.0737
1464	39.9737
1448	39.8728
1432	39.9677
1416	39.687
1400	39.6529
1384	39.7256
1368	39.6035
1352	39.5049
1336	39.4712
1320	39.72
1304	39.4936
1288	39.3511
1272	39.3383
1256	39.2537
1240	39.2751
1224	39.0829
1208	38.9301
1192	38.8573
1176	39.0283
1160	38.9918
1144	38.8112
1128	38.4644
1112	38.7896
1096	38.946
1080	38.2384
1064	38.3354
1048	38.368
1032	38.3921
1016	38.0423
1000	37.9226
984	 38.0694
968	 38.009
952	 38.1099
936	 37.5158
920	 37.4829
904	 37.559
888	 37.5463
872	 37.398
856	 36.7176
840	 36.6509
824	 36.8468
808	 36.9855
792	 36.219
776	 36.1272
760	 36.1161
744	 36.2659
728	 35.6129
712	 35.0272
696	 34.6042
680	 35.2944
664	 35.1538
648	 34.7199
632	 33.6023
616	 34.1751
600	 34.027
584	 33.6877
568	 33.4765
552	 32.9444
536	 32.736
520	 32.4241
504	 32.3745
488	 31.0386
472	 30.0826
456	 30.4967
440	 30.4848
424	 27.6886
408	 20.855
392	 10.4368
376	 -1.641964
370	 17.7553

File: LPE454_t115.asc
PE IR       SPECTRUM    SPECTRUM    ASCII       PEDS        1.60
  -1
LP970E~1.ASC
17/05/19
23:51:31.00
17/05/19
23:51:57.00
tln
$LPE454_t0115$<tbV0>[2.6,13.0,8.0,0.0,27,1,0]
27.028
64

2002,4.07
MIRTGS : RIGHTBACK : INTERNAL 2
MIR : ON : INTERNAL 2
OPTKBR

0.200000
8
8.000000
FILLER
RATIO
SPECTRUM
UNLOCKED 256

DOUBLE
64
COMBINED
1
0
0

0.002000
RATIO

1
0
TRUE
51149
0
LEFT NOT FITTED RIGHT NOT FITTED 0
NONE
NONE
15600
12
4.427000
51148
TRUE
1 0 8 72 0 0 0 0

15798

#HDR
-1
-1
#GR
µM
%T
2.38419e-05
0.0
2.000000
0.002000
12515
8
36.5905
-12.6168
#DATA
2.000000	 -0.156950
2.084000	 0.345617
2.168000	 -0.494989
2.252000	 0.291274
2.336000	 -0.172994
2.420000	 -0.298809
2.504000	 0.088826
2.588000	 0.085247
2.672000	 -0.021052
2.756000	 -0.113512
2.840000	 0.113122
2.924000	 0.112130
3.008000	 -0.083635
3.092000	 0.118455
3.176000	 -0.008990
3.260000	 -0.024647
3.344000	 0.008315
3.428000	 -0.002524
3.512000	 0.023045
3.596000	 0.056715
3.680000	 0.080714
3.764000	 0.002082
3.848000	 0.058607
3.932000	 0.064021
4.016000	 0.091930
4.100000	 0.064881
4.184000	 0.274644
4.268000	 0.554360
4.352000	 1.354334
4.436000	 3.120579
4.520000	 6.123368
4.604000	 10.1507
4.688000	 14.9933
4.772000	 19.4536
4.856000	 23.4108
4.940000	 26.6841
5.024000	 29.1204
5.108000	 31.033
5.192000	 32.5387
5.276000	 33.5801
5.359999	 34.4098
5.444000	 35.0862
5.528000	 35.3602
5.612000	 35.8879
5.696000	 35.8842
5.780000	 36.251
5.864000	 36.1263
5.948000	 36.2713
6.032000	 36.52
6.116000	 36.2625
6.200000	 36.4239
6.284000	 36.5393
6.368000	 36.181
6.452000	 36.1406
6.536000	 36.5605
6.620000	 36.1852
6.704000	 36.225
6.788000	 36.4807
6.872000	 36.2558
6.956000	 35.9332
7.040000	 36.2063
7.124000	 36.2254
7.208000	 36.0869
7.292000	 35.9052
7.376000	 35.9261
7.460000	 36.3626
7.544000	 35.9406
7.628000	 35.5898
7.712000	 35.7628
7.796000	 36.0557
7.880000	 36.0053
7.964000	 35.7725
8.048000	 35.4645
8.132000	 35.528
8.216000	 35.9159
8.300000	 35.9224
8.384000	 35.6017
8.468000	 35.3864
8.552000	 35.2428
8.635999	 35.464
8.719999	 35.5979
8.804000	 35.5945
8.888000	 35.2388
8.972000	 34.9953
9.056000	 34.9735
9.140000	 35.0919
9.224000	 35.5913
9.308000	 35.4419
9.391999	 35.1426
9.475999	 34.7229
9.560000	 34.5857
9.644000	 34.6864
9.728000	 34.8934
9.812000	 35.1961
9.896000	 35.0315
9.980000	 34.8547
10.064	34.3891
10.148	34.4105
10.232	34.3472
10.316	34.3039
10.4	34.596
10.484	34.7966
10.568	34.8162
10.652	34.5451
10.736	34.2714
10.82	34.0848
10.904	33.987
10.988	33.8244
11.072	33.9735
11.156	34.097
11.24	34.2434
11.324	34.3488
11.408	34.215
11.492	33.7948
11.576	33.7078
11.66	33.7401
11.744	33.5319
11.828	33.2123
11.912	33.181
11.996	33.3649
12.08	33.6929
12.164	33.7684
12.248	33.8092
12.332	33.7546
12.416	33.5327
12.5	33.2368
12.584	32.8711
12.668	32.5944
12.752	32.4745
12.836	32.5636
12.92	32.545
13.004	32.6295
13.088	32.6761
13.172	32.5667
13.256	32.6231
13.34	32.9114
13.424	32.9588
13.508	32.6129
13.592	32.3785
13.676	32.0671
13.76	31.8058
13.844	31.6834
13.928	31.5766
14.012	31.5665
14.096	31.6531
14.18	31.6934
14.264	31.6718
14.348	31.6198
14.432	31.8006
14.516	32.1923
14.6	32.3909
14.684	32.3641
14.768	32.2195
14.852	32.0953
14.936	32.0644
15.02	31.9552
15.104	31.6371
15.188	31.1329
15.272	30.6764
15.356	30.5303
15.44	30.6579
15.524	30.8242
15.608	30.8598
15.692	30.7902
15.776	30.7578
15.86	30.8224
15.944	30.9465
16.028	31.0891
16.112	31.1509
16.196	31.0176
16.28	30.7687
16.364	30.5731
16.448	30.4095
16.532	30.2408
16.616	30.1778
16.7	30.2145
16.784	30.1614
16.868	29.951
16.952	29.72
17.036	29.5662
17.12	29.4545
17.204	29.3613
17.288	29.3399
17.372	29.438
17.456	29.6267
17.54	29.8253
17.624	29.9544
17.708	29.9748
17.792	29.9024
17.876	29.8124
17.96	29.8278
18.044	30.0222
18.128	30.2774
18.212	30.3311
18.296	30.0353
18.38	29.5195
18.464	29.0495
18.548	28.7593
18.632	28.5532
18.716	28.2551
18.8	27.8002
18.884	27.2993
18.968	26.9503
19.052	26.8934
19.136	27.1205
19.22	27.4889
19.304	27.8443
19.388	28.1258
19.472	28.3572
19.556	28.5372
19.64	28.5831
19.724	28.4261
19.808	28.1396
19.892	27.9278
19.976	27.9442
20.06	28.1213
20.144	28.2208
20.228	28.0558
20.312	27.6937
20.396	27.3977
20.48	27.3884
20.564	27.625
20.648	27.8186
20.732	27.668
20.816	27.1065
20.9	26.3633
20.984	25.8
21.068	25.6726
21.152	25.984
21.236	26.5001
21.32	26.8665
21.404	26.7709
21.488	26.085
21.572	24.9314
21.656	23.6509
21.74	22.6638
21.824	22.2783
21.908	22.539
21.992	23.2356
22.076	24.0414
22.16	24.6823
22.244	25.0551
22.328	25.207
22.412	25.2337
22.496	25.2133
22.58	25.1757
22.664	25.1302
22.748	25.093
22.832	25.0732
22.916	25.0408
23	24.9539
23.084	24.7886
23.168	24.5873
23.252	24.4602
23.336	24.5365
23.42	24.8644
23.504	25.3891
23.588	25.9659
23.672	26.445
23.756	26.7623
23.84	26.9805
23.924	27.2385
24.008	27.6223
24.092	28.0631
24.176	28.3472
24.26	28.2082
24.344	27.4418
24.428	26.0272
24.512	24.1431
24.596	22.0589
24.68	20.1018
24.764	18.6085
24.848	17.8094
24.932	17.8386
25.016	18.6727
25.1	20.071
25.184	21.7104
25.268	23.2752
25.352	24.4807
25.436	25.1349
25.52	25.2449
25.604	25.0287
25.688	24.809
25.772	24.8962
25.856	25.4618
25.94	26.4866
26.024	27.7075
26.108	28.6705
26.192	28.8571
26.276	27.835
26.36	25.3218
26.444	21.558
26.528	17.1666
26.612	12.9514
26.696	9.280311
26.78	5.829936
26.864	1.560697
26.948	-4.636907
27.028	-12.6168

File: LPE454_t115_cm-1.asc
PE IR       SPECTRUM    SPECTRUM    ASCII       PEDS        1.60
  -1
LP0858~1.ASC
17/05/19
23:51:31.00
17/05/19
23:51:31.00
tln
$LPE454_t0115$<tbV0>[2.6,13.0,8.0,0.0,27,1,0]
370
64

2002,4.07
MIRTGS : RIGHTBACK : INTERNAL 2
MIR : ON : INTERNAL 2
OPTKBR

0.200000
8
8.000000
FILLER
RATIO
SPECTRUM
UNLOCKED 256

DOUBLE
64
COMBINED
1
0
0

1.000000
RATIO

1
0
TRUE
51149
0
LEFT NOT FITTED RIGHT NOT FITTED 0
NONE
NONE
15600
12
4.427000
51148
TRUE
1 0 8 72 0 0 0 0

15798

#HDR
-1
-1
#GR
CM-1
%T
2.38419e-05
0.0
5000
-1.000000
4631
8
36.59
-12.6168
#DATA
5000	-0.156950
4984	0.263619
4968	-0.139784
4952	0.356531
4936	-0.264310
4920	0.207662
4904	0.711011
4888	0.035333
4872	-0.038838
4856	0.167036
4840	0.311446
4824	0.375437
4808	0.489568
4792	0.167250
4776	0.059390
4760	0.360560
4744	0.247550
4728	0.311589
4712	0.201797
4696	0.166797
4680	0.090980
4664	-0.014352
4648	0.245523
4632	0.314378
4616	0.103139
4600	0.350809
4584	8.414816
4568	2.939534
4552	-0.089406
4536	0.200438
4520	0.077056
4504	-0.040984
4488	0.481462
4472	0.312995
4456	0.427079
4440	0.271487
4424	0.348281
4408	0.233149
4392	0.123810
4376	0.182342
4360	-0.209236
4344	0.157570
4328	-0.104379
4312	0.170922
4296	-0.021529
4280	-0.158762
4264	-0.086998
4248	0.273823
4232	-0.008678
4216	0.070166
4200	0.430011
4184	0.121426
4168	-0.053882
4152	0.011062
4136	-0.176405
4120	0.666594
4104	0.788545
4088	0.027298
4072	0.112128
4056	-0.411295
4040	0.257754
4024	-0.330233
4008	-0.114321
3992	0.109314
3976	-0.116610
3960	0.014519
3944	0.083971
3928	0.013256
3912	-0.064325
3896	0.090575
3880	0.043821
3864	0.085186
3848	-0.067615
3832	-0.077581
3816	0.262498
3800	-0.083565
3784	-0.061607
3768	0.060367
3752	0.144815
3736	-0.026011
3720	-0.017166
3704	0.041770
3688	-0.003910
3672	0.002837
3656	0.264072
3640	0.099229
3624	-0.083112
3608	0.101304
3592	-0.019931
3576	0.061178
3560	0.170660
3544	0.085616
3528	-0.052213
3512	-0.056505
3496	-0.063705
3480	0.073075
3464	0.189304
3448	0.177979
3432	0.056815
3416	0.117063
3400	0.045490
3384	-0.009250
3368	-0.061678
3352	-0.023674
3336	-0.010037
3320	-0.115180
3304	-0.028944
3288	-0.090217
3272	0.043773
3256	0.034284
3240	0.165820
3224	-0.069570
3208	0.062727
3192	0.035119
3176	0.117349
3160	0.059723
3144	0.144290
3128	0.070476
3112	-0.044465
3096	0.096869
3080	0.122070
3064	0.020408
3048	-0.062227
3032	0.097441
3016	0.037479
3000	0.127315
2984	0.026488
2968	0.047826
2952	0.052714
2936	0.011277
2920	-0.004172
2904	0.077772
2888	0.067543
2872	0.125002
2856	0.060415
2840	0.044226
2824	0.021004
2808	0.121140
2792	0.115323
2776	0.014352
2760	-0.078558
2744	0.041079
2728	0.052380
2712	0.017976
2696	0.053644
2680	0.046753
2664	0.013017
2648	0.062155
2632	-0.027036
2616	0.048255
2600	0.039982
2584	0.091195
2568	-0.011849
2552	0.160884
2536	0.096774
2520	0.011563
2504	0.045275
2488	0.113081
2472	-0.019311
2456	0.033879
2440	0.062680
2424	0.134587
2408	0.132584
2392	0.263905
2376	0.296044
2360	0.373935
2344	0.537967
2328	0.828337
2312	0.964689
2296	1.370096
2280	1.963281
2264	2.636146
2248	3.496289
2232	4.561519
2216	5.802178
2200	7.171010
2184	8.902072
2168	10.6067
2152	12.6183
2136	14.6161
2120	16.5473
2104	18.5094
2088	20.3914
2072	22.0796
2056	23.8405
2040	25.3388
2024	26.7109
2008	27.9016
1992	29.0045
1976	30.0967
1960	30.9405
1944	31.6665
1928	32.445
1912	33.0933
1896	33.5726
1880	33.8895
1864	34.4503
1848	34.9596
1832	35.0327
1816	35.2123
1800	35.514
1784	35.9319
1768	35.8229
1752	35.9193
1736	36.1732
1720	36.2217
1704	36.1071
1688	36.0383
1672	36.4149
1656	36.4933
1640	36.3322
1624	36.1372
1608	36.3906
1592	36.5522
1576	36.2537
1560	36.1874
1544	36.3871
1528	36.535
1512	36.2076
1496	36.1011
1480	36.4171
1464	36.3985
1448	36.1164
1432	35.9123
1416	36.2565
1400	36.2351
1384	36.0141
1368	35.9416
1352	35.9939
1336	36.2416
1320	35.8204
1304	35.6471
1288	35.9242
1272	36.0194
1256	35.781
1240	35.4735
1224	35.774
1208	35.9345
1192	35.5788
1176	35.3266
1160	35.4174
1144	35.6902
1128	35.2986
1112	34.9329
1096	35.0756
1080	35.5861
1064	35.111
1048	34.4996
1032	34.7714
1016	35.1448
1000	34.7335
984	 34.4505
968	 34.3651
952	 34.8402
936	 34.4153
920	 34.0204
904	 33.9599
888	 34.2709
872	 33.9082
856	 33.7181
840	 33.1731
824	 33.7794
808	 33.6395
792	 32.7224
776	 32.5621
760	 32.5794
744	 32.9006
728	 31.8598
712	 31.5981
696	 31.6305
680	 32.3344
664	 31.8315
648	 30.6405
632	 30.7837
616	 30.9076
600	 30.1993
584	 29.4504
568	 29.935
552	 30.247
536	 28.4815
520	 27.5375
504	 28.034
488	 27.4109
472	 26.1909
456	 22.6907
440	 25.1001
424	 25.9459
408	 24.1956
392	 25.2529
376	 13.7219
370	 -12.6168

File: LPE454_t116.asc
PE IR       SPECTRUM    SPECTRUM    ASCII       PEDS        1.60
  -1
LP9B0E~1.ASC
17/05/20
00:10:35.00
17/05/20
00:11:02.00
tln
$LPE454_t0116$<tbV0>[0.0,13.0,8.0,0.0,27,1,0]
27.028
64

2002,4.07
MIRTGS : RIGHTBACK : INTERNAL 2
MIR : ON : INTERNAL 2
OPTKBR

0.200000
8
8.000000
FILLER
RATIO
SPECTRUM
UNLOCKED 256

DOUBLE
64
COMBINED
1
0
0

0.002000
RATIO

1
0
TRUE
51149
0
LEFT NOT FITTED RIGHT NOT FITTED 0
NONE
NONE
15600
12
4.427000
51148
TRUE
1 0 8 72 0 0 0 0

15798

#HDR
-1
-1
#GR
µM
%T
2.38419e-05
0.0
2.000000
0.002000
12515
8
45.6675
-21.7255
#DATA
2.000000	 0.403785
2.084000	 0.154350
2.168000	 -1.600112
2.252000	 0.046535
2.336000	 0.346694
2.420000	 1.195946
2.504000	 -0.001140
2.588000	 -0.162537
2.672000	 0.122047
2.756000	 0.024635
2.840000	 0.203920
2.924000	 0.089792
3.008000	 0.102742
3.092000	 0.114694
3.176000	 -0.007775
3.260000	 -0.139131
3.344000	 0.031598
3.428000	 0.078541
3.512000	 0.083816
3.596000	 0.007042
3.680000	 0.018778
3.764000	 -0.038729
3.848000	 0.073271
3.932000	 0.014175
4.016000	 0.011273
4.100000	 0.089634
4.184000	 0.054799
4.268000	 0.396497
4.352000	 1.053657
4.436000	 2.565040
4.520000	 5.174745
4.604000	 8.696747
4.688000	 12.9349
4.772000	 17.0205
4.856000	 20.6184
4.940000	 23.3939
5.024000	 25.6356
5.108000	 27.4566
5.192000	 28.7494
5.276000	 29.9154
5.359999	 30.5431
5.444000	 31.3775
5.528000	 31.7689
5.612000	 32.3622
5.696000	 32.4474
5.780000	 33.0392
5.864000	 33.0775
5.948000	 33.3875
6.032000	 33.7021
6.116000	 33.6612
6.200000	 33.9591
6.284000	 34.1025
6.368000	 34.0984
6.452000	 34.2901
6.536000	 34.4472
6.620000	 34.3253
6.704000	 34.6097
6.788000	 34.6694
6.872000	 34.4699
6.956000	 34.446
7.040000	 34.7757
7.124000	 34.6389
7.208000	 34.4796
7.292000	 34.5227
7.376000	 34.8997
7.460000	 34.6762
7.544000	 34.4593
7.628000	 34.6378
7.712000	 34.8392
7.796000	 34.7901
7.880000	 34.4128
7.964000	 34.3239
8.048000	 34.5754
8.132000	 34.6897
8.216000	 34.4789
8.300000	 34.2207
8.384000	 34.1574
8.468000	 34.4056
8.552000	 34.5084
8.635999	 34.5155
8.719999	 34.1881
8.804000	 33.9553
8.888000	 33.9832
8.972000	 34.3059
9.056000	 34.3955
9.140000	 34.3099
9.224000	 34.042
9.308000	 33.7277
9.391999	 33.593
9.475999	 33.591
9.560000	 34.1442
9.644000	 34.1634
9.728000	 33.9442
9.812000	 33.4412
9.896000	 33.0989
9.980000	 33.4624
10.064	33.7178
10.148	33.9052
10.232	33.9588
10.316	33.7258
10.4	33.4341
10.484	33.0613
10.568	32.8467
10.652	33.0039
10.736	33.0838
10.82	33.1539
10.904	33.332
10.988	33.456
11.072	33.332
11.156	32.8399
11.24	32.4943
11.324	32.3084
11.408	32.5184
11.492	32.5356
11.576	32.625
11.66	32.8398
11.744	32.7852
11.828	32.6853
11.912	32.6812
11.996	32.517
12.08	32.0646
12.164	31.8909
12.248	31.9216
12.332	31.7504
12.416	31.7006
12.5	31.8918
12.584	31.9381
12.668	31.9175
12.752	32.0613
12.836	31.9683
12.92	31.8344
13.004	31.7252
13.088	31.3357
13.172	30.856
13.256	30.6691
13.34	30.6537
13.424	30.8404
13.508	31.1132
13.592	31.2175
13.676	31.0732
13.76	31.1282
13.844	31.3068
13.928	31.3415
14.012	31.1632
14.096	30.8811
14.18	30.6145
14.264	30.2294
14.348	29.8145
14.432	29.6255
14.516	29.7151
14.6	29.9615
14.684	30.0413
14.768	29.9656
14.852	30.08
14.936	30.3661
15.02	30.6412
15.104	30.6941
15.188	30.3882
15.272	29.978
15.356	29.7834
15.44	29.7903
15.524	29.8016
15.608	29.7703
15.692	29.7042
15.776	29.5518
15.86	29.4438
15.944	29.4289
16.028	29.3186
16.112	29.1315
16.196	29.0436
16.28	29.025
16.364	29.0187
16.448	29.0964
16.532	29.2568
16.616	29.3826
16.7	29.4296
16.784	29.4415
16.868	29.3706
16.952	29.1219
17.036	28.7651
17.12	28.5154
17.204	28.4641
17.288	28.4813
17.372	28.4329
17.456	28.3345
17.54	28.2333
17.624	28.0936
17.708	27.8983
17.792	27.7472
17.876	27.7659
17.96	27.9516
18.044	28.1576
18.128	28.2114
18.212	28.113
18.296	28.0549
18.38	28.1791
18.464	28.3854
18.548	28.4402
18.632	28.2261
18.716	27.8517
18.8	27.5392
18.884	27.4474
18.968	27.5938
19.052	27.8714
19.136	28.1153
19.22	28.1633
19.304	27.9316
19.388	27.4816
19.472	26.9957
19.556	26.6307
19.64	26.384
19.724	26.1446
19.808	25.8801
19.892	25.734
19.976	25.8885
20.06	26.3398
20.144	26.8705
20.228	27.2256
20.312	27.2704
20.396	26.9978
20.48	26.4779
20.564	25.8283
20.648	25.2111
20.732	24.797
20.816	24.6914
20.9	24.8859
20.984	25.2921
21.068	25.8102
21.152	26.3875
21.236	27.0153
21.32	27.6885
21.404	28.3494
21.488	28.8654
21.572	29.0681
21.656	28.8469
21.74	28.2401
21.824	27.4486
21.908	26.7428
21.992	26.3014
22.076	26.1184
22.16	26.0346
22.244	25.8828
22.328	25.6181
22.412	25.3162
22.496	25.0896
22.58	24.9762
22.664	24.9129
22.748	24.7806
22.832	24.5156
22.916	24.1557
23	23.8277
23.084	23.6721
23.168	23.7561
23.252	24.0164
23.336	24.2926
23.42	24.4196
23.504	24.2859
23.588	23.935
23.672	23.5532
23.756	23.3757
23.84	23.5432
23.924	24.0454
24.008	24.7075
24.092	25.2582
24.176	25.503
24.26	25.4059
24.344	25.1179
24.428	24.921
24.512	25.1712
24.596	26.0751
24.68	27.5854
24.764	29.3759
24.848	30.8966
24.932	31.48
25.016	30.6288
25.1	28.138
25.184	24.3287
25.268	20.0231
25.352	16.2515
25.436	14.0502
25.52	14.106
25.604	16.6137
25.688	21.2531
25.772	27.2714
25.856	33.7119
25.94	39.5391
26.024	43.7572
26.108	45.6191
26.192	44.7687
26.276	41.2326
26.36	35.384
26.444	27.9839
26.528	19.9436
26.612	12.1938
26.696	5.208820
26.78	-1.117823
26.864	-7.455554
26.948	-14.4749
27.028	-21.7255

File: LPE454_t116_cm-1.asc
PE IR       SPECTRUM    SPECTRUM    ASCII       PEDS        1.60
  -1
LP0958~1.ASC
17/05/20
00:10:35.00
17/05/20
00:10:35.00
tln
$LPE454_t0116$<tbV0>[0.0,13.0,8.0,0.0,27,1,0]
370
64

2002,4.07
MIRTGS : RIGHTBACK : INTERNAL 2
MIR : ON : INTERNAL 2
OPTKBR

0.200000
8
8.000000
FILLER
RATIO
SPECTRUM
UNLOCKED 256

DOUBLE
64
COMBINED
1
0
0

1.000000
RATIO

1
0
TRUE
51149
0
LEFT NOT FITTED RIGHT NOT FITTED 0
NONE
NONE
15600
12
4.427000
51148
TRUE
1 0 8 72 0 0 0 0

15798

#HDR
-1
-1
#GR
CM-1
%T
2.38419e-05
0.0
5000
-1.000000
4631
8
45.6287
-21.7255
#DATA
5000	0.403785
4984	0.456070
4968	0.360488
4952	0.284194
4936	0.295424
4920	0.608205
4904	-0.088095
4888	0.040578
4872	0.317001
4856	0.191831
4840	-0.014948
4824	-0.070214
4808	0.217771
4792	0.132083
4776	0.121974
4760	0.254130
4744	0.306224
4728	0.410985
4712	0.377559
4696	0.176858
4680	0.388693
4664	-0.389862
4648	-0.111675
4632	-0.348019
4616	-0.882554
4600	0.547480
4584	27.0383
4568	-4.783916
4552	0.569820
4536	-0.843048
4520	0.374078
4504	0.313949
4488	0.779414
4472	0.490570
4456	0.181818
4440	0.036311
4424	0.156307
4408	0.128436
4392	0.279998
4376	-0.074720
4360	0.392985
4344	0.071597
4328	0.036764
4312	0.560498
4296	0.025820
4280	0.391411
4264	-0.157642
4248	0.224828
4232	0.302100
4216	-0.099730
4200	0.374388
4184	0.039172
4168	-0.235319
4152	-0.439071
4136	1.281380
4120	-0.033378
4104	0.176620
4088	0.799083
4072	-0.185513
4056	-0.310635
4040	0.099372
4024	0.230693
4008	0.143265
3992	-0.037050
3976	-0.010800
3960	0.214147
3944	0.090718
3928	0.039482
3912	0.083732
3896	0.174641
3880	0.015044
3864	-0.163054
3848	-0.040149
3832	-0.011777
3816	0.069904
3800	-0.035095
3784	0.025010
3768	0.194334
3752	-0.157141
3736	0.178742
3720	-0.013041
3704	0.032091
3688	0.018692
3672	0.008082
3656	0.123214
3640	0.021100
3624	-0.003027
3608	-0.088882
3592	0.060153
3576	-0.000429
3560	0.091814
3544	0.232768
3528	0.154566
3512	0.029730
3496	0.141572
3480	-0.066852
3464	0.239443
3448	0.126099
3432	0.223731
3416	0.000619
3400	0.148963
3384	0.001001
3368	-0.044417
3352	0.017905
3336	0.025486
3320	0.133562
3304	-0.027084
3288	0.025200
3272	0.003147
3256	0.130558
3240	0.080156
3224	0.101017
3208	-0.004363
3192	0.174713
3176	-0.065994
3160	-0.025391
3144	0.048089
3128	0.107240
3112	-0.044298
3096	0.064110
3080	-0.036072
3064	-0.124883
3048	0.099325
3032	0.012159
3016	-0.030207
3000	0.100541
2984	0.084471
2968	0.061488
2952	0.016045
2936	0.123119
2920	0.140523
2904	0.009584
2888	-0.049448
2872	0.092744
2856	0.000357
2840	0.005984
2824	-0.022888
2808	0.065541
2792	0.045084
2776	-0.040435
2760	0.064897
2744	0.014686
2728	0.020790
2712	0.066328
2696	0.009083
2680	0.115132
2664	0.080490
2648	-0.024962
2632	0.057339
2616	-0.008940
2600	0.064301
2584	0.068521
2568	0.099396
2552	-0.030827
2536	0.050759
2520	0.033879
2504	0.043225
2488	0.028347
2472	0.036311
2456	0.009703
2440	0.094866
2424	0.124669
2408	0.017333
2392	0.063347
2376	0.136613
2360	0.221920
2344	0.378394
2328	0.556540
2312	0.856137
2296	1.102995
2280	1.646423
2264	2.110385
2248	2.875590
2232	3.658580
2216	4.871392
2200	6.147122
2184	7.584691
2168	9.084892
2152	11.0126
2136	12.6405
2120	14.378
2104	16.0762
2088	17.8166
2072	19.3678
2056	20.9338
2040	22.2039
2024	23.4147
2008	24.5842
1992	25.5484
1976	26.4891
1960	27.3668
1944	28.0168
1928	28.6422
1912	29.3413
1896	29.902
1880	30.1212
1864	30.5912
1848	31.2028
1832	31.4039
1816	31.6835
1800	32.073
1784	32.3219
1768	32.5071
1752	32.5001
1736	32.9428
1720	33.1879
1704	33.0811
1688	33.1356
1672	33.5351
1656	33.6846
1640	33.6164
1624	33.75
1608	34.1566
1592	34.0988
1576	34.1072
1560	34.1065
1544	34.442
1528	34.4247
1512	34.3194
1496	34.3966
1480	34.6264
1464	34.6701
1448	34.3941
1432	34.4847
1416	34.7868
1400	34.629
1384	34.4681
1368	34.5984
1352	34.8962
1336	34.5437
1320	34.4792
1304	34.5769
1288	34.8948
1272	34.462
1256	34.3163
1240	34.6277
1224	34.6757
1208	34.2927
1192	34.1693
1176	34.4134
1160	34.5592
1144	34.15
1128	33.9678
1112	34.3961
1096	34.2698
1080	33.8071
1064	33.5868
1048	33.9674
1032	33.9905
1016	33.1898
1000	33.5757
984	 33.9737
968	 33.6836
952	 32.9633
936	 33.0371
920	 33.265
904	 33.3652
888	 32.4394
872	 32.5667
856	 32.8517
840	 32.6827
824	 31.897
808	 31.687
792	 31.8994
776	 31.8731
760	 30.9174
744	 30.8942
728	 31.0835
712	 31.0522
696	 29.744
680	 30.0214
664	 30.7102
648	 29.7869
632	 29.4748
616	 29.0337
600	 29.4173
584	 28.5099
568	 28.1301
552	 28.2157
536	 28.1229
520	 28.1496
504	 25.7956
488	 26.3915
472	 26.6384
456	 26.5989
440	 24.8249
424	 23.9495
408	 25.1565
392	 13.9715
376	 13.6348
370	 -21.7255