Folder: Masteroppgave/Bakgrunnsmateriale/MATLAB/FTIR/ftir_data/LPE454/Mapping_121 (part 10)

File: LPE454_t16.asc
PE IR       SPECTRUM    SPECTRUM    ASCII       PEDS        1.60
  -1
LPD794~1.ASC
17/05/19
15:39:07.00
17/05/19
15:39:34.00
tln
$LPE454_t0016$<tbV0>[2.6,-10.4,8.0,0.0,27,1,0]
27.028
64

2002,4.07
MIRTGS : RIGHTBACK : INTERNAL 2
MIR : ON : INTERNAL 2
OPTKBR

0.200000
8
8.000000
FILLER
RATIO
SPECTRUM
UNLOCKED 256

DOUBLE
64
COMBINED
1
0
0

0.002000
RATIO

1
0
TRUE
51149
0
LEFT NOT FITTED RIGHT NOT FITTED 0
NONE
NONE
15600
12
4.427000
51148
TRUE
1 0 8 72 0 0 0 0

15798

#HDR
-1
-1
#GR
µM
%T
2.38419e-05
0.0
2.000000
0.002000
12515
8
34.8389
-7.956141
#DATA
2.000000	 0.418424
2.084000	 0.151513
2.168000	 -0.177471
2.252000	 0.288875
2.336000	 0.360439
2.420000	 0.172195
2.504000	 -0.163371
2.588000	 0.148019
2.672000	 0.015738
2.756000	 0.103364
2.840000	 -0.024175
2.924000	 -0.015797
3.008000	 0.013065
3.092000	 -0.012650
3.176000	 0.030439
3.260000	 0.101634
3.344000	 0.038454
3.428000	 -0.009705
3.512000	 -0.059356
3.596000	 0.203122
3.680000	 0.007019
3.764000	 0.029597
3.848000	 -0.020654
3.932000	 -0.088141
4.016000	 0.023774
4.100000	 0.170248
4.184000	 0.026020
4.268000	 0.069943
4.352000	 0.216180
4.436000	 0.870858
4.520000	 2.439156
4.604000	 5.121211
4.688000	 8.788244
4.772000	 13.0881
4.856000	 16.9003
4.940000	 20.2519
5.024000	 23.0579
5.108000	 25.0733
5.192000	 26.6616
5.276000	 27.757
5.359999	 28.5772
5.444000	 29.2687
5.528000	 29.6305
5.612000	 30.0394
5.696000	 30.1291
5.780000	 30.3906
5.864000	 30.6275
5.948000	 30.6254
6.032000	 30.7042
6.116000	 30.6971
6.200000	 30.6966
6.284000	 30.7392
6.368000	 30.6509
6.452000	 30.7486
6.536000	 30.7161
6.620000	 30.773
6.704000	 30.564
6.788000	 30.6372
6.872000	 30.5888
6.956000	 30.6076
7.040000	 30.5039
7.124000	 30.4942
7.208000	 30.3595
7.292000	 30.2765
7.376000	 30.1971
7.460000	 30.2247
7.544000	 30.1681
7.628000	 30.2107
7.712000	 30.0919
7.796000	 30.0634
7.880000	 30.0581
7.964000	 30.1727
8.048000	 30.0325
8.132000	 29.9152
8.216000	 30.0186
8.300000	 29.8292
8.384000	 29.6561
8.468000	 29.6634
8.552000	 29.6307
8.635999	 29.5595
8.719999	 29.4291
8.804000	 29.3897
8.888000	 29.4074
8.972000	 29.2898
9.056000	 29.2131
9.140000	 29.2911
9.224000	 29.1988
9.308000	 29.0031
9.391999	 29.0243
9.475999	 28.8461
9.560000	 28.8909
9.644000	 28.967
9.728000	 28.8685
9.812000	 28.8862
9.896000	 28.7697
9.980000	 28.5309
10.064	28.5414
10.148	28.4255
10.232	28.3548
10.316	28.4371
10.4	28.1305
10.484	27.8173
10.568	27.8172
10.652	28.0048
10.736	28.027
10.82	27.7808
10.904	27.5595
10.988	27.6301
11.072	27.4681
11.156	27.352
11.24	27.3821
11.324	27.2283
11.408	27.1793
11.492	27.0815
11.576	26.9046
11.66	26.8184
11.744	26.6193
11.828	26.6326
11.912	26.7548
11.996	26.7763
12.08	26.6993
12.164	26.5738
12.248	26.5345
12.332	26.3814
12.416	26.07
12.5	25.8034
12.584	25.735
12.668	25.8225
12.752	25.8043
12.836	25.7398
12.92	25.7741
13.004	25.7241
13.088	25.6795
13.172	25.6346
13.256	25.4618
13.34	25.0652
13.424	24.7099
13.508	24.7678
13.592	25.1512
13.676	25.2268
13.76	24.8195
13.844	24.6211
13.928	24.6159
14.012	24.3655
14.096	24.1744
14.18	24.1774
14.264	24.1224
14.348	23.9961
14.432	23.9771
14.516	24.1027
14.6	24.2079
14.684	24.2279
14.768	24.2319
14.852	24.1059
14.936	23.739
15.02	23.3779
15.104	23.1825
15.188	22.9857
15.272	22.7656
15.356	22.6714
15.44	22.7607
15.524	22.9504
15.608	22.9783
15.692	22.7091
15.776	22.4455
15.86	22.4479
15.944	22.5595
16.028	22.5797
16.112	22.5158
16.196	22.4419
16.28	22.4032
16.364	22.3564
16.448	22.1693
16.532	21.793
16.616	21.4049
16.7	21.2571
16.784	21.3935
16.868	21.617
16.952	21.7072
17.036	21.5964
17.12	21.4266
17.204	21.4712
17.288	21.8403
17.372	22.2716
17.456	22.3949
17.54	22.158
17.624	21.8034
17.708	21.5289
17.792	21.3538
17.876	21.2135
17.96	21.077
18.044	20.9806
18.128	20.9726
18.212	20.9934
18.296	20.8999
18.38	20.6679
18.464	20.4584
18.548	20.4231
18.632	20.5446
18.716	20.7025
18.8	20.8138
18.884	20.8495
18.968	20.7845
19.052	20.6188
19.136	20.4163
19.22	20.2484
19.304	20.1127
19.388	19.9511
19.472	19.7589
19.556	19.6085
19.64	19.5615
19.724	19.6021
19.808	19.6713
19.892	19.7488
19.976	19.8546
20.06	19.9804
20.144	20.0321
20.228	19.8785
20.312	19.4795
20.396	18.958
20.48	18.543
20.564	18.4022
20.648	18.5207
20.732	18.7116
20.816	18.7536
20.9	18.5562
20.984	18.2218
21.068	17.97
21.152	17.9886
21.236	18.3152
21.32	18.8197
21.404	19.2812
21.488	19.4921
21.572	19.3358
21.656	18.815
21.74	18.0492
21.824	17.2451
21.908	16.6374
21.992	16.4029
22.076	16.5892
22.16	17.0887
22.244	17.6839
22.328	18.1529
22.412	18.3763
22.496	18.3779
22.58	18.2785
22.664	18.2114
22.748	18.2458
22.832	18.3632
22.916	18.5046
23	18.6146
23.084	18.6743
23.168	18.7144
23.252	18.7788
23.336	18.8767
23.42	18.9838
23.504	19.0258
23.588	18.9067
23.672	18.5508
23.756	17.9285
23.84	17.0884
23.924	16.1545
24.008	15.2946
24.092	14.6889
24.176	14.4839
24.26	14.7679
24.344	15.5553
24.428	16.7393
24.512	18.0235
24.596	19.0318
24.68	19.3629
24.764	18.6983
24.848	16.9788
24.932	14.3835
25.016	11.2734
25.1	8.076035
25.184	5.203061
25.268	2.950216
25.352	1.496562
25.436	0.835924
25.52	0.789710
25.604	1.105677
25.688	1.508840
25.772	1.817412
25.856	2.017175
25.94	2.143209
26.024	2.327114
26.108	2.810616
26.192	3.930324
26.276	6.046231
26.36	9.479078
26.444	14.1868
26.528	19.694
26.612	25.1721
26.696	29.7612
26.78	32.9123
26.864	34.4849
26.948	34.832
27.028	34.7626

File: LPE454_t16_cm-1.asc
PE IR       SPECTRUM    SPECTRUM    ASCII       PEDS        1.60
  -1
LPE7BA~1.ASC
17/05/19
15:39:07.00
17/05/19
15:39:07.00
tln
$LPE454_t0016$<tbV0>[2.6,-10.4,8.0,0.0,27,1,0]
370
64

2002,4.07
MIRTGS : RIGHTBACK : INTERNAL 2
MIR : ON : INTERNAL 2
OPTKBR

0.200000
8
8.000000
FILLER
RATIO
SPECTRUM
UNLOCKED 256

DOUBLE
64
COMBINED
1
0
0

1.000000
RATIO

1
0
TRUE
51149
0
LEFT NOT FITTED RIGHT NOT FITTED 0
NONE
NONE
15600
12
4.427000
51148
TRUE
1 0 8 72 0 0 0 0

15798

#HDR
-1
-1
#GR
CM-1
%T
2.38419e-05
0.0
5000
-1.000000
4631
8
34.836
-8.128237
#DATA
5000	0.418424
4984	0.188946
4968	0.245833
4952	-0.422739
4936	-0.361680
4920	0.116634
4904	0.022292
4888	0.600528
4872	-0.065827
4856	-0.030565
4840	0.371122
4824	0.218677
4808	0.060296
4792	-0.061988
4776	-0.228404
4760	-0.043296
4744	-0.201773
4728	-0.316953
4712	1.056432
4696	-1.754260
4680	1.836991
4664	1.511502
4648	0.807237
4632	-0.918388
4616	-0.087594
4600	0.006437
4584	0.726723
4568	0.509428
4552	0.122570
4536	0.077152
4520	0.440168
4504	1.500463
4488	-2.559566
4472	0.528740
4456	0.053334
4440	0.273513
4424	0.032043
4408	-0.113534
4392	-0.346374
4376	0.218701
4360	-0.300526
4344	0.200033
4328	-0.015902
4312	0.054526
4296	0.579881
4280	0.423383
4264	0.060963
4248	0.024032
4232	0.006628
4216	-0.199341
4200	0.220894
4184	-0.029873
4168	0.298476
4152	0.114178
4136	0.049948
4120	0.217151
4104	0.141835
4088	0.024151
4072	-0.224399
4056	-0.065565
4040	0.012111
4024	0.032234
4008	0.030303
3992	-0.075697
3976	0.015234
3960	0.008583
3944	0.125837
3928	0.242304
3912	0.006222
3896	0.074124
3880	0.117301
3864	0.147962
3848	0.063753
3832	0.224018
3816	-0.013756
3800	0.111770
3784	-0.129342
3768	0.141549
3752	-0.030493
3736	-0.043964
3720	0.037646
3704	0.071454
3688	0.092124
3672	-0.004696
3656	0.018143
3640	0.003862
3624	0.056195
3608	0.099802
3592	0.022482
3576	0.018382
3560	0.139045
3544	0.008058
3528	0.023174
3512	0.031280
3496	0.234651
3480	0.079751
3464	0.179338
3448	0.131273
3432	0.189900
3416	0.040245
3400	0.111079
3384	0.034189
3368	0.044441
3352	-0.039482
3336	-0.068855
3320	0.161409
3304	0.013256
3288	-0.078010
3272	0.031304
3256	0.004386
3240	0.024247
3224	0.018215
3208	-0.046849
3192	0.026178
3176	0.163865
3160	0.010085
3144	0.193309
3128	-0.087022
3112	-0.053977
3096	0.058007
3080	-0.021553
3064	0.049805
3048	0.134778
3032	0.199985
3016	0.088810
3000	0.166273
2984	-0.017619
2968	-0.048112
2952	0.002169
2936	0.010156
2920	0.034332
2904	0.011253
2888	0.046944
2872	0.013995
2856	-0.044178
2840	0.051736
2824	0.067996
2808	0.053811
2792	0.009369
2776	0.116348
2760	-0.042796
2744	0.062274
2728	0.089621
2712	-0.049495
2696	0.000238
2680	0.040006
2664	0.010204
2648	0.057864
2632	0.066781
2616	0.001120
2600	-0.032305
2584	-0.033426
2568	0.002288
2552	-0.067567
2536	-0.054812
2520	0.127911
2504	0.055003
2488	-0.068974
2472	0.031900
2456	0.000953
2440	0.143694
2424	0.205206
2408	-0.129675
2392	0.034523
2376	-0.039696
2360	0.035738
2344	0.064826
2328	0.023603
2312	0.149941
2296	0.239801
2280	0.387907
2264	0.717830
2248	1.006841
2232	1.495194
2216	2.213406
2200	3.040480
2184	4.130291
2168	5.472040
2152	6.990838
2136	8.467793
2120	10.2935
2104	12.0902
2088	13.9447
2072	15.5244
2056	17.2775
2040	18.9027
2024	20.2787
2008	21.8195
1992	22.9394
1976	23.9808
1960	24.9664
1944	25.8764
1928	26.5668
1912	27.1413
1896	27.7402
1880	28.1988
1864	28.5969
1848	28.9204
1832	29.3524
1816	29.6041
1800	29.7306
1784	30.0251
1768	30.1724
1752	30.1517
1736	30.4482
1720	30.4278
1704	30.6537
1688	30.6629
1672	30.6893
1656	30.7729
1640	30.6678
1624	30.6738
1608	30.6034
1592	30.746
1576	30.6379
1560	30.9258
1544	30.8379
1528	30.7178
1512	30.7562
1496	30.5987
1480	30.6587
1464	30.5623
1448	30.5289
1432	30.6066
1416	30.5251
1400	30.4601
1384	30.3519
1368	30.2798
1352	30.2444
1336	30.2631
1320	30.124
1304	30.2437
1288	30.0736
1272	30.0764
1256	30.176
1240	29.9651
1224	29.917
1208	29.8469
1192	29.6533
1176	29.7642
1160	29.622
1144	29.3763
1128	29.464
1112	29.3194
1096	29.2549
1080	29.1171
1064	29.0027
1048	28.9307
1032	28.9361
1016	28.925
1000	28.5733
984	 28.4242
968	 28.4387
952	 27.8009
936	 28.0442
920	 27.6208
904	 27.4965
888	 27.3446
872	 27.1262
856	 26.7645
840	 26.7459
824	 26.6157
808	 26.2186
792	 25.7763
776	 25.763
760	 25.647
744	 24.6821
728	 24.9443
712	 24.2599
696	 23.976
680	 24.2302
664	 23.271
648	 22.7455
632	 22.4167
616	 22.4198
600	 21.2775
584	 21.4227
568	 21.8779
552	 20.969
536	 20.5927
520	 20.2302
504	 19.7001
488	 18.5047
472	 18.0896
456	 16.5356
440	 18.2278
424	 18.915
408	 17.9924
392	 0.772714
376	 24.1665
370	 34.7626

File: LPE454_t17.asc
PE IR       SPECTRUM    SPECTRUM    ASCII       PEDS        1.60
  -1
LPD790~1.ASC
17/05/19
15:43:44.00
17/05/19
15:44:10.00
tln
$LPE454_t0017$<tbV0>[0.0,-10.4,8.0,0.0,27,1,0]
27.028
64

2002,4.07
MIRTGS : RIGHTBACK : INTERNAL 2
MIR : ON : INTERNAL 2
OPTKBR

0.200000
8
8.000000
FILLER
RATIO
SPECTRUM
UNLOCKED 256

DOUBLE
64
COMBINED
1
0
0

0.002000
RATIO

1
0
TRUE
51149
0
LEFT NOT FITTED RIGHT NOT FITTED 0
NONE
NONE
15600
12
4.427000
51148
TRUE
1 0 8 72 0 0 0 0

15798

#HDR
-1
-1
#GR
µM
%T
2.38419e-05
0.0
2.000000
0.002000
12515
8
45.5944
-3.493237
#DATA
2.000000	 0.143122
2.084000	 -0.271100
2.168000	 0.009550
2.252000	 -0.383612
2.336000	 0.058975
2.420000	 0.111505
2.504000	 0.103814
2.588000	 -0.003850
2.672000	 0.043210
2.756000	 -0.000752
2.840000	 -0.027828
2.924000	 0.111655
3.008000	 0.043713
3.092000	 0.182435
3.176000	 0.054067
3.260000	 0.103835
3.344000	 0.097166
3.428000	 0.043879
3.512000	 0.136353
3.596000	 -0.044667
3.680000	 0.186072
3.764000	 -0.008225
3.848000	 0.073697
3.932000	 0.002486
4.016000	 -0.078559
4.100000	 0.119053
4.184000	 -0.022089
4.268000	 0.109137
4.352000	 0.260417
4.436000	 0.935794
4.520000	 2.361105
4.604000	 4.935990
4.688000	 8.810133
4.772000	 12.7417
4.856000	 16.5726
4.940000	 20.0719
5.024000	 22.7264
5.108000	 24.8434
5.192000	 26.3136
5.276000	 27.4592
5.359999	 28.362
5.444000	 29.0193
5.528000	 29.454
5.612000	 29.6977
5.696000	 30.0532
5.780000	 30.4296
5.864000	 30.2577
5.948000	 30.5369
6.032000	 30.5249
6.116000	 30.5723
6.200000	 30.6428
6.284000	 30.4954
6.368000	 30.5144
6.452000	 30.5839
6.536000	 30.6152
6.620000	 30.7526
6.704000	 30.4413
6.788000	 30.5319
6.872000	 30.2447
6.956000	 30.5085
7.040000	 30.4532
7.124000	 30.338
7.208000	 30.5069
7.292000	 30.1983
7.376000	 30.2037
7.460000	 30.3882
7.544000	 30.3031
7.628000	 30.2117
7.712000	 30.1969
7.796000	 30.1961
7.880000	 29.9328
7.964000	 30.0271
8.048000	 30.0787
8.132000	 29.9372
8.216000	 29.9348
8.300000	 29.9403
8.384000	 29.8457
8.468000	 29.7805
8.552000	 29.7059
8.635999	 29.6055
8.719999	 29.6459
8.804000	 29.5447
8.888000	 29.665
8.972000	 29.4879
9.056000	 29.5363
9.140000	 29.4729
9.224000	 29.3601
9.308000	 28.9173
9.391999	 29.2053
9.475999	 29.0062
9.560000	 29.1841
9.644000	 29.1045
9.728000	 28.8723
9.812000	 28.5788
9.896000	 28.8479
9.980000	 28.5597
10.064	28.5366
10.148	28.7462
10.232	28.4349
10.316	28.4158
10.4	28.2218
10.484	28.0949
10.568	28.2315
10.652	28.2768
10.736	28.1383
10.82	27.9393
10.904	27.7735
10.988	27.7261
11.072	27.5142
11.156	27.5828
11.24	27.6656
11.324	27.62
11.408	27.5991
11.492	27.474
11.576	27.0837
11.66	27.0503
11.744	26.9534
11.828	27.0151
11.912	27.2606
11.996	27.2233
12.08	27.0258
12.164	26.5123
12.248	26.415
12.332	26.5025
12.416	26.3108
12.5	26.3252
12.584	26.3049
12.668	26.2466
12.752	26.136
12.836	26.0084
12.92	26.0221
13.004	25.8573
13.088	25.597
13.172	25.4371
13.256	25.3619
13.34	25.4912
13.424	25.5962
13.508	25.4904
13.592	25.5159
13.676	25.5754
13.76	25.4199
13.844	25.2379
13.928	24.9605
14.012	24.6785
14.096	24.6714
14.18	24.5346
14.264	24.1857
14.348	24.1581
14.432	24.3702
14.516	24.3583
14.6	24.1867
14.684	24.0998
14.768	24.1035
14.852	24.1777
14.936	24.1595
15.02	23.9296
15.104	23.6344
15.188	23.3976
15.272	23.3413
15.356	23.5133
15.44	23.6818
15.524	23.5989
15.608	23.289
15.692	23.0122
15.776	22.9302
15.86	22.9986
15.944	23.1406
16.028	23.229
16.112	23.1756
16.196	23.0425
16.28	22.8821
16.364	22.7027
16.448	22.5233
16.532	22.3515
16.616	22.2316
16.7	22.188
16.784	22.1596
16.868	22.1489
16.952	22.1648
17.036	22.1195
17.12	22.0408
17.204	22.0777
17.288	22.1539
17.372	22.0483
17.456	21.7958
17.54	21.595
17.624	21.4714
17.708	21.3271
17.792	21.163
17.876	21.0445
17.96	20.9561
18.044	20.8541
18.128	20.7888
18.212	20.8562
18.296	21.0581
18.38	21.2789
18.464	21.4006
18.548	21.4043
18.632	21.3384
18.716	21.2366
18.8	21.0841
18.884	20.8533
18.968	20.5568
19.052	20.244
19.136	19.9522
19.22	19.6771
19.304	19.4016
19.388	19.1664
19.472	19.0691
19.556	19.1647
19.64	19.3841
19.724	19.6056
19.808	19.7592
19.892	19.8357
19.976	19.8281
20.06	19.7209
20.144	19.546
20.228	19.4021
20.312	19.3805
20.396	19.4762
20.48	19.5888
20.564	19.5997
20.648	19.4474
20.732	19.1441
20.816	18.754
20.9	18.3798
20.984	18.1234
21.068	18.0356
21.152	18.0666
21.236	18.0873
21.32	17.9856
21.404	17.7515
21.488	17.4709
21.572	17.2226
21.656	16.996
21.74	16.7091
21.824	16.3229
21.908	15.9392
21.992	15.7705
22.076	16.0074
22.16	16.6722
22.244	17.5822
22.328	18.455
22.412	19.0475
22.496	19.2643
22.58	19.1529
22.664	18.8227
22.748	18.3865
22.832	17.9295
22.916	17.5149
23	17.1773
23.084	16.9221
23.168	16.7127
23.252	16.473
23.336	16.1072
23.42	15.5625
23.504	14.8179
23.588	13.9349
23.672	13.0599
23.756	12.3807
23.84	12.0347
23.924	12.0644
24.008	12.3774
24.092	12.7555
24.176	12.9562
24.26	12.8088
24.344	12.3032
24.428	11.6201
24.512	11.0611
24.596	10.9456
24.68	11.3756
24.764	12.0668
24.848	12.4589
24.932	11.8981
25.016	10.0096
25.1	6.896764
25.184	3.163621
25.268	-0.316835
25.352	-2.768691
25.436	-3.468153
25.52	-2.032549
25.604	1.427140
25.688	6.291774
25.772	11.466
25.856	15.7329
25.94	18.4601
26.024	19.8114
26.108	20.615
26.192	21.8697
26.276	24.2832
26.36	27.9165
26.444	32.3277
26.528	36.7955
26.612	40.7457
26.696	43.6976
26.78	45.3285
26.864	45.4744
26.948	43.9674
27.028	40.6934

File: LPE454_t17_cm-1.asc
PE IR       SPECTRUM    SPECTRUM    ASCII       PEDS        1.60
  -1
LPE73A~1.ASC
17/05/19
15:43:44.00
17/05/19
15:43:44.00
tln
$LPE454_t0017$<tbV0>[0.0,-10.4,8.0,0.0,27,1,0]
370
64

2002,4.07
MIRTGS : RIGHTBACK : INTERNAL 2
MIR : ON : INTERNAL 2
OPTKBR

0.200000
8
8.000000
FILLER
RATIO
SPECTRUM
UNLOCKED 256

DOUBLE
64
COMBINED
1
0
0

1.000000
RATIO

1
0
TRUE
51149
0
LEFT NOT FITTED RIGHT NOT FITTED 0
NONE
NONE
15600
12
4.427000
51148
TRUE
1 0 8 72 0 0 0 0

15798

#HDR
-1
-1
#GR
CM-1
%T
2.38419e-05
0.0
5000
-1.000000
4631
8
45.5484
-3.416442
#DATA
5000	0.143122
4984	0.887823
4968	-0.230669
4952	-0.039744
4936	-0.017881
4920	0.103712
4904	0.157856
4888	0.042819
4872	0.862836
4856	0.106215
4840	-0.063514
4824	0.658082
4808	0.187492
4792	0.207757
4776	-0.111699
4760	0.254631
4744	0.065946
4728	-0.065779
4712	0.052285
4696	-0.287199
4680	-0.671172
4664	1.575660
4648	-0.299024
4632	0.307464
4616	0.193762
4600	-0.721263
4584	-0.081634
4568	-0.048828
4552	-0.353097
4536	0.086808
4520	0.090265
4504	0.884532
4488	4.938459
4472	-0.917553
4456	-0.354433
4440	-0.384759
4424	-0.391387
4408	-0.019478
4392	0.000119
4376	0.051665
4360	0.344157
4344	0.118303
4328	-0.106430
4312	0.220036
4296	-0.021052
4280	0.036406
4264	0.141787
4248	0.442504
4232	-0.024199
4216	0.364899
4200	-0.267267
4184	0.325536
4168	0.143814
4152	0.194168
4136	0.121569
4120	0.060343
4104	0.043010
4088	-0.026631
4072	0.111413
4056	0.207328
4040	-0.137877
4024	-0.178670
4008	0.093078
3992	0.027251
3976	-0.089073
3960	0.126743
3944	-0.111246
3928	0.121974
3912	0.264811
3896	0.073909
3880	0.216054
3864	-0.002861
3848	-0.088787
3832	0.074434
3816	-0.105595
3800	0.258207
3784	0.103425
3768	0.000047
3752	0.120019
3736	0.119328
3720	-0.029206
3704	0.146961
3688	-0.029587
3672	-0.080108
3656	0.059342
3640	-0.116920
3624	0.112342
3608	0.146889
3592	0.096344
3576	0.121283
3560	-0.087285
3544	-0.133681
3528	0.022149
3512	0.004506
3496	0.037598
3480	0.112390
3464	0.233769
3448	0.099563
3432	-0.197172
3416	0.067353
3400	0.241327
3384	-0.030279
3368	-0.081133
3352	-0.066518
3336	0.050401
3320	0.028896
3304	0.054812
3288	0.095009
3272	-0.010824
3256	0.026321
3240	0.109815
3224	0.013184
3208	-0.120878
3192	0.023317
3176	-0.056266
3160	0.067305
3144	-0.016021
3128	0.130271
3112	0.043344
3096	-0.119495
3080	-0.095510
3064	0.080227
3048	0.125265
3032	0.014281
3016	-0.006175
3000	-0.058722
2984	0.044989
2968	0.152635
2952	-0.005006
2936	0.062417
2920	0.041413
2904	-0.013399
2888	-0.067806
2872	0.107789
2856	0.130844
2840	-0.034189
2824	-0.038886
2808	0.112390
2792	-0.127029
2776	-0.009703
2760	0.006914
2744	0.015163
2728	0.042748
2712	0.134849
2696	0.123667
2680	0.016260
2664	0.141835
2648	-0.022625
2632	0.010752
2616	-0.053524
2600	0.076580
2584	-0.000166
2568	0.027465
2552	-0.093555
2536	0.083088
2520	0.136232
2504	0.293183
2488	0.002264
2472	0.081038
2456	0.047230
2440	0.084066
2424	0.217843
2408	-0.051546
2392	-0.061297
2376	0.091981
2360	0.049304
2344	0.116872
2328	0.271606
2312	0.231885
2296	0.241184
2280	0.506305
2264	0.732851
2248	1.112461
2232	1.528859
2216	2.154016
2200	3.129720
2184	4.110646
2168	5.169010
2152	6.878280
2136	8.460545
2120	10.2133
2104	11.8168
2088	13.4991
2072	15.3592
2056	16.9311
2040	18.5861
2024	20.0937
2008	21.4329
1992	22.6006
1976	23.7581
1960	24.7103
1944	25.5349
1928	26.241
1912	26.9604
1896	27.4478
1880	28.0768
1864	28.4107
1848	28.7693
1832	29.0598
1816	29.2813
1800	29.6119
1784	29.6985
1768	29.8678
1752	30.0441
1736	30.2575
1720	30.2771
1704	30.2938
1688	30.5085
1672	30.505
1656	30.5853
1640	30.5072
1624	30.4762
1608	30.5337
1592	30.5023
1576	30.6133
1560	30.6374
1544	30.7019
1528	30.6373
1512	30.7572
1496	30.5135
1480	30.4728
1464	30.2431
1448	30.3426
1432	30.4757
1416	30.4177
1400	30.3891
1384	30.4922
1368	30.1626
1352	30.2084
1336	30.4612
1320	30.2069
1304	30.0681
1288	30.0736
1272	29.9314
1256	30.0267
1240	30.0578
1224	29.9541
1208	29.9358
1192	29.8345
1176	29.7179
1160	29.6539
1144	29.6251
1128	29.6544
1112	29.5366
1096	29.4342
1080	29.1502
1064	29.2153
1048	29.1262
1032	28.9273
1016	28.5785
1000	28.4606
984	 28.6813
968	 28.3877
952	 28.1076
936	 28.2351
920	 27.8103
904	 27.5312
888	 27.6665
872	 27.5681
856	 27.0282
840	 27.2438
824	 26.6926
808	 26.3926
792	 26.2832
776	 26.0103
760	 25.4612
744	 25.5849
728	 25.4754
712	 24.652
696	 24.2068
680	 24.0929
664	 23.786
648	 23.6744
632	 22.9548
616	 22.9733
600	 22.2
584	 22.0395
568	 21.4973
552	 20.7918
536	 21.3121
520	 19.6418
504	 19.7986
488	 19.5987
472	 18.0846
456	 15.8651
440	 18.4991
424	 13.968
408	 11.0708
392	 -2.310228
376	 40.0525
370	 40.6934

File: LPE454_t18.asc
PE IR       SPECTRUM    SPECTRUM    ASCII       PEDS        1.60
  -1
LPE79C~1.ASC
17/05/19
15:48:21.00
17/05/19
15:48:47.00
tln
$LPE454_t0018$<tbV0>[-2.6,-10.4,8.0,0.0,27,1,0]
27.028
64

2002,4.07
MIRTGS : RIGHTBACK : INTERNAL 2
MIR : ON : INTERNAL 2
OPTKBR

0.200000
8
8.000000
FILLER
RATIO
SPECTRUM
UNLOCKED 256

DOUBLE
64
COMBINED
1
0
0

0.002000
RATIO

1
0
TRUE
51149
0
LEFT NOT FITTED RIGHT NOT FITTED 0
NONE
NONE
15600
12
4.427000
51148
TRUE
1 0 8 72 0 0 0 0

15798

#HDR
-1
-1
#GR
µM
%T
2.38419e-05
0.0
2.000000
0.002000
12515
8
42.1293
-8.735975
#DATA
2.000000	 0.446844
2.084000	 0.014151
2.168000	 -0.097316
2.252000	 -0.288373
2.336000	 0.486945
2.420000	 -0.225957
2.504000	 -0.000394
2.588000	 0.088158
2.672000	 -0.004743
2.756000	 0.089597
2.840000	 -0.027382
2.924000	 0.011738
3.008000	 0.054347
3.092000	 0.143625
3.176000	 0.183036
3.260000	 0.017308
3.344000	 0.096633
3.428000	 -0.085715
3.512000	 0.106996
3.596000	 0.000382
3.680000	 0.033818
3.764000	 0.067771
3.848000	 0.163642
3.932000	 0.040686
4.016000	 0.052370
4.100000	 0.219229
4.184000	 0.025315
4.268000	 0.065803
4.352000	 0.392431
4.436000	 1.195849
4.520000	 2.634629
4.604000	 5.096625
4.688000	 8.235574
4.772000	 11.6236
4.856000	 14.5793
4.940000	 17.4166
5.024000	 19.4881
5.108000	 21.0296
5.192000	 22.2598
5.276000	 23.2817
5.359999	 23.8587
5.444000	 24.4381
5.528000	 24.8754
5.612000	 25.2896
5.696000	 25.5841
5.780000	 25.793
5.864000	 25.8061
5.948000	 26.2244
6.032000	 26.452
6.116000	 26.6179
6.200000	 26.6887
6.284000	 26.8738
6.368000	 26.9026
6.452000	 26.8626
6.536000	 27.1559
6.620000	 27.2431
6.704000	 27.1722
6.788000	 27.5048
6.872000	 27.5779
6.956000	 27.3371
7.040000	 27.6928
7.124000	 27.6097
7.208000	 27.5454
7.292000	 28.0532
7.376000	 27.7684
7.460000	 27.7716
7.544000	 27.9051
7.628000	 28.15
7.712000	 28.0031
7.796000	 27.8817
7.880000	 28.0611
7.964000	 28.3817
8.048000	 28.3641
8.132000	 28.1899
8.216000	 28.2194
8.300000	 28.6529
8.384000	 28.666
8.468000	 28.3394
8.552000	 28.3813
8.635999	 28.5104
8.719999	 28.7816
8.804000	 28.5693
8.888000	 28.4385
8.972000	 28.3319
9.056000	 28.7776
9.140000	 28.7015
9.224000	 29.0473
9.308000	 28.8828
9.391999	 28.581
9.475999	 28.4288
9.560000	 28.5371
9.644000	 28.7718
9.728000	 28.7955
9.812000	 28.9935
9.896000	 28.6067
9.980000	 28.4397
10.064	28.4361
10.148	28.6755
10.232	28.8545
10.316	28.8166
10.4	28.3362
10.484	28.1737
10.568	28.2439
10.652	28.2984
10.736	28.4386
10.82	29.0322
10.904	28.9831
10.988	28.4681
11.072	28.2726
11.156	28.1732
11.24	27.9161
11.324	27.7607
11.408	28.2459
11.492	28.6055
11.576	28.6428
11.66	28.4023
11.744	28.1329
11.828	27.9978
11.912	27.8664
11.996	27.7276
12.08	27.5843
12.164	27.6579
12.248	27.7931
12.332	28.1355
12.416	28.1972
12.5	28.0153
12.584	27.7654
12.668	27.4123
12.752	27.0835
12.836	27.0334
12.92	27.0669
13.004	27.3064
13.088	27.5587
13.172	27.7304
13.256	27.9444
13.34	27.7342
13.424	27.3019
13.508	26.8842
13.592	26.4708
13.676	26.237
13.76	26.2542
13.844	26.4224
13.928	26.3803
14.012	26.3146
14.096	26.5139
14.18	26.6852
14.264	26.6512
14.348	26.645
14.432	26.659
14.516	26.6473
14.6	26.6436
14.684	26.5075
14.768	26.1731
14.852	25.7137
14.936	25.282
15.02	25.0724
15.104	25.0714
15.188	25.2285
15.272	25.5215
15.356	25.7634
15.44	25.8457
15.524	25.804
15.608	25.7
15.692	25.6586
15.776	25.6654
15.86	25.5851
15.944	25.3904
16.028	25.1404
16.112	24.929
16.196	24.8715
16.28	24.9743
16.364	25.1341
16.448	25.2622
16.532	25.2369
16.616	25.0116
16.7	24.7669
16.784	24.6681
16.868	24.6647
16.952	24.691
17.036	24.7887
17.12	24.9883
17.204	25.2429
17.288	25.3785
17.372	25.1805
17.456	24.6864
17.54	24.2385
17.624	24.0591
17.708	24.0013
17.792	23.8483
17.876	23.6136
17.96	23.4783
18.044	23.5557
18.128	23.7703
18.212	23.9266
18.296	23.9054
18.38	23.822
18.464	23.8989
18.548	24.1881
18.632	24.4991
18.716	24.6002
18.8	24.4312
18.884	24.1407
18.968	23.9187
19.052	23.8201
19.136	23.7681
19.22	23.678
19.304	23.5397
19.388	23.3727
19.472	23.174
19.556	22.9331
19.64	22.6815
19.724	22.4752
19.808	22.3431
19.892	22.2741
19.976	22.2419
20.06	22.2203
20.144	22.1734
20.228	22.0527
20.312	21.8314
20.396	21.5411
20.48	21.2669
20.564	21.0981
20.648	21.0991
20.732	21.2795
20.816	21.5915
20.9	21.9426
20.984	22.2366
21.068	22.4083
21.152	22.4203
21.236	22.2554
21.32	21.924
21.404	21.4854
21.488	21.0376
21.572	20.6683
21.656	20.3815
21.74	20.0849
21.824	19.6569
21.908	19.0522
21.992	18.3593
22.076	17.7583
22.16	17.4189
22.244	17.3995
22.328	17.6236
22.412	17.9341
22.496	18.172
22.58	18.2563
22.664	18.2021
22.748	18.108
22.832	18.081
22.916	18.1808
23	18.4141
23.084	18.6861
23.168	18.8431
23.252	18.7678
23.336	18.4126
23.42	17.8678
23.504	17.3044
23.588	16.9078
23.672	16.7967
23.756	16.9675
23.84	17.3019
23.924	17.6707
24.008	18.045
24.092	18.5193
24.176	19.2225
24.26	19.9924
24.344	20.3
24.428	19.5027
24.512	17.0833
24.596	13.0305
24.68	7.884215
24.764	2.557627
24.848	-2.134163
24.932	-5.613828
25.016	-7.715985
25.1	-8.616809
25.184	-8.684345
25.268	-8.237659
25.352	-7.381990
25.436	-6.204039
25.52	-4.805188
25.604	-3.238327
25.688	-1.286378
25.772	1.612531
25.856	6.135300
25.94	12.5571
26.024	20.3704
26.108	28.2068
26.192	34.8167
26.276	39.3617
26.36	41.7486
26.444	41.9318
26.528	39.7532
26.612	34.5942
26.696	26.4426
26.78	16.4661
26.864	7.335576
26.948	2.292670
27.028	3.334999