Folder: Masteroppgave/Bakgrunnsmateriale/MATLAB/FTIR/ftir_data/LPE454/Mapping_121 (part 13)

File: LPE454_t23_cm-1.asc
PE IR       SPECTRUM    SPECTRUM    ASCII       PEDS        1.60
  -1
LP5830~1.ASC
17/05/19
16:18:31.00
17/05/19
16:18:31.00
tln
$LPE454_t0023$<tbV0>[13.0,-7.8,8.0,0.0,27,1,0]
370
64

2002,4.07
MIRTGS : RIGHTBACK : INTERNAL 2
MIR : ON : INTERNAL 2
OPTKBR

0.200000
8
8.000000
FILLER
RATIO
SPECTRUM
UNLOCKED 256

DOUBLE
64
COMBINED
1
0
0

1.000000
RATIO

1
0
TRUE
51149
0
LEFT NOT FITTED RIGHT NOT FITTED 0
NONE
NONE
15600
12
4.427000
51148
TRUE
1 0 8 72 0 0 0 0

15798

#HDR
-1
-1
#GR
CM-1
%T
2.38419e-05
0.0
5000
-1.000000
4631
8
26.5319
-7.032299
#DATA
5000	0.598549
4984	0.240254
4968	0.495195
4952	-0.089263
4936	-0.122594
4920	0.329279
4904	0.190019
4888	0.104665
4872	0.210356
4856	-0.153827
4840	0.258278
4824	0.427627
4808	0.260162
4792	-0.099062
4776	0.042867
4760	0.365185
4744	-0.120067
4728	0.094127
4712	0.132536
4696	0.128650
4680	0.486803
4664	0.374627
4648	0.115227
4632	0.731229
4616	-0.207495
4600	-0.330805
4584	0.701951
4568	-0.420665
4552	0.439047
4536	-1.377344
4520	-0.705838
4504	17.1209
4488	0.305461
4472	0.568628
4456	0.485491
4440	0.590085
4424	1.090764
4408	0.412654
4392	0.577640
4376	0.508689
4360	0.407433
4344	0.133514
4328	0.252223
4312	0.217342
4296	0.117254
4280	0.093960
4264	0.190544
4248	0.138068
4232	0.122356
4216	0.064826
4200	-0.128006
4184	0.214815
4168	-0.739741
4152	0.020337
4136	0.155901
4120	0.175786
4104	0.287127
4088	0.056529
4072	-0.066804
4056	-0.045680
4040	0.361347
4024	0.095486
4008	0.048446
3992	-0.113582
3976	0.072002
3960	0.060939
3944	0.239157
3928	-0.001168
3912	0.020194
3896	0.259661
3880	0.083780
3864	0.068902
3848	-0.173068
3832	0.074505
3816	0.090241
3800	0.021028
3784	0.118660
3768	0.022339
3752	0.026869
3736	0.111055
3720	0.135350
3704	0.142192
3688	0.171208
3672	0.049400
3656	-0.045371
3640	0.182628
3624	-0.075674
3608	0.195789
3592	0.047898
3576	0.112795
3560	-0.047993
3544	0.082826
3528	0.366878
3512	-0.083422
3496	-0.100183
3480	-0.217390
3464	0.150370
3448	-0.014567
3432	0.149655
3416	0.020313
3400	-0.107860
3384	0.078368
3368	0.139570
3352	0.245714
3336	0.084042
3320	0.178337
3304	0.065279
3288	0.071597
3272	0.070738
3256	0.220131
3240	0.102949
3224	-0.043725
3208	0.010371
3192	-0.000619
3176	-0.042629
3160	0.124406
3144	-0.001454
3128	0.199580
3112	0.149059
3096	0.004315
3080	0.016689
3064	0.076985
3048	-0.027537
3032	0.025415
3016	0.237059
3000	0.059556
2984	0.137948
2968	0.194025
2952	0.098323
2936	0.107336
2920	-0.011801
2904	0.079941
2888	-0.022959
2872	0.159764
2856	0.003099
2840	0.014448
2824	0.143003
2808	0.048542
2792	0.063467
2776	0.156569
2760	0.000262
2744	-0.047826
2728	0.025129
2712	0.075578
2696	0.045394
2680	0.047206
2664	0.056385
2648	-0.033497
2632	0.024056
2616	0.025534
2600	0.067043
2584	-0.054812
2568	0.104594
2552	0.078344
2536	0.133371
2520	0.075054
2504	0.127005
2488	0.148892
2472	0.074672
2456	0.044584
2440	-0.065827
2424	-0.142526
2408	-0.085091
2392	-0.004458
2376	0.083494
2360	-0.012254
2344	-0.006723
2328	0.083184
2312	0.042438
2296	0.047707
2280	0.334715
2264	0.332736
2248	0.680232
2232	0.987267
2216	1.433634
2200	2.141046
2184	2.726721
2168	3.795242
2152	4.932785
2136	6.268358
2120	7.551312
2104	8.861112
2088	10.4005
2072	11.6218
2056	12.9865
2040	14.3388
2024	15.5291
2008	16.6372
1992	17.6962
1976	18.5802
1960	19.6325
1944	20.3133
1928	21.1457
1912	21.6256
1896	22.1877
1880	22.7783
1864	23.1197
1848	23.4345
1832	23.9609
1816	24.2998
1800	24.6016
1784	24.7545
1768	24.9906
1752	25.1843
1736	25.2677
1720	25.5481
1704	25.7315
1688	25.8893
1672	25.8355
1656	26.0663
1640	26.105
1624	26.122
1608	26.2853
1592	26.2152
1576	26.2465
1560	26.2563
1544	26.2786
1528	26.3631
1512	26.2886
1496	26.4789
1480	26.3314
1464	26.4628
1448	26.2584
1432	26.2459
1416	26.2708
1400	26.1509
1384	26.1235
1368	26.039
1352	26.1611
1336	26.1662
1320	26.027
1304	26.172
1288	25.9778
1272	25.7942
1256	26.054
1240	25.8759
1224	25.9742
1208	25.842
1192	25.6132
1176	25.6894
1160	25.5304
1144	25.3812
1128	25.4303
1112	25.2064
1096	24.9713
1080	25.2534
1064	24.8456
1048	24.7524
1032	24.7972
1016	24.5175
1000	24.6202
984	 24.6317
968	 24.0705
952	 24.077
936	 24.0873
920	 23.3658
904	 23.7328
888	 23.4813
872	 22.9673
856	 23.1134
840	 22.8886
824	 22.5921
808	 22.4864
792	 22.0368
776	 21.6939
760	 21.6614
744	 21.4037
728	 21.0917
712	 20.8823
696	 20.1963
680	 20.188
664	 20.2044
648	 19.632
632	 19.2443
616	 18.9003
600	 18.4304
584	 18.6208
568	 17.5366
552	 17.3241
536	 17.1076
520	 16.8017
504	 15.9477
488	 16.156
472	 15.9822
456	 14.1025
440	 14.2073
424	 12.1481
408	 12.716
392	 22.185
376	 -6.664276
370	 -5.825662

File: LPE454_t100.asc
PE IR       SPECTRUM    SPECTRUM    ASCII       PEDS        1.60
  -1
LP93F7~1.ASC
17/05/19
22:36:08.00
17/05/19
22:36:34.00
tln
$LPE454_t0100$<tbV0>[13.0,10.4,8.0,0.0,27,1,0]
27.028
64

2002,4.07
MIRTGS : RIGHTBACK : INTERNAL 2
MIR : ON : INTERNAL 2
OPTKBR

0.200000
8
8.000000
FILLER
RATIO
SPECTRUM
UNLOCKED 256

DOUBLE
64
COMBINED
1
0
0

0.002000
RATIO

1
0
TRUE
51149
0
LEFT NOT FITTED RIGHT NOT FITTED 0
NONE
NONE
15600
12
4.427000
51148
TRUE
1 0 8 72 0 0 0 0

15798

#HDR
-1
-1
#GR
µM
%T
2.38419e-05
0.0
2.000000
0.002000
12515
8
32.2254
-13.0816
#DATA
2.000000	 0.303506
2.084000	 0.358790
2.168000	 -0.069727
2.252000	 0.278671
2.336000	 0.368013
2.420000	 0.166127
2.504000	 0.464869
2.588000	 0.297140
2.672000	 0.019534
2.756000	 0.069546
2.840000	 0.079966
2.924000	 0.279551
3.008000	 0.006035
3.092000	 -0.039694
3.176000	 0.186889
3.260000	 -0.061091
3.344000	 0.172391
3.428000	 0.160516
3.512000	 0.018997
3.596000	 -0.054449
3.680000	 0.022890
3.764000	 0.036633
3.848000	 0.039867
3.932000	 0.068241
4.016000	 0.006689
4.100000	 -0.005128
4.184000	 0.033024
4.268000	 0.208618
4.352000	 0.343845
4.436000	 1.157777
4.520000	 3.040626
4.604000	 5.824027
4.688000	 9.847004
4.772000	 13.7793
4.856000	 17.703
4.940000	 21.0564
5.024000	 23.7284
5.108000	 25.6957
5.192000	 27.3922
5.276000	 28.553
5.359999	 29.5054
5.444000	 30.1102
5.528000	 30.7516
5.612000	 31.1464
5.696000	 31.4839
5.780000	 31.7416
5.864000	 31.8835
5.948000	 32.0167
6.032000	 32.1351
6.116000	 32.1342
6.200000	 32.1325
6.284000	 32.1525
6.368000	 32.177
6.452000	 32.0001
6.536000	 31.921
6.620000	 31.9493
6.704000	 31.852
6.788000	 31.8499
6.872000	 31.7134
6.956000	 31.6896
7.040000	 31.7035
7.124000	 31.5562
7.208000	 31.466
7.292000	 31.4337
7.376000	 31.3896
7.460000	 31.2905
7.544000	 31.2064
7.628000	 31.196
7.712000	 31.1577
7.796000	 31.1003
7.880000	 30.966
7.964000	 30.9116
8.048000	 30.9931
8.132000	 30.8025
8.216000	 30.6822
8.300000	 30.6414
8.384000	 30.5563
8.468000	 30.4447
8.552000	 30.2857
8.635999	 30.4392
8.719999	 30.3554
8.804000	 30.3325
8.888000	 30.1913
8.972000	 30.2025
9.056000	 29.9813
9.140000	 29.8272
9.224000	 29.8344
9.308000	 29.831
9.391999	 29.722
9.475999	 29.5927
9.560000	 29.4531
9.644000	 29.4725
9.728000	 29.694
9.812000	 29.3734
9.896000	 29.2255
9.980000	 29.4391
10.064	29.0258
10.148	29.1108
10.232	29.1455
10.316	28.863
10.4	28.7271
10.484	28.7952
10.568	28.9516
10.652	28.7304
10.736	28.751
10.82	28.7373
10.904	28.533
10.988	28.2666
11.072	28.1888
11.156	28.1217
11.24	28.0483
11.324	27.7913
11.408	27.8369
11.492	27.9156
11.576	27.813
11.66	27.639
11.744	27.5182
11.828	27.5068
11.912	27.5988
11.996	27.5019
12.08	27.487
12.164	27.4326
12.248	27.3502
12.332	27.2264
12.416	26.8978
12.5	26.874
12.584	26.9632
12.668	26.8845
12.752	26.7419
12.836	26.54
12.92	26.5012
13.004	26.6185
13.088	26.6248
13.172	26.7154
13.256	26.8315
13.34	26.5256
13.424	26.183
13.508	25.9079
13.592	25.7933
13.676	25.797
13.76	25.7232
13.844	25.6252
13.928	25.5027
14.012	25.4468
14.096	25.4409
14.18	25.4274
14.264	25.3516
14.348	25.1993
14.432	25.0663
14.516	24.9103
14.6	24.7557
14.684	24.7651
14.768	24.7722
14.852	24.5601
14.936	24.3249
15.02	24.2969
15.104	24.338
15.188	24.3515
15.272	24.4496
15.356	24.5303
15.44	24.447
15.524	24.2981
15.608	24.0708
15.692	23.6752
15.776	23.3686
15.86	23.3958
15.944	23.6156
16.028	23.7606
16.112	23.7164
16.196	23.6462
16.28	23.7872
16.364	24.0082
16.448	23.9916
16.532	23.7407
16.616	23.4685
16.7	23.245
16.784	23.0419
16.868	22.8921
16.952	22.8859
17.036	23.0184
17.12	23.1617
17.204	23.2702
17.288	23.4227
17.372	23.5634
17.456	23.4814
17.54	23.1182
17.624	22.604
17.708	22.0586
17.792	21.6282
17.876	21.554
17.96	21.9259
18.044	22.4706
18.128	22.7791
18.212	22.7306
18.296	22.499
18.38	22.2502
18.464	22.0082
18.548	21.7725
18.632	21.5639
18.716	21.3397
18.8	21.0567
18.884	20.8623
18.968	21.0051
19.052	21.4539
19.136	21.8228
19.22	21.7773
19.304	21.4302
19.388	21.1594
19.472	21.1605
19.556	21.3301
19.64	21.5291
19.724	21.7483
19.808	22.0006
19.892	22.1921
19.976	22.1969
20.06	22.0021
20.144	21.7034
20.228	21.3616
20.312	20.9445
20.396	20.4128
20.48	19.8275
20.564	19.3383
20.648	19.0864
20.732	19.1235
20.816	19.3996
20.9	19.7996
20.984	20.1856
21.068	20.4405
21.152	20.5078
21.236	20.3991
21.32	20.1593
21.404	19.8217
21.488	19.4149
21.572	18.9956
21.656	18.6449
21.74	18.4386
21.824	18.402
21.908	18.4947
21.992	18.6498
22.076	18.8235
22.16	19.0147
22.244	19.2347
22.328	19.4633
22.412	19.6394
22.496	19.6617
22.58	19.4392
22.664	18.9337
22.748	18.2139
22.832	17.4635
22.916	16.9218
23	16.7579
23.084	16.9886
23.168	17.4566
23.252	17.9291
23.336	18.208
23.42	18.2576
23.504	18.1696
23.588	18.0811
23.672	18.0609
23.756	18.0479
23.84	17.9123
23.924	17.5337
24.008	16.8701
24.092	15.9758
24.176	14.9757
24.26	14.044
24.344	13.3831
24.428	13.1506
24.512	13.4401
24.596	14.1934
24.68	15.2024
24.764	16.1637
24.848	16.7756
24.932	16.7531
25.016	15.9487
25.1	14.4649
25.184	12.5697
25.268	10.5895
25.352	8.811414
25.436	7.451370
25.52	6.640267
25.604	6.442257
25.688	6.685026
25.772	7.018233
25.856	7.091471
25.94	6.790690
26.024	6.253874
26.108	5.753371
26.192	5.213169
26.276	4.173600
26.36	1.736589
26.444	-2.374530
26.528	-7.416862
26.612	-11.6285
26.696	-13.0523
26.78	-10.4167
26.864	-3.934618
26.948	4.856990
27.028	13.4183

File: LPE454_t100_cm-1.asc
PE IR       SPECTRUM    SPECTRUM    ASCII       PEDS        1.60
  -1
LP03DC~1.ASC
17/05/19
22:36:08.00
17/05/19
22:36:08.00
tln
$LPE454_t0100$<tbV0>[13.0,10.4,8.0,0.0,27,1,0]
370
64

2002,4.07
MIRTGS : RIGHTBACK : INTERNAL 2
MIR : ON : INTERNAL 2
OPTKBR

0.200000
8
8.000000
FILLER
RATIO
SPECTRUM
UNLOCKED 256

DOUBLE
64
COMBINED
1
0
0

1.000000
RATIO

1
0
TRUE
51149
0
LEFT NOT FITTED RIGHT NOT FITTED 0
NONE
NONE
15600
12
4.427000
51148
TRUE
1 0 8 72 0 0 0 0

15798

#HDR
-1
-1
#GR
CM-1
%T
2.38419e-05
0.0
5000
-1.000000
4631
8
32.2249
-12.9941
#DATA
5000	0.303506
4984	-0.106954
4968	0.396704
4952	0.202941
4936	0.549125
4920	0.310564
4904	0.473332
4888	-0.133109
4872	0.089335
4856	0.187873
4840	0.201797
4824	0.030922
4808	0.379014
4792	0.373291
4776	0.247240
4760	0.044417
4744	0.273251
4728	0.200176
4712	0.200819
4696	0.432467
4680	-0.314426
4664	0.025796
4648	0.088381
4632	-0.368380
4616	0.083065
4600	9.120130
4584	9.500503
4568	-0.197577
4552	-0.825476
4536	-0.778293
4520	-1.079368
4504	-0.612711
4488	-0.199627
4472	0.071024
4456	0.289607
4440	0.258588
4424	0.320029
4408	0.132799
4392	0.369954
4376	0.118637
4360	0.049185
4344	-0.072336
4328	0.443387
4312	-0.007915
4296	0.282549
4280	0.332164
4264	0.083446
4248	0.317525
4232	0.279712
4216	0.069928
4200	0.056004
4184	-0.006818
4168	0.351762
4152	0.484108
4136	0.146579
4120	0.014090
4104	-0.257730
4088	-0.339484
4072	0.615143
4056	0.373029
4040	0.837898
4024	0.830316
4008	0.014114
3992	0.589251
3976	-0.062584
3960	-0.020456
3944	-0.011587
3928	0.179815
3912	0.364565
3896	-0.030326
3880	-0.115990
3864	0.297188
3848	0.074195
3832	-0.013184
3816	0.073027
3800	0.073623
3784	-0.008082
3768	0.176119
3752	0.246500
3736	0.036239
3720	0.087285
3704	0.095486
3688	0.020623
3672	0.040745
3656	0.052952
3640	0.103592
3624	0.053954
3608	0.154781
3592	0.023531
3576	-0.027465
3560	0.027751
3544	0.121617
3528	-0.045847
3512	-0.063991
3496	0.104117
3480	0.045180
3464	0.049424
3448	0.068712
3432	0.108766
3416	0.347328
3400	0.102424
3384	0.058865
3368	0.094079
3352	0.042200
3336	0.131583
3320	0.014519
3304	0.124835
3288	0.041866
3272	0.116968
3256	0.056385
3240	-0.082159
3224	0.148129
3208	0.053954
3192	0.070905
3176	0.046730
3160	0.085496
3144	0.102758
3128	0.211238
3112	0.196409
3096	0.107932
3080	-0.046801
3064	-0.044226
3048	0.059080
3032	-0.055003
3016	0.128388
3000	0.034260
2984	0.067973
2968	0.047945
2952	0.112891
2936	0.114202
2920	0.135588
2904	0.065207
2888	0.088047
2872	0.055360
2856	0.057196
2840	0.154972
2824	0.123739
2808	0.082349
2792	0.012183
2776	-0.046825
2760	0.027608
2744	0.059199
2728	0.003266
2712	0.008654
2696	0.064969
2680	0.004053
2664	-0.007152
2648	0.103616
2632	0.074410
2616	-0.026345
2600	0.042176
2584	0.090765
2568	0.133252
2552	0.052475
2536	0.060391
2520	0.044274
2504	-0.005006
2488	0.035047
2472	0.043559
2456	-0.006484
2440	-0.014066
2424	0.091409
2408	0.054621
2392	0.020146
2376	0.003862
2360	0.179767
2344	0.203371
2328	0.094485
2312	0.284266
2296	0.381302
2280	0.633454
2264	0.960326
2248	1.414537
2232	2.004003
2216	2.849268
2200	3.748726
2184	4.978179
2168	6.158256
2152	7.716226
2136	9.513688
2120	11.1637
2104	13.0806
2088	14.717
2072	16.3644
2056	18.0498
2040	19.6203
2024	21.0825
2008	22.3283
1992	23.6231
1976	24.5209
1960	25.5177
1944	26.5041
1928	27.2954
1912	27.975
1896	28.5429
1880	29.0355
1864	29.5579
1848	30.1033
1832	30.2469
1816	30.7824
1800	30.8733
1784	31.1104
1768	31.3049
1752	31.4408
1736	31.7343
1720	31.796
1704	31.8995
1688	31.8421
1672	32.0669
1656	32.1297
1640	32.1471
1624	32.2192
1608	32.028
1592	32.1584
1576	32.1644
1560	32.1052
1544	32.0091
1528	31.903
1512	31.9513
1496	31.882
1480	31.8838
1464	31.829
1448	31.7483
1432	31.7273
1416	31.7624
1400	31.539
1384	31.5104
1368	31.3751
1352	31.4293
1336	31.2967
1320	31.189
1304	31.1114
1288	31.1374
1272	31.0323
1256	30.908
1240	30.9282
1224	30.7288
1208	30.6612
1192	30.5517
1176	30.3235
1160	30.4407
1144	30.3647
1128	30.21
1112	30.1451
1096	29.8274
1080	29.8366
1064	29.7154
1048	29.5208
1032	29.6277
1016	29.2091
1000	29.3667
984	 29.1569
968	 28.8208
952	 28.8587
936	 28.7095
920	 28.6349
904	 28.187
888	 27.9829
872	 27.9045
856	 27.5923
840	 27.5949
824	 27.4667
808	 27.0495
792	 26.9409
776	 26.4778
760	 26.6856
744	 26.1273
728	 25.7469
712	 25.4429
696	 25.1642
680	 24.7809
664	 24.322
648	 24.4599
632	 23.3439
616	 23.6802
600	 23.3302
584	 23.1663
568	 22.7226
552	 22.7584
536	 21.5035
520	 21.743
504	 22.0921
488	 19.7494
472	 20.482
456	 18.5317
440	 18.4032
424	 18.0832
408	 13.4263
392	 6.702232
376	 -10.9963
370	 13.4183

File: LPE454_t101.asc
PE IR       SPECTRUM    SPECTRUM    ASCII       PEDS        1.60
  -1
LP97F7~1.ASC
17/05/19
22:40:45.00
17/05/19
22:41:11.00
tln
$LPE454_t0101$<tbV0>[10.4,10.4,8.0,0.0,27,1,0]
27.028
64

2002,4.07
MIRTGS : RIGHTBACK : INTERNAL 2
MIR : ON : INTERNAL 2
OPTKBR

0.200000
8
8.000000
FILLER
RATIO
SPECTRUM
UNLOCKED 256

DOUBLE
64
COMBINED
1
0
0

0.002000
RATIO

1
0
TRUE
51149
0
LEFT NOT FITTED RIGHT NOT FITTED 0
NONE
NONE
15600
12
4.427000
51148
TRUE
1 0 8 72 0 0 0 0

15798

#HDR
-1
-1
#GR
µM
%T
2.38419e-05
0.0
2.000000
0.002000
12515
8
58.2957
-2.824060
#DATA
2.000000	 0.335025
2.084000	 0.019079
2.168000	 1.389263
2.252000	 -0.099030
2.336000	 -0.008634
2.420000	 0.015870
2.504000	 0.143908
2.588000	 0.079268
2.672000	 0.077265
2.756000	 0.080537
2.840000	 0.058565
2.924000	 0.073138
3.008000	 -0.023784
3.092000	 0.000596
3.176000	 0.044626
3.260000	 0.027627
3.344000	 -0.006278
3.428000	 0.009305
3.512000	 -0.003828
3.596000	 0.024499
3.680000	 0.017677
3.764000	 0.017900
3.848000	 0.057869
3.932000	 -0.086823
4.016000	 -0.007002
4.100000	 -0.012662
4.184000	 0.088782
4.268000	 0.351575
4.352000	 1.063516
4.436000	 2.474655
4.520000	 5.308533
4.604000	 9.373468
4.688000	 14.1206
4.772000	 18.952
4.856000	 23.213
4.940000	 26.7387
5.024000	 29.4321
5.108000	 31.465
5.192000	 33.1362
5.276000	 34.1714
5.359999	 34.9639
5.444000	 35.505
5.528000	 35.9488
5.612000	 36.1796
5.696000	 36.3824
5.780000	 36.4604
5.864000	 36.4976
5.948000	 36.5765
6.032000	 36.6024
6.116000	 36.6131
6.200000	 36.5989
6.284000	 36.6233
6.368000	 36.5751
6.452000	 36.4598
6.536000	 36.47
6.620000	 36.3664
6.704000	 36.5028
6.788000	 36.3705
6.872000	 36.1242
6.956000	 36.2927
7.040000	 36.3171
7.124000	 36.1677
7.208000	 36.0767
7.292000	 36.1297
7.376000	 36.1393
7.460000	 35.8848
7.544000	 36.0132
7.628000	 35.9271
7.712000	 35.9533
7.796000	 35.8319
7.880000	 35.8377
7.964000	 35.8174
8.048000	 35.7573
8.132000	 35.6292
8.216000	 35.5942
8.300000	 35.4839
8.384000	 35.5164
8.468000	 35.4189
8.552000	 35.399
8.635999	 35.3605
8.719999	 35.2196
8.804000	 35.0722
8.888000	 35.2484
8.972000	 35.11
9.056000	 34.9192
9.140000	 35.0612
9.224000	 34.9385
9.308000	 34.9788
9.391999	 34.8057
9.475999	 34.7475
9.560000	 34.7953
9.644000	 34.7307
9.728000	 34.7874
9.812000	 34.7177
9.896000	 34.5701
9.980000	 34.5843
10.064	34.389
10.148	34.1792
10.232	34.4305
10.316	34.2137
10.4	34.2449
10.484	34.1829
10.568	34.0162
10.652	33.975
10.736	33.8856
10.82	33.8547
10.904	33.9925
10.988	33.798
11.072	33.7876
11.156	33.81
11.24	33.4937
11.324	33.198
11.408	33.2243
11.492	32.9022
11.576	33.031
11.66	33.1733
11.744	33.2093
11.828	33.0208
11.912	32.8622
11.996	32.6367
12.08	32.535
12.164	32.6491
12.248	32.4965
12.332	32.3504
12.416	32.3163
12.5	32.3494
12.584	32.3707
12.668	32.3974
12.752	32.3549
12.836	32.1829
12.92	31.9994
13.004	31.9821
13.088	31.8794
13.172	31.8063
13.256	31.847
13.34	31.7377
13.424	31.4825
13.508	31.4029
13.592	31.4301
13.676	31.4306
13.76	31.3359
13.844	31.2865
13.928	31.2787
14.012	31.1356
14.096	31.0209
14.18	30.9953
14.264	30.8234
14.348	30.5464
14.432	30.4894
14.516	30.6394
14.6	30.7633
14.684	30.7422
14.768	30.6627
14.852	30.6131
14.936	30.5975
15.02	30.5659
15.104	30.3153
15.188	30.007
15.272	30.0386
15.356	30.2074
15.44	30.1267
15.524	29.8881
15.608	29.7435
15.692	29.681
15.776	29.6045
15.86	29.6046
15.944	29.7188
16.028	29.7377
16.112	29.5255
16.196	29.2191
16.28	28.9831
16.364	28.8804
16.448	28.9738
16.532	29.1731
16.616	29.1792
16.7	28.9002
16.784	28.601
16.868	28.4717
16.952	28.467
17.036	28.4891
17.12	28.5386
17.204	28.7647
17.288	29.2048
17.372	29.5039
17.456	29.2861
17.54	28.704
17.624	28.1527
17.708	27.6793
17.792	27.1756
17.876	26.8029
17.96	26.8202
18.044	27.2019
18.128	27.6882
18.212	28.0335
18.296	28.0276
18.38	27.5324
18.464	26.6401
18.548	25.6991
18.632	25.0544
18.716	24.8415
18.8	25.0365
18.884	25.5541
18.968	26.2001
19.052	26.6552
19.136	26.6773
19.22	26.3403
19.304	26.0162
19.388	26.0459
19.472	26.4665
19.556	27.0345
19.64	27.4663
19.724	27.6243
19.808	27.5382
19.892	27.3317
19.976	27.1602
20.06	27.1379
20.144	27.2677
20.228	27.4233
20.312	27.4371
20.396	27.2299
20.48	26.8625
20.564	26.4636
20.648	26.1072
20.732	25.7887
20.816	25.5059
20.9	25.3208
20.984	25.3162
21.068	25.4836
21.152	25.6866
21.236	25.7373
21.32	25.5267
21.404	25.0998
21.488	24.6225
21.572	24.2718
21.656	24.1407
21.74	24.2153
21.824	24.4141
21.908	24.6535
21.992	24.8871
22.076	25.101
22.16	25.2902
22.244	25.4217
22.328	25.4437
22.412	25.3153
22.496	25.0326
22.58	24.6407
22.664	24.2162
22.748	23.8554
22.832	23.6447
22.916	23.6235
23	23.7788
23.084	24.0275
23.168	24.2557
23.252	24.3937
23.336	24.4375
23.42	24.4731
23.504	24.5997
23.588	24.84
23.672	25.1064
23.756	25.2258
23.84	25.0432
23.924	24.5257
24.008	23.7763
24.092	22.9624
24.176	22.2169
24.26	21.5087
24.344	20.6619
24.428	19.4764
24.512	17.7988
24.596	15.6743
24.68	13.3238
24.764	11.039
24.848	9.088021
24.932	7.630885
25.016	6.671347
25.1	6.129327
25.184	5.927813
25.268	6.046684
25.352	6.509293
25.436	7.336122
25.52	8.483943
25.604	9.840072
25.688	11.3185
25.772	12.8802
25.856	14.5321
25.94	16.3548
26.024	18.4668
26.108	20.9638
26.192	23.8567
26.276	27.1188
26.36	30.727
26.444	34.672
26.528	38.9147
26.612	43.4175
26.696	47.9833
26.78	52.2262
26.864	55.6133
26.948	57.6755
27.028	58.2957

File: LPE454_t101_cm-1.asc
PE IR       SPECTRUM    SPECTRUM    ASCII       PEDS        1.60
  -1
LP04DC~1.ASC
17/05/19
22:40:45.00
17/05/19
22:40:45.00
tln
$LPE454_t0101$<tbV0>[10.4,10.4,8.0,0.0,27,1,0]
370
64

2002,4.07
MIRTGS : RIGHTBACK : INTERNAL 2
MIR : ON : INTERNAL 2
OPTKBR

0.200000
8
8.000000
FILLER
RATIO
SPECTRUM
UNLOCKED 256

DOUBLE
64
COMBINED
1
0
0

1.000000
RATIO

1
0
TRUE
51149
0
LEFT NOT FITTED RIGHT NOT FITTED 0
NONE
NONE
15600
12
4.427000
51148
TRUE
1 0 8 72 0 0 0 0

15798

#HDR
-1
-1
#GR
CM-1
%T
2.38419e-05
0.0
5000
-1.000000
4631
8
58.2957
-2.809405
#DATA
5000	0.335025
4984	-0.101375
4968	0.022554
4952	0.044083
4936	0.068640
4920	-0.035715
4904	-0.017738
4888	0.704121
4872	-0.152540
4856	-0.167322
4840	0.152420
4824	-0.017380
4808	-0.005412
4792	0.101327
4776	0.258469
4760	0.352120
4744	-0.245761
4728	0.250673
4712	-0.060129
4696	0.258946
4680	0.233459
4664	0.328493
4648	0.320196
4632	1.136827
4616	0.748443
4600	-0.790572
4584	6.488013
4568	0.929403
4552	0.632667
4536	-0.060915
4520	0.749826
4504	0.226974
4488	-0.003099
4472	-0.196576
4456	0.627064
4440	-0.095391
4424	-0.147128
4408	0.082063
4392	0.181078
4376	-0.074458
4360	0.291419
4344	0.017738
4328	0.239062
4312	0.118231
4296	0.166058
4280	-0.028204
4264	0.482225
4248	0.219988
4232	0.311303
4216	0.088071
4200	0.112485
4184	-0.072026
4168	-0.326347
4152	-0.095629
4136	-0.044560
4120	0.177478
4104	0.590610
4088	0.227689
4072	0.914788
4056	-0.205874
4040	0.154709
4024	0.256490
4008	-0.287628
3992	0.104641
3976	0.023865
3960	0.085139
3944	0.209069
3928	0.116181
3912	-0.148916
3896	-0.139880
3880	0.187993
3864	0.079298
3848	-0.069069
3832	0.129294
3816	0.172305
3800	-0.034093
3784	0.042295
3768	0.030112
3752	0.118160
3736	-0.051116
3720	0.001692
3704	0.012254
3688	-0.005459
3672	0.010418
3656	-0.001835
3640	0.102400
3624	0.200414
3608	0.017714
3592	-0.020718
3576	-0.007271
3560	0.160408
3544	0.021409
3528	0.181865
3512	-0.017857
3496	-0.028562
3480	-0.006866
3464	-0.008845
3448	-0.012874
3432	0.047993
3416	0.176525
3400	0.118446
3384	0.029587
3368	0.079798
3352	0.146389
3336	0.059747
3320	-0.002217
3304	-0.116467
3288	0.023388
3272	-0.047755
3256	0.097227
3240	0.069427
3224	0.062608
3208	0.012254
3192	0.044274
3176	0.085663
3160	-0.027203
3144	0.074315
3128	0.123476
3112	0.066709
3096	0.150513
3080	0.029087
3064	0.073146
3048	0.056672
3032	-0.089359
3016	-0.037956
3000	0.002527
2984	-0.006294
2968	0.135922
2952	0.028562
2936	-0.012564
2920	0.007128
2904	0.026655
2888	-0.007748
2872	0.051379
2856	0.097584
2840	-0.036525
2824	0.042152
2808	-0.001978
2792	0.068950
2776	0.093221
2760	0.120735
2744	0.149917
2728	0.074696
2712	0.087285
2696	-0.019264
2680	-0.011634
2664	0.124239
2648	0.016474
2632	0.170969
2616	0.058650
2600	0.051975
2584	-0.060749
2568	-0.055456
2552	-0.028443
2536	-0.014734
2520	0.034165
2504	-0.014901
2488	0.003147
2472	-0.054788
2456	-0.017690
2440	-0.005674
2424	-0.094389
2408	0.123620
2392	0.082302
2376	0.069522
2360	0.184011
2344	0.334072
2328	0.439524
2312	0.700664
2296	1.130604
2280	1.589345
2264	2.065157
2248	2.787899
2232	3.721261
2216	4.956483
2200	6.353783
2184	7.929134
2168	9.891605
2152	11.7402
2136	13.7519
2120	15.8558
2104	17.9434
2088	19.8632
2072	21.7233
2056	23.5784
2040	25.2191
2024	26.7656
2008	28.0879
1992	29.3359
1976	30.4236
1960	31.3547
1944	32.2574
1928	33.0412
1912	33.6769
1896	34.1559
1880	34.4774
1864	35.0245
1848	35.25
1832	35.601
1816	35.9541
1800	35.9792
1784	36.1786
1768	36.3062
1752	36.4161
1736	36.3762
1720	36.4981
1704	36.5097
1688	36.6612
1672	36.4843
1656	36.6044
1640	36.578
1624	36.6077
1608	36.6365
1592	36.6225
1576	36.5906
1560	36.6259
1544	36.5432
1528	36.4816
1512	36.3545
1496	36.5997
1480	36.3018
1464	36.3487
1448	36.2611
1432	36.2968
1416	36.3093
1400	36.1613
1384	36.0582
1368	36.1323
1352	36.0727
1336	35.8759
1320	35.9469
1304	35.832
1288	35.8283
1272	35.7861
1256	35.8184
1240	35.7143
1224	35.6427
1208	35.5327
1192	35.5144
1176	35.4371
1160	35.3974
1144	35.1632
1128	35.2299
1112	35.0706
1096	35.0637
1080	34.9658
1064	34.8046
1048	34.7335
1032	34.7145
1016	34.7021
1000	34.5642
984	 34.2021
968	 34.1831
952	 34.1382
936	 33.928
920	 33.9506
904	 33.7759
888	 33.3828
872	 32.9849
856	 33.204
840	 32.8781
824	 32.6218
808	 32.3233
792	 32.3884
776	 32.0478
760	 31.8079
744	 31.4485
728	 31.368
712	 31.0746
696	 30.5058
680	 30.721
664	 30.479
648	 30.1456
632	 29.5863
616	 29.0997
600	 29.0318
584	 28.5431
568	 28.2619
552	 27.6221
536	 24.946
520	 26.2895
504	 27.4619
488	 26.8058
472	 25.7355
456	 24.716
440	 23.933
424	 24.8301
408	 17.8488
392	 8.337879
376	 42.5338
370	 58.2957