Folder: Masteroppgave/Bakgrunnsmateriale/MATLAB/FTIR/ftir_data/LPE454/Mapping_121 (part 14)

File: LPE454_t102.asc
PE IR       SPECTRUM    SPECTRUM    ASCII       PEDS        1.60
  -1
LP9BF7~1.ASC
17/05/19
22:45:21.00
17/05/19
22:45:47.00
tln
$LPE454_t0102$<tbV0>[7.8,10.4,8.0,0.0,27,1,0]
27.028
64

2002,4.07
MIRTGS : RIGHTBACK : INTERNAL 2
MIR : ON : INTERNAL 2
OPTKBR

0.200000
8
8.000000
FILLER
RATIO
SPECTRUM
UNLOCKED 256

DOUBLE
64
COMBINED
1
0
0

0.002000
RATIO

1
0
TRUE
51149
0
LEFT NOT FITTED RIGHT NOT FITTED 0
NONE
NONE
15600
12
4.427000
51148
TRUE
1 0 8 72 0 0 0 0

15798

#HDR
-1
-1
#GR
µM
%T
2.38419e-05
0.0
2.000000
0.002000
12515
8
48.8637
-2.157963
#DATA
2.000000	 0.127458
2.084000	 0.211704
2.168000	 -1.598284
2.252000	 0.746123
2.336000	 0.054688
2.420000	 0.301239
2.504000	 0.001534
2.588000	 -0.091941
2.672000	 0.004322
2.756000	 0.064413
2.840000	 -0.060135
2.924000	 0.069447
3.008000	 0.136922
3.092000	 0.082224
3.176000	 -0.050378
3.260000	 0.105542
3.344000	 0.023489
3.428000	 0.087281
3.512000	 -0.033462
3.596000	 -0.039146
3.680000	 0.055647
3.764000	 0.016137
3.848000	 0.135433
3.932000	 0.026196
4.016000	 0.036542
4.100000	 0.135363
4.184000	 0.310905
4.268000	 0.860414
4.352000	 1.938973
4.436000	 4.307463
4.520000	 8.057704
4.604000	 12.7722
4.688000	 18.1814
4.772000	 23.2426
4.856000	 27.7575
4.940000	 30.9532
5.024000	 33.5159
5.108000	 35.4105
5.192000	 36.7711
5.276000	 37.7456
5.359999	 38.456
5.444000	 38.9247
5.528000	 39.217
5.612000	 39.4512
5.696000	 39.7903
5.780000	 39.7326
5.864000	 39.9869
5.948000	 40.0843
6.032000	 39.9966
6.116000	 40.2533
6.200000	 40.109
6.284000	 39.9843
6.368000	 40.1808
6.452000	 40.2035
6.536000	 40.1283
6.620000	 40.1688
6.704000	 40.2012
6.788000	 40.17
6.872000	 39.9616
6.956000	 40.2422
7.040000	 40.2444
7.124000	 40.0918
7.208000	 40.0586
7.292000	 40.0177
7.376000	 40.1044
7.460000	 40.2155
7.544000	 40.0885
7.628000	 39.9138
7.712000	 39.9993
7.796000	 40.0305
7.880000	 39.9077
7.964000	 39.8667
8.048000	 39.7569
8.132000	 39.8551
8.216000	 39.8746
8.300000	 39.8156
8.384000	 39.8211
8.468000	 39.7256
8.552000	 39.6109
8.635999	 39.8121
8.719999	 39.7631
8.804000	 39.8193
8.888000	 39.5605
8.972000	 39.5094
9.056000	 39.4794
9.140000	 39.5648
9.224000	 39.5696
9.308000	 39.4545
9.391999	 39.2538
9.475999	 39.3517
9.560000	 39.4256
9.644000	 39.4409
9.728000	 39.4499
9.812000	 39.3272
9.896000	 39.4533
9.980000	 39.0739
10.064	39.0141
10.148	38.8713
10.232	38.8773
10.316	38.9143
10.4	39.0253
10.484	38.8454
10.568	38.8949
10.652	38.9484
10.736	38.8018
10.82	38.5334
10.904	38.4413
10.988	38.3056
11.072	38.3376
11.156	38.4107
11.24	38.3995
11.324	38.4073
11.408	38.6638
11.492	38.4636
11.576	38.2227
11.66	38.0812
11.744	37.7903
11.828	37.6783
11.912	37.675
11.996	37.6296
12.08	37.4789
12.164	37.5004
12.248	37.8177
12.332	37.8974
12.416	37.7648
12.5	37.6083
12.584	37.3081
12.668	37.1701
12.752	36.979
12.836	36.5872
12.92	36.4424
13.004	36.7558
13.088	37.0975
13.172	37.1672
13.256	37.0682
13.34	36.9323
13.424	36.9635
13.508	37.0344
13.592	36.9198
13.676	36.6848
13.76	36.7012
13.844	36.5998
13.928	36.3448
14.012	36.3387
14.096	36.2035
14.18	35.9789
14.264	35.9569
14.348	35.9085
14.432	35.837
14.516	35.8805
14.6	35.9574
14.684	35.9904
14.768	36.0415
14.852	36.1758
14.936	36.3479
15.02	36.4218
15.104	36.2809
15.188	35.9895
15.272	35.6485
15.356	35.3026
15.44	35.0429
15.524	34.8483
15.608	34.6168
15.692	34.4747
15.776	34.5878
15.86	34.7744
15.944	34.8417
16.028	34.8827
16.112	34.8712
16.196	34.6368
16.28	34.3074
16.364	34.1674
16.448	34.2678
16.532	34.5123
16.616	34.7383
16.7	34.776
16.784	34.6884
16.868	34.6705
16.952	34.7395
17.036	34.8683
17.12	35.0742
17.204	35.1621
17.288	34.9272
17.372	34.5143
17.456	34.117
17.54	33.6403
17.624	33.0658
17.708	32.7497
17.792	32.9556
17.876	33.4156
17.96	33.6015
18.044	33.2551
18.128	32.5688
18.212	32.0231
18.296	32.0648
18.38	32.734
18.464	33.6032
18.548	34.1698
18.632	34.2781
18.716	34.1188
18.8	33.9135
18.884	33.7248
18.968	33.5405
19.052	33.3779
19.136	33.2623
19.22	33.1919
19.304	33.1618
19.388	33.1679
19.472	33.1496
19.556	33.0006
19.64	32.6663
19.724	32.2114
19.808	31.7584
19.892	31.3979
19.976	31.158
20.06	31.0448
20.144	31.0577
20.228	31.1666
20.312	31.3078
20.396	31.4409
20.48	31.5876
20.564	31.8051
20.648	32.1044
20.732	32.4029
20.816	32.5522
20.9	32.4356
20.984	32.0427
21.068	31.4752
21.152	30.8874
21.236	30.42
21.32	30.1676
21.404	30.1733
21.488	30.4341
21.572	30.8911
21.656	31.4328
21.74	31.9198
21.824	32.2421
21.908	32.368
21.992	32.3406
22.076	32.2357
22.16	32.1045
22.244	31.9485
22.328	31.741
22.412	31.464
22.496	31.1383
22.58	30.8135
22.664	30.546
22.748	30.3749
22.832	30.3036
22.916	30.3083
23	30.3451
23.084	30.347
23.168	30.2367
23.252	29.9576
23.336	29.4846
23.42	28.872
23.504	28.2342
23.588	27.7048
23.672	27.3759
23.756	27.2593
23.84	27.3137
23.924	27.4558
24.008	27.6284
24.092	27.8435
24.176	28.1465
24.26	28.552
24.344	29.0005
24.428	29.3561
24.512	29.4028
24.596	29.0001
24.68	28.0883
24.764	26.6876
24.848	24.9358
24.932	23.1462
25.016	21.7026
25.1	20.8384
25.184	20.6063
25.268	20.8254
25.352	21.1396
25.436	21.0591
25.52	20.1163
25.604	18.0313
25.688	15.041
25.772	11.8925
25.856	9.511399
25.94	8.416097
26.024	8.604314
26.108	9.654588
26.192	11.5449
26.276	14.7385
26.36	20.1969
26.444	28.0955
26.528	37.2821
26.612	45.1457
26.696	48.8075
26.78	46.3655
26.864	38.0483
26.948	26.0252
27.028	13.9906

File: LPE454_t102_cm-1.asc
PE IR       SPECTRUM    SPECTRUM    ASCII       PEDS        1.60
  -1
LP05DC~1.ASC
17/05/19
22:45:21.00
17/05/19
22:45:21.00
tln
$LPE454_t0102$<tbV0>[7.8,10.4,8.0,0.0,27,1,0]
370
64

2002,4.07
MIRTGS : RIGHTBACK : INTERNAL 2
MIR : ON : INTERNAL 2
OPTKBR

0.200000
8
8.000000
FILLER
RATIO
SPECTRUM
UNLOCKED 256

DOUBLE
64
COMBINED
1
0
0

1.000000
RATIO

1
0
TRUE
51149
0
LEFT NOT FITTED RIGHT NOT FITTED 0
NONE
NONE
15600
12
4.427000
51148
TRUE
1 0 8 72 0 0 0 0

15798

#HDR
-1
-1
#GR
CM-1
%T
2.38419e-05
0.0
5000
-1.000000
4631
8
48.4326
-2.170038
#DATA
5000	0.127458
4984	0.142145
4968	0.099158
4952	0.224661
4936	0.362348
4920	0.302243
4904	0.311040
4888	0.260782
4872	0.144696
4856	0.356054
4840	0.462126
4824	0.080227
4808	0.211715
4792	0.381112
4776	0.118827
4760	0.628471
4744	0.354576
4728	0.343799
4712	1.001882
4696	0.648903
4680	1.005482
4664	-0.103187
4648	-0.664806
4632	-0.193023
4616	-1.668834
4600	-0.311064
4584	17.4522
4568	-1.273202
4552	-0.896835
4536	-0.345802
4520	-0.909233
4504	-0.812530
4488	0.231623
4472	-0.156545
4456	0.516319
4440	0.728464
4424	0.194025
4408	0.464200
4392	0.439667
4376	0.030922
4360	0.159072
4344	0.154519
4328	-0.017333
4312	0.304150
4296	-0.033640
4280	0.063371
4264	0.175881
4248	0.138092
4232	0.122308
4216	0.023746
4200	-0.035119
4184	-0.585627
4168	0.128841
4152	0.258040
4136	0.206732
4120	0.243687
4104	0.119686
4088	-0.278234
4072	0.054144
4056	1.809883
4040	0.507593
4024	0.039839
4008	-0.131273
3992	0.018739
3976	0.129127
3960	0.052809
3944	0.133275
3928	0.018477
3912	0.231027
3896	-0.083732
3880	0.120162
3864	-0.091624
3848	0.170588
3832	0.048565
3816	-0.043749
3800	0.018620
3784	0.033783
3768	0.127291
3752	-0.016880
3736	0.029540
3720	0.034666
3704	0.000691
3688	-0.010943
3672	0.116133
3656	0.050950
3640	0.069165
3624	0.131416
3608	0.024986
3592	0.060796
3576	-0.134992
3560	0.048565
3544	-0.034213
3528	0.008416
3512	-0.143694
3496	0.073838
3480	-0.030469
3464	-0.016427
3448	0.129771
3432	0.115180
3416	0.216841
3400	-0.021123
3384	-0.030088
3368	0.163698
3352	0.091099
3336	0.089001
3320	0.100135
3304	0.128293
3288	-0.048923
3272	-0.027060
3256	0.078582
3240	0.005626
3224	-0.015997
3208	-0.023007
3192	0.044274
3176	0.128674
3160	0.110387
3144	-0.039887
3128	-0.071692
3112	0.142025
3096	-0.014781
3080	0.098299
3064	0.139951
3048	0.044798
3032	-0.085020
3016	-0.006580
3000	-0.004124
2984	0.147080
2968	0.105404
2952	-0.099706
2936	-0.006222
2920	0.100731
2904	-0.017023
2888	0.059580
2872	0.066542
2856	0.052309
2840	-0.088024
2824	0.028443
2808	0.075674
2792	0.002121
2776	0.034904
2760	-0.005817
2744	0.071096
2728	0.093460
2712	0.040197
2696	-0.057220
2680	0.056982
2664	0.074648
2648	-0.023937
2632	-0.059604
2616	-0.020980
2600	0.131773
2584	-0.000309
2568	0.027179
2552	0.038242
2536	-0.024986
2520	-0.071144
2504	0.176286
2488	0.030326
2472	0.090765
2456	0.051927
2440	0.140070
2424	0.153112
2408	0.295782
2392	0.275540
2376	0.422143
2360	0.692820
2344	0.840091
2328	1.183915
2312	1.580357
2296	2.023029
2280	2.835559
2264	3.667783
2248	4.742908
2232	6.008863
2216	7.669329
2200	9.279799
2184	11.2895
2168	13.2864
2152	15.4657
2136	17.7756
2120	19.9924
2104	22.1427
2088	24.2118
2072	26.1128
2056	28.0706
2040	29.4667
2024	30.9822
2008	32.2828
1992	33.3997
1976	34.3758
1960	35.3041
1944	36.0737
1928	36.7228
1912	37.2482
1896	37.7301
1880	38.1157
1864	38.5151
1848	38.7551
1832	39.0021
1816	39.2535
1800	39.2952
1784	39.4326
1768	39.7755
1752	39.7395
1736	39.7253
1720	39.9803
1704	39.9817
1688	40.0604
1672	40.0256
1656	39.9613
1640	40.1551
1624	40.2348
1608	40.0901
1592	39.9951
1576	40.1829
1560	40.289
1544	40.0922
1528	40.1258
1512	40.1834
1496	40.2235
1480	40.209
1464	40.0634
1448	39.9737
1432	40.3269
1416	40.2789
1400	40.0566
1384	40.0711
1368	39.9768
1352	40.1683
1336	40.1832
1320	40.1173
1304	39.942
1288	40.0976
1272	39.9071
1256	39.8689
1240	39.7542
1224	39.8744
1208	39.8024
1192	39.8209
1176	39.6584
1160	39.854
1144	39.7393
1128	39.6464
1112	39.5461
1096	39.5389
1080	39.5515
1064	39.262
1048	39.3548
1032	39.4248
1016	39.3643
1000	38.9956
984	 38.8776
968	 38.942
952	 38.833
936	 38.9224
920	 38.4875
904	 38.324
888	 38.375
872	 38.5741
856	 37.9941
840	 37.6709
824	 37.466
808	 37.8081
792	 37.2225
776	 36.4428
760	 37.1684
744	 36.9812
728	 36.6806
712	 36.3221
696	 35.8855
680	 35.9977
664	 36.3816
648	 35.0627
632	 34.7026
616	 34.4809
600	 34.7867
584	 35.0816
568	 33.1855
552	 32.6711
536	 34.2466
520	 33.1857
504	 31.602
488	 31.6128
472	 30.6744
456	 32.3725
440	 30.4075
424	 27.7209
408	 29.4072
392	 20.2854
376	 43.9002
370	 13.9906

File: LPE454_t103.asc
PE IR       SPECTRUM    SPECTRUM    ASCII       PEDS        1.60
  -1
LP9FF7~1.ASC
17/05/19
22:49:58.00
17/05/19
22:50:24.00
tln
$LPE454_t0103$<tbV0>[5.2,10.4,8.0,0.0,27,1,0]
27.028
64

2002,4.07
MIRTGS : RIGHTBACK : INTERNAL 2
MIR : ON : INTERNAL 2
OPTKBR

0.200000
8
8.000000
FILLER
RATIO
SPECTRUM
UNLOCKED 256

DOUBLE
64
COMBINED
1
0
0

0.002000
RATIO

1
0
TRUE
51149
0
LEFT NOT FITTED RIGHT NOT FITTED 0
NONE
NONE
15600
12
4.427000
51148
TRUE
1 0 8 72 0 0 0 0

15798

#HDR
-1
-1
#GR
µM
%T
2.38419e-05
0.0
2.000000
0.002000
12515
8
65.7405
-3.335258
#DATA
2.000000	 0.240135
2.084000	 0.099809
2.168000	 -0.675158
2.252000	 0.225696
2.336000	 0.114808
2.420000	 -0.380867
2.504000	 -0.363936
2.588000	 0.090100
2.672000	 0.129967
2.756000	 0.164440
2.840000	 -0.013211
2.924000	 -0.121377
3.008000	 0.090175
3.092000	 -0.018745
3.176000	 0.025396
3.260000	 -0.110141
3.344000	 -0.013558
3.428000	 -0.042055
3.512000	 0.104654
3.596000	 -0.000960
3.680000	 0.117105
3.764000	 0.077890
3.848000	 0.069620
3.932000	 0.013080
4.016000	 0.019918
4.100000	 0.059003
4.184000	 0.182820
4.268000	 0.663839
4.352000	 1.467385
4.436000	 3.222877
4.520000	 6.457028
4.604000	 10.8449
4.688000	 16.1045
4.772000	 20.8896
4.856000	 25.0702
4.940000	 28.5996
5.024000	 30.975
5.108000	 33.139
5.192000	 34.18
5.276000	 35.3099
5.359999	 35.9138
5.444000	 36.6868
5.528000	 36.725
5.612000	 37.3204
5.696000	 37.2926
5.780000	 37.5486
5.864000	 37.8285
5.948000	 37.5838
6.032000	 37.9242
6.116000	 37.8602
6.200000	 37.6214
6.284000	 38.1212
6.368000	 37.9537
6.452000	 37.7264
6.536000	 38.2103
6.620000	 38.1019
6.704000	 37.7601
6.788000	 38.2035
6.872000	 38.3757
6.956000	 37.7016
7.040000	 37.8036
7.124000	 38.2375
7.208000	 38.1756
7.292000	 37.9206
7.376000	 37.8139
7.460000	 38.1048
7.544000	 38.2779
7.628000	 37.8244
7.712000	 37.6915
7.796000	 37.8536
7.880000	 38.3023
7.964000	 37.9747
8.048000	 37.6325
8.132000	 37.525
8.216000	 37.8582
8.300000	 38.0773
8.384000	 38.0618
8.468000	 37.5233
8.552000	 37.1005
8.635999	 37.4126
8.719999	 37.7626
8.804000	 37.9273
8.888000	 37.6866
8.972000	 37.4389
9.056000	 37.1409
9.140000	 37.089
9.224000	 37.3415
9.308000	 37.7315
9.391999	 37.6111
9.475999	 37.3073
9.560000	 36.7048
9.644000	 36.762
9.728000	 36.8998
9.812000	 37.2569
9.896000	 37.5766
9.980000	 37.3556
10.064	37.104
10.148	36.604
10.232	36.319
10.316	36.2442
10.4	36.5573
10.484	36.7044
10.568	37.032
10.652	37.1271
10.736	36.8812
10.82	36.5379
10.904	36.0023
10.988	35.8079
11.072	35.7102
11.156	35.8992
11.24	36.4854
11.324	36.6984
11.408	36.6216
11.492	36.3164
11.576	36.128
11.66	35.6471
11.744	35.3782
11.828	35.0727
11.912	34.9886
11.996	35.2485
12.08	35.5867
12.164	35.8831
12.248	35.9038
12.332	35.9317
12.416	35.7812
12.5	35.4812
12.584	35.0766
12.668	34.6021
12.752	34.3458
12.836	34.3221
12.92	34.513
13.004	34.5969
13.088	34.7096
13.172	34.934
13.256	35.2295
13.34	35.4147
13.424	35.089
13.508	34.6493
13.592	34.4801
13.676	34.2846
13.76	34.1082
13.844	33.9349
13.928	33.7035
14.012	33.5486
14.096	33.3128
14.18	33.3141
14.264	33.5834
14.348	33.709
14.432	33.8779
14.516	34.1318
14.6	34.1902
14.684	34.11
14.768	34.0437
14.852	33.8736
14.936	33.5707
15.02	33.3241
15.104	33.1192
15.188	32.7836
15.272	32.4341
15.356	32.2524
15.44	32.1951
15.524	32.2877
15.608	32.5068
15.692	32.6024
15.776	32.5452
15.86	32.5238
15.944	32.6232
16.028	32.8302
16.112	33.0392
16.196	33.0984
16.28	32.9544
16.364	32.664
16.448	32.3963
16.532	32.3129
16.616	32.3027
16.7	32.1191
16.784	31.7827
16.868	31.5048
16.952	31.3531
17.036	31.2589
17.12	31.1843
17.204	31.1153
17.288	31.0436
17.372	31.0294
17.456	31.1183
17.54	31.2057
17.624	31.1481
17.708	30.9535
17.792	30.7634
17.876	30.7188
17.96	30.8382
18.044	30.9685
18.128	30.9373
18.212	30.8371
18.296	30.9749
18.38	31.4179
18.464	31.8191
18.548	31.8359
18.632	31.5042
18.716	31.0757
18.8	30.6194
18.884	29.9789
18.968	29.0694
19.052	28.0695
19.136	27.3332
19.22	27.1812
19.304	27.7362
19.388	28.8434
19.472	30.1053
19.556	31.0229
19.64	31.2345
19.724	30.7116
19.808	29.7747
19.892	28.9051
19.976	28.4772
20.06	28.5608
20.144	28.9466
20.228	29.3357
20.312	29.5297
20.396	29.5099
20.48	29.385
20.564	29.2724
20.648	29.2095
20.732	29.1427
20.816	29.0078
20.9	28.7978
20.984	28.561
21.068	28.3479
21.152	28.1536
21.236	27.9393
21.32	27.6912
21.404	27.4577
21.488	27.3159
21.572	27.2956
21.656	27.3532
21.74	27.3975
21.824	27.3652
21.908	27.2787
21.992	27.2354
22.076	27.3551
22.16	27.7091
22.244	28.2602
22.328	28.868
22.412	29.3394
22.496	29.5073
22.58	29.3217
22.664	28.8734
22.748	28.3608
22.832	27.9597
22.916	27.7479
23	27.6317
23.084	27.438
23.168	27.0066
23.252	26.3144
23.336	25.5086
23.42	24.838
23.504	24.5094
23.588	24.5631
23.672	24.8553
23.756	25.1125
23.84	25.1181
23.924	24.83
24.008	24.3905
24.092	24.0422
24.176	23.9941
24.26	24.3542
24.344	25.1209
24.428	26.2133
24.512	27.5314
24.596	29.0016
24.68	30.5505
24.764	32.0542
24.848	33.4356
24.932	34.4818
25.016	34.8504
25.1	34.2014
25.184	32.4574
25.268	29.927
25.352	27.1742
25.436	24.8211
25.52	23.296
25.604	22.7217
25.688	22.9881
25.772	23.7819
25.856	24.6745
25.94	25.1852
26.024	24.8272
26.108	23.2656
26.192	20.576
26.276	17.4369
26.36	14.9756
26.444	14.7736
26.528	18.2108
26.612	25.9953
26.696	37.3711
26.78	49.9845
26.864	60.4461
26.948	65.5883
27.028	64.0659

File: LPE454_t103_cm-1.asc
PE IR       SPECTRUM    SPECTRUM    ASCII       PEDS        1.60
  -1
LP06DC~1.ASC
17/05/19
22:49:58.00
17/05/19
22:49:58.00
tln
$LPE454_t0103$<tbV0>[5.2,10.4,8.0,0.0,27,1,0]
370
64

2002,4.07
MIRTGS : RIGHTBACK : INTERNAL 2
MIR : ON : INTERNAL 2
OPTKBR

0.200000
8
8.000000
FILLER
RATIO
SPECTRUM
UNLOCKED 256

DOUBLE
64
COMBINED
1
0
0

1.000000
RATIO

1
0
TRUE
51149
0
LEFT NOT FITTED RIGHT NOT FITTED 0
NONE
NONE
15600
12
4.427000
51148
TRUE
1 0 8 72 0 0 0 0

15798

#HDR
-1
-1
#GR
CM-1
%T
2.38419e-05
0.0
5000
-1.000000
4631
8
65.6968
-3.761553
#DATA
5000	0.240135
4984	0.106549
4968	0.504350
4952	0.333356
4936	-0.043296
4920	-0.012326
4904	0.186181
4888	0.290322
4872	0.446891
4856	0.632691
4840	-0.210189
4824	-0.216341
4808	0.021195
4792	-0.164651
4776	0.158858
4760	0.177264
4744	0.067067
4728	0.253343
4712	0.444316
4696	-0.074744
4680	0.088500
4664	-0.070095
4648	0.289034
4632	0.620555
4616	-0.630879
4600	6.537938
4584	2.527618
4568	-1.201915
4552	-0.038003
4536	-0.457167
4520	-0.128293
4504	-0.125098
4488	0.108718
4472	0.157809
4456	0.039410
4440	0.184893
4424	0.359129
4408	0.311756
4392	0.364828
4376	0.161433
4360	0.222277
4344	0.076699
4328	0.390720
4312	0.065898
4296	0.088453
4280	0.100874
4264	0.133061
4248	0.349497
4232	0.140213
4216	0.256657
4200	0.111913
4184	-0.513100
4168	-0.279736
4152	-0.113105
4136	-0.344920
4120	-0.193262
4104	0.369215
4088	0.317335
4072	0.479602
4056	2.234220
4040	0.429725
4024	-0.180697
4008	0.201606
3992	-0.355029
3976	-0.284910
3960	-0.015616
3944	0.044035
3928	0.055837
3912	0.146460
3896	-0.158858
3880	-0.125026
3864	0.089883
3848	-0.120210
3832	0.153136
3816	0.095582
3800	0.190281
3784	0.104117
3768	-0.187373
3752	0.114989
3736	0.011301
3720	0.013780
3704	-0.035619
3688	0.037121
3672	0.126600
3656	-0.017261
3640	-0.008749
3624	0.151467
3608	-0.039649
3592	-0.125193
3576	0.015878
3560	0.021004
3544	0.092434
3528	0.054240
3512	0.124788
3496	0.135374
3480	-0.106668
3464	0.019335
3448	0.071382
3432	0.105595
3416	0.006842
3400	0.131392
3384	-0.002002
3368	0.057673
3352	0.010561
3336	0.147461
3320	0.038671
3304	0.078153
3288	0.057435
3272	-0.023531
3256	0.021576
3240	-0.015449
3224	0.017690
3208	0.020456
3192	0.056815
3176	0.153613
3160	0.016641
3144	0.096440
3128	0.060868
3112	0.077104
3096	-0.089597
3080	0.012969
3064	-0.049185
3048	0.052952
3032	0.046372
3016	0.138068
3000	0.048375
2984	0.034976
2968	-0.034427
2952	-0.036621
2936	-0.020456
2920	-0.048470
2904	0.058913
2888	0.100016
2872	-0.021958
2856	0.064659
2840	0.014758
2824	-0.045943
2808	0.003409
2792	0.042533
2776	0.006937
2760	0.043225
2744	0.127243
2728	0.012922
2712	0.044775
2696	0.099992
2680	0.052452
2664	0.138998
2648	-0.074958
2632	0.022292
2616	0.104594
2600	0.069165
2584	0.092005
2568	0.018095
2552	0.041365
2536	-0.002121
2520	0.051474
2504	-0.132679
2488	-0.048422
2472	0.083589
2456	0.051903
2440	0.058436
2424	0.207877
2408	0.060653
2392	0.141048
2376	0.270152
2360	0.439548
2344	0.669836
2328	0.860285
2312	1.032638
2296	1.515483
2280	2.165007
2264	2.730298
2248	3.648638
2232	4.738235
2216	6.150054
2200	7.562017
2184	9.430885
2168	11.3121
2152	13.5108
2136	15.6824
2120	17.5697
2104	19.7968
2088	21.8348
2072	23.7314
2056	25.4387
2040	27.0594
2024	28.6296
2008	29.82
1992	30.8911
1976	31.8603
1960	33.0253
1944	33.6497
1928	34.0714
1912	34.7267
1896	35.2953
1880	35.592
1864	35.9477
1848	36.4269
1832	36.7769
1816	36.7099
1800	36.8181
1784	37.2707
1768	37.3335
1752	37.3528
1736	37.4787
1720	37.611
1704	37.8157
1688	37.5601
1672	37.5842
1656	37.9399
1640	38.0854
1624	37.5524
1608	37.7516
1592	38.1014
1576	38.0136
1560	37.782
1544	37.8853
1528	38.2509
1512	38.1306
1496	37.7707
1480	37.9267
1464	38.3566
1448	38.2333
1432	37.8135
1416	37.8296
1400	38.3351
1384	38.1591
1368	37.7833
1352	37.8611
1336	38.216
1320	38.1353
1304	37.6513
1288	37.7954
1272	38.2875
1256	37.9794
1240	37.5451
1224	37.5864
1208	38.0666
1192	38.0364
1176	37.2983
1160	37.3694
1144	37.8149
1128	37.7869
1112	37.3303
1096	37.0654
1080	37.4799
1064	37.5883
1048	36.7731
1032	36.8219
1016	37.4463
1000	37.3034
984	 36.5345
968	 36.2752
952	 36.7445
936	 37.0173
920	 36.1813
904	 35.7204
888	 36.5812
872	 36.4033
856	 35.5391
840	 34.9758
824	 35.8124
808	 35.8901
792	 34.8241
776	 34.4297
760	 34.8942
744	 34.9858
728	 34.1475
712	 33.462
696	 33.733
680	 34.0923
664	 33.234
648	 32.1956
632	 32.52
616	 33.0577
600	 32.2196
584	 31.1817
568	 31.1757
552	 30.9521
536	 31.3788
520	 27.2132
504	 29.395
488	 29.3666
472	 28.0703
456	 27.2584
440	 28.4826
424	 24.5559
408	 27.4948
392	 23.4245
376	 24.1648
370	 64.0659

File: LPE454_t104.asc
PE IR       SPECTRUM    SPECTRUM    ASCII       PEDS        1.60
  -1
LP9308~1.ASC
17/05/19
22:54:34.00
17/05/19
22:55:00.00
tln
$LPE454_t0104$<tbV0>[2.6,10.4,8.0,0.0,27,1,0]
27.028
64

2002,4.07
MIRTGS : RIGHTBACK : INTERNAL 2
MIR : ON : INTERNAL 2
OPTKBR

0.200000
8
8.000000
FILLER
RATIO
SPECTRUM
UNLOCKED 256

DOUBLE
64
COMBINED
1
0
0

0.002000
RATIO

1
0
TRUE
51149
0
LEFT NOT FITTED RIGHT NOT FITTED 0
NONE
NONE
15600
12
4.427000
51148
TRUE
1 0 8 72 0 0 0 0

15798

#HDR
-1
-1
#GR
µM
%T
2.38419e-05
0.0
2.000000
0.002000
12515
8
40.5442
-53.4773
#DATA
2.000000	 0.268959
2.084000	 0.488653
2.168000	 0.431938
2.252000	 -0.202201
2.336000	 0.114576
2.420000	 -0.045383
2.504000	 0.209547
2.588000	 0.043527
2.672000	 0.056524
2.756000	 0.136855
2.840000	 0.204706
2.924000	 0.119891
3.008000	 -0.011145
3.092000	 0.013712
3.176000	 -0.042346
3.260000	 0.003453
3.344000	 -0.126913
3.428000	 0.071954
3.512000	 -0.039464
3.596000	 0.062821
3.680000	 -0.055790
3.764000	 0.104864
3.848000	 0.056979
3.932000	 0.110124
4.016000	 0.140436
4.100000	 0.020755
4.184000	 0.146325
4.268000	 0.381035
4.352000	 1.132223
4.436000	 2.786752
4.520000	 5.688421
4.604000	 9.854914
4.688000	 14.6583
4.772000	 19.5346
4.856000	 23.7368
4.940000	 26.9184
5.024000	 29.5558
5.108000	 31.1772
5.192000	 32.8256
5.276000	 33.7152
5.359999	 34.4791
5.444000	 34.8193
5.528000	 35.2012
5.612000	 35.485
5.696000	 35.8196
5.780000	 36.0241
5.864000	 36.0786
5.948000	 36.3613
6.032000	 36.2752
6.116000	 36.4066
6.200000	 36.392
6.284000	 36.3521
6.368000	 36.4697
6.452000	 36.3229
6.536000	 36.3873
6.620000	 36.5777
6.704000	 36.4285
6.788000	 36.4351
6.872000	 36.3628
6.956000	 36.5102
7.040000	 36.4308
7.124000	 36.2989
7.208000	 36.5558
7.292000	 36.4583
7.376000	 36.2581
7.460000	 36.3386
7.544000	 36.5203
7.628000	 36.3143
7.712000	 36.3579
7.796000	 36.2411
7.880000	 36.4247
7.964000	 36.539
8.048000	 36.192
8.132000	 36.1062
8.216000	 36.1855
8.300000	 36.265
8.384000	 36.3706
8.468000	 36.0508
8.552000	 35.9072
8.635999	 36.0172
8.719999	 36.0762
8.804000	 36.0645
8.888000	 36.054
8.972000	 35.993
9.056000	 35.939
9.140000	 35.9461
9.224000	 35.8587
9.308000	 36.1574
9.391999	 35.9795
9.475999	 35.7213
9.560000	 35.2889
9.644000	 35.3973
9.728000	 35.5893
9.812000	 35.7424
9.896000	 35.678
9.980000	 35.6201
10.064	35.2393
10.148	35.033
10.232	34.9677
10.316	35.004
10.4	35.2617
10.484	35.0218
10.568	35.3085
10.652	35.0914
10.736	34.9181
10.82	34.6651
10.904	34.6046
10.988	34.3208
11.072	34.45
11.156	34.9139
11.24	34.7493
11.324	34.4938
11.408	34.2883
11.492	33.9444
11.576	33.9481
11.66	33.6839
11.744	33.4978
11.828	33.6364
11.912	33.8161
11.996	34.0139
12.08	34.0982
12.164	33.9079
12.248	33.7556
12.332	33.5896
12.416	33.3861
12.5	32.9919
12.584	32.6917
12.668	32.7519
12.752	32.8133
12.836	32.9556
12.92	33.271
13.004	33.5273
13.088	33.3899
13.172	33.0918
13.256	32.9671
13.34	32.9339
13.424	32.6546
13.508	32.1083
13.592	31.8475
13.676	31.6232
13.76	31.4409
13.844	31.6269
13.928	31.922
14.012	32.224
14.096	32.3419
14.18	32.3071
14.264	32.3141
14.348	32.2149
14.432	31.939
14.516	31.6655
14.6	31.4936
14.684	31.328
14.768	31.2781
14.852	31.2728
14.936	31.1088
15.02	30.8497
15.104	30.6457
15.188	30.6813
15.272	30.9504
15.356	31.1445
15.44	31.0807
15.524	30.956
15.608	30.9899
15.692	31.0439
15.776	30.9058
15.86	30.6676
15.944	30.511
16.028	30.3789
16.112	30.147
16.196	29.9245
16.28	29.8819
16.364	29.9241
16.448	29.8586
16.532	29.7134
16.616	29.5906
16.7	29.5073
16.784	29.5627
16.868	29.8221
16.952	29.9826
17.036	29.7011
17.12	29.2019
17.204	29.0515
17.288	29.4436
17.372	29.9706
17.456	30.0821
17.54	29.6388
17.624	28.9707
17.708	28.4875
17.792	28.3649
17.876	28.5099
17.96	28.649
18.044	28.4948
18.128	27.9991
18.212	27.4566
18.296	27.2222
18.38	27.3665
18.464	27.7271
18.548	28.1714
18.632	28.6216
18.716	28.9359
18.8	28.9914
18.884	28.8962
18.968	28.8948
19.052	29.0129
19.136	28.9787
19.22	28.5582
19.304	27.8794
19.388	27.316
19.472	27.1119
19.556	27.1818
19.64	27.2319
19.724	27.0198
19.808	26.5325
19.892	26.004
19.976	25.7261
20.06	25.7889
20.144	25.9943
20.228	26.044
20.312	25.8171
20.396	25.4735
20.48	25.2936
20.564	25.4373
20.648	25.839
20.732	26.2976
20.816	26.6265
20.9	26.7517
20.984	26.7142
21.068	26.6073
21.152	26.5043
21.236	26.4346
21.32	26.4069
21.404	26.4439
21.488	26.5902
21.572	26.8627
21.656	27.202
21.74	27.4757
21.824	27.5485
21.908	27.3845
21.992	27.0789
22.076	26.7951
22.16	26.6659
22.244	26.7159
22.328	26.8584
22.412	26.9584
22.496	26.9063
22.58	26.6663
22.664	26.2762
22.748	25.8245
22.832	25.3963
22.916	25.0651
23	24.866
23.084	24.7968
23.168	24.8268
23.252	24.9128
23.336	25.0044
23.42	25.0548
23.504	25.0385
23.588	24.9404
23.672	24.7592
23.756	24.5327
23.84	24.3208
23.924	24.2024
24.008	24.2811
24.092	24.6709
24.176	25.4222
24.26	26.51
24.344	27.8014
24.428	29.0823
24.512	30.1021
24.596	30.6756
24.68	30.737
24.764	30.3782
24.848	29.7419
24.932	29.1516
25.016	29.0286
25.1	29.6253
25.184	31.0472
25.268	33.1984
25.352	35.8184
25.436	38.3747
25.52	40.1463
25.604	40.4404
25.688	38.8675
25.772	35.6447
25.856	31.5337
25.94	27.2051
26.024	23.0677
26.108	19.2091
26.192	16.076
26.276	14.3251
26.36	14.9241
26.444	17.4636
26.528	19.9372
26.612	19.0256
26.696	11.9423
26.78	-2.075329
26.864	-20.6967
26.948	-39.499
27.028	-53.4773