Folder: Masteroppgave/Bakgrunnsmateriale/MATLAB/FTIR/ftir_data/LPE454/Mapping_121 (part 21)

File: LPE454_t119_cm-1.asc
PE IR       SPECTRUM    SPECTRUM    ASCII       PEDS        1.60
  -1
LP0C58~1.ASC
17/05/20
00:24:25.00
17/05/20
00:24:25.00
tln
$LPE454_t0119$<tbV0>[-7.8,13.0,8.0,0.0,27,1,0]
370
64

2002,4.07
MIRTGS : RIGHTBACK : INTERNAL 2
MIR : ON : INTERNAL 2
OPTKBR

0.200000
8
8.000000
FILLER
RATIO
SPECTRUM
UNLOCKED 256

DOUBLE
64
COMBINED
1
0
0

1.000000
RATIO

1
0
TRUE
51149
0
LEFT NOT FITTED RIGHT NOT FITTED 0
NONE
NONE
15600
12
4.427000
51148
TRUE
1 0 8 72 0 0 0 0

15798

#HDR
-1
-1
#GR
CM-1
%T
2.38419e-05
0.0
5000
-1.000000
4631
8
40.3521
-3.536438
#DATA
5000	0.004339
4984	0.385785
4968	0.145077
4952	0.642299
4936	0.144886
4920	0.451016
4904	0.168609
4888	0.801897
4872	0.388336
4856	0.344157
4840	0.432634
4824	0.503230
4808	0.251674
4792	0.136065
4776	-0.124692
4760	0.079798
4744	0.293540
4728	0.446438
4712	0.821971
4696	0.823235
4680	0.723767
4664	0.192022
4648	-0.883412
4632	-1.923274
4616	-2.792620
4600	-3.080010
4584	10.1761
4568	7.329702
4552	0.277900
4536	-0.120830
4520	-0.926685
4504	-0.477957
4488	-0.733423
4472	0.237488
4456	0.553703
4440	0.984406
4424	0.621247
4408	0.412154
4392	0.432825
4376	0.442886
4360	0.168275
4344	-0.107169
4328	-0.150966
4312	0.129747
4296	-0.159049
4280	0.168466
4264	0.295472
4248	0.340151
4232	0.217938
4216	0.345325
4200	0.105977
4184	-0.058031
4168	0.564599
4152	-0.015807
4136	-0.285935
4120	0.400090
4104	0.144624
4088	0.780725
4072	-0.153517
4056	0.014925
4040	0.204277
4024	-0.100159
4008	0.048899
3992	0.363755
3976	0.245571
3960	0.056290
3944	0.106024
3928	0.086736
3912	0.091910
3896	0.052833
3880	-0.267648
3864	0.203466
3848	-0.045371
3832	-0.119662
3816	0.143814
3800	0.226736
3784	0.082349
3768	0.240230
3752	0.094771
3736	0.015449
3720	0.193810
3704	-0.088119
3688	-0.103592
3672	0.030899
3656	0.055789
3640	-0.017213
3624	0.110435
3608	-0.037145
3592	0.096607
3576	-0.050544
3560	0.020146
3544	0.076270
3528	0.093984
3512	0.113797
3496	-0.044107
3480	0.126051
3464	0.072598
3448	-0.035834
3432	-0.014376
3416	0.001168
3400	-0.002264
3384	-0.035095
3368	-0.019407
3352	0.120258
3336	0.015115
3320	0.009226
3304	0.118947
3288	0.092411
3272	0.116205
3256	0.088024
3240	0.117945
3224	-0.074505
3208	0.071907
3192	0.055074
3176	0.052189
3160	-0.031328
3144	0.149679
3128	0.179362
3112	-0.017261
3096	-0.082874
3080	0.001239
3064	0.104856
3048	0.018024
3032	0.034117
3016	0.038194
3000	0.061821
2984	-0.093460
2968	0.138688
2952	0.034713
2936	-0.073838
2920	0.028586
2904	-0.046038
2888	0.038290
2872	0.063300
2856	0.176978
2840	0.056934
2824	-0.024485
2808	-0.016188
2792	0.059700
2776	0.060224
2760	0.035881
2744	0.047087
2728	0.054478
2712	0.078916
2696	-0.009274
2680	0.108385
2664	0.039529
2648	0.043606
2632	0.038003
2616	0.038409
2600	0.044059
2584	0.035214
2568	0.035405
2552	0.078392
2536	0.042915
2520	0.079274
2504	0.238776
2488	0.056052
2472	0.026035
2456	-0.011324
2440	-0.009679
2424	-0.082850
2408	0.123071
2392	0.032377
2376	0.063633
2360	0.255918
2344	0.298285
2328	0.426077
2312	0.626754
2296	0.846076
2280	1.285791
2264	1.814961
2248	2.443647
2232	3.081488
2216	4.224753
2200	5.266523
2184	6.477499
2168	7.843422
2152	9.496521
2136	11.0556
2120	12.7471
2104	14.4814
2088	15.9947
2072	17.573
2056	19.066
2040	20.3763
2024	21.5756
2008	22.6443
1992	23.544
1976	24.698
1960	25.3136
1944	26.0431
1928	26.7289
1912	27.435
1896	27.7889
1880	28.2122
1864	28.618
1848	28.9874
1832	29.2405
1816	29.5263
1800	29.7938
1784	29.918
1768	29.9735
1752	30.2227
1736	30.307
1720	30.3139
1704	30.5102
1688	30.6635
1672	30.8876
1656	30.6355
1640	30.7099
1624	30.8367
1608	30.874
1592	30.7294
1576	30.943
1560	31.059
1544	30.9696
1528	30.8933
1512	31.091
1496	31.2157
1480	31.1353
1464	30.971
1448	31.2235
1432	31.0775
1416	31.0698
1400	30.9576
1384	31.2371
1368	31.2745
1352	31.0281
1336	30.984
1320	31.3753
1304	31.1826
1288	31.0576
1272	31.1705
1256	31.339
1240	31.1207
1224	30.9453
1208	31.1696
1192	31.3134
1176	31.0283
1160	30.7963
1144	31.2293
1128	31.3082
1112	30.8315
1096	30.5609
1080	31.0006
1064	31.0565
1048	30.6078
1032	30.6541
1016	31.1216
1000	31.0067
984	 30.482
968	 30.5614
952	 30.6535
936	 30.4975
920	 29.8563
904	 30.1823
888	 30.4714
872	 30.0733
856	 29.7302
840	 29.557
824	 29.8929
808	 29.5837
792	 29.0821
776	 29.2329
760	 29.1171
744	 29.0781
728	 28.1617
712	 28.739
696	 28.6781
680	 27.7545
664	 27.6749
648	 28.0063
632	 27.8139
616	 26.9198
600	 26.7092
584	 26.7274
568	 26.4182
552	 26.0819
536	 25.4974
520	 24.8783
504	 25.9205
488	 24.6899
472	 22.6891
456	 25.551
440	 23.5539
424	 25.8357
408	 21.0676
392	 38.8123
376	 3.426027
370	 8.616161

File: LPE454_t120.asc
PE IR       SPECTRUM    SPECTRUM    ASCII       PEDS        1.60
  -1
LP93F3~1.ASC
17/05/20
00:29:02.00
17/05/20
00:29:29.00
tln
$LPE454_t0120$<tbV0>[-10.4,13.0,8.0,0.0,27,1,0]
27.028
64

2002,4.07
MIRTGS : RIGHTBACK : INTERNAL 2
MIR : ON : INTERNAL 2
OPTKBR

0.200000
8
8.000000
FILLER
RATIO
SPECTRUM
UNLOCKED 256

DOUBLE
64
COMBINED
1
0
0

0.002000
RATIO

1
0
TRUE
51149
0
LEFT NOT FITTED RIGHT NOT FITTED 0
NONE
NONE
15600
12
4.427000
51148
TRUE
1 0 8 72 0 0 0 0

15798

#HDR
-1
-1
#GR
µM
%T
2.38419e-05
0.0
2.000000
0.002000
12515
8
32.0677
-22.469
#DATA
2.000000	 0.463438
2.084000	 -0.065931
2.168000	 0.512871
2.252000	 0.145994
2.336000	 0.372082
2.420000	 1.632389
2.504000	 -0.232679
2.588000	 0.126095
2.672000	 0.047389
2.756000	 0.092491
2.840000	 0.062204
2.924000	 0.083224
3.008000	 0.062425
3.092000	 0.077881
3.176000	 -0.045184
3.260000	 -0.156808
3.344000	 0.232632
3.428000	 0.017201
3.512000	 0.049887
3.596000	 0.018919
3.680000	 0.006931
3.764000	 -0.001475
3.848000	 -0.016630
3.932000	 0.041576
4.016000	 -0.064576
4.100000	 0.065904
4.184000	 0.120104
4.268000	 0.228633
4.352000	 0.786996
4.436000	 1.946168
4.520000	 4.109703
4.604000	 7.345839
4.688000	 11.3476
4.772000	 15.4106
4.856000	 19.1402
4.940000	 22.1067
5.024000	 24.3888
5.108000	 26.1812
5.192000	 27.7787
5.276000	 28.5695
5.359999	 29.5101
5.444000	 29.9334
5.528000	 30.5486
5.612000	 30.6834
5.696000	 31.1197
5.780000	 31.1514
5.864000	 31.2404
5.948000	 31.4156
6.032000	 31.5331
6.116000	 31.7143
6.200000	 31.6001
6.284000	 31.7725
6.368000	 31.8004
6.452000	 31.5777
6.536000	 31.9394
6.620000	 31.8572
6.704000	 31.7958
6.788000	 32.0053
6.872000	 31.827
6.956000	 31.7593
7.040000	 31.8699
7.124000	 32.0198
7.208000	 31.8219
7.292000	 31.7006
7.376000	 31.8566
7.460000	 32.0519
7.544000	 31.7891
7.628000	 31.6681
7.712000	 31.9237
7.796000	 32.0218
7.880000	 31.7987
7.964000	 31.6191
8.048000	 31.794
8.132000	 31.7707
8.216000	 31.7788
8.300000	 31.5815
8.384000	 31.4754
8.468000	 31.6368
8.552000	 31.8449
8.635999	 31.7708
8.719999	 31.4427
8.804000	 31.1902
8.888000	 31.4111
8.972000	 31.4989
9.056000	 31.534
9.140000	 31.5467
9.224000	 31.2317
9.308000	 30.9928
9.391999	 31.0578
9.475999	 31.2718
9.560000	 31.2521
9.644000	 31.3099
9.728000	 30.893
9.812000	 30.7011
9.896000	 30.7207
9.980000	 30.7751
10.064	30.9681
10.148	31.1001
10.232	30.8483
10.316	30.5581
10.4	30.4406
10.484	30.3211
10.568	30.0991
10.652	30.5375
10.736	30.7051
10.82	30.5783
10.904	30.5041
10.988	30.1637
11.072	29.8153
11.156	29.8724
11.24	29.7958
11.324	29.6929
11.408	30.0234
11.492	30.081
11.576	30.0617
11.66	30.0584
11.744	29.7637
11.828	29.4438
11.912	29.1717
11.996	29.0014
12.08	28.8796
12.164	29.0593
12.248	29.2875
12.332	29.5367
12.416	29.6005
12.5	29.2225
12.584	29.1344
12.668	28.9839
12.752	28.683
12.836	28.5505
12.92	28.3745
13.004	28.4165
13.088	28.4553
13.172	28.4546
13.256	28.6765
13.34	28.8572
13.424	28.681
13.508	28.4387
13.592	28.1414
13.676	27.975
13.76	28.0102
13.844	28.0417
13.928	27.8697
14.012	27.6171
14.096	27.5313
14.18	27.5956
14.264	27.6844
14.348	27.7194
14.432	27.7274
14.516	27.7173
14.6	27.7233
14.684	27.7002
14.768	27.5856
14.852	27.4558
14.936	27.3214
15.02	27.1138
15.104	26.8795
15.188	26.7119
15.272	26.5936
15.356	26.5487
15.44	26.6416
15.524	26.7681
15.608	26.7703
15.692	26.6361
15.776	26.529
15.86	26.5891
15.944	26.7067
16.028	26.7328
16.112	26.6954
16.196	26.5957
16.28	26.3667
16.364	26.0708
16.448	25.8419
16.532	25.7254
16.616	25.6841
16.7	25.6393
16.784	25.5416
16.868	25.4412
16.952	25.3918
17.036	25.3747
17.12	25.3904
17.204	25.4475
17.288	25.4687
17.372	25.4353
17.456	25.4983
17.54	25.7303
17.624	25.9461
17.708	25.9607
17.792	25.8511
17.876	25.823
17.96	25.8915
18.044	25.8469
18.128	25.5113
18.212	24.9838
18.296	24.5587
18.38	24.4162
18.464	24.4696
18.548	24.5116
18.632	24.4249
18.716	24.2374
18.8	24.0449
18.884	23.9393
18.968	23.9721
19.052	24.1096
19.136	24.2424
19.22	24.2714
19.304	24.1983
19.388	24.1147
19.472	24.1016
19.556	24.1481
19.64	24.1787
19.724	24.1441
19.808	24.0745
19.892	24.0487
19.976	24.1154
20.06	24.2531
20.144	24.4046
20.228	24.5101
20.312	24.4963
20.396	24.2636
20.48	23.7726
20.564	23.1303
20.648	22.58
20.732	22.3346
20.816	22.4218
20.9	22.6732
20.984	22.8932
21.068	23.0279
21.152	23.1766
21.236	23.458
21.32	23.8689
21.404	24.2507
21.488	24.3793
21.572	24.1058
21.656	23.434
21.74	22.5034
21.824	21.5062
21.908	20.6002
21.992	19.8767
22.076	19.3872
22.16	19.1751
22.244	19.273
22.328	19.652
22.412	20.1958
22.496	20.7014
22.58	20.9935
22.664	21.0119
22.748	20.8343
22.832	20.5918
22.916	20.3928
23	20.2395
23.084	20.071
23.168	19.8136
23.252	19.452
23.336	19.0549
23.42	18.7226
23.504	18.5324
23.588	18.4853
23.672	18.5002
23.756	18.4391
23.84	18.1863
23.924	17.698
24.008	17.0667
24.092	16.5264
24.176	16.3282
24.26	16.6955
24.344	17.7055
24.428	19.2283
24.512	21.0118
24.596	22.8181
24.68	24.4532
24.764	25.7675
24.848	26.7197
24.932	27.2957
25.016	27.4747
25.1	27.262
25.184	26.6319
25.268	25.5773
25.352	24.1785
25.436	22.5901
25.52	20.9421
25.604	19.2165
25.688	17.232
25.772	14.5847
25.856	10.7569
25.94	5.462996
26.024	-1.192462
26.108	-8.656970
26.192	-15.7347
26.276	-20.8539
26.36	-22.4399
26.444	-19.7964
26.528	-13.3801
26.612	-4.581035
26.696	4.867536
26.78	13.4585
26.864	20.4605
26.948	25.8864
27.028	29.8731

File: LPE454_t120_cm-1.asc
PE IR       SPECTRUM    SPECTRUM    ASCII       PEDS        1.60
  -1
LP03D7~1.ASC
17/05/20
00:29:02.00
17/05/20
00:29:02.00
tln
$LPE454_t0120$<tbV0>[-10.4,13.0,8.0,0.0,27,1,0]
370
64

2002,4.07
MIRTGS : RIGHTBACK : INTERNAL 2
MIR : ON : INTERNAL 2
OPTKBR

0.200000
8
8.000000
FILLER
RATIO
SPECTRUM
UNLOCKED 256

DOUBLE
64
COMBINED
1
0
0

1.000000
RATIO

1
0
TRUE
51149
0
LEFT NOT FITTED RIGHT NOT FITTED 0
NONE
NONE
15600
12
4.427000
51148
TRUE
1 0 8 72 0 0 0 0

15798

#HDR
-1
-1
#GR
CM-1
%T
2.38419e-05
0.0
5000
-1.000000
4631
8
32.0673
-22.1326
#DATA
5000	0.463438
4984	-0.093507
4968	0.303125
4952	0.370287
4936	-0.117039
4920	-0.001716
4904	0.040292
4888	0.170826
4872	-0.104832
4856	0.038242
4840	0.011420
4824	0.292921
4808	0.147891
4792	-0.058650
4776	0.220751
4760	0.398755
4744	0.376248
4728	0.303006
4712	0.364017
4696	0.012803
4680	0.151085
4664	0.343966
4648	0.709056
4632	0.381517
4616	0.046825
4600	1.251339
4584	5.340385
4568	1.087808
4552	-0.979566
4536	0.174999
4520	0.106167
4504	0.699853
4488	0.413537
4472	0.162124
4456	0.046944
4440	0.156831
4424	0.039410
4408	0.078940
4392	0.115132
4376	0.149226
4360	0.079417
4344	0.005054
4328	0.137567
4312	0.218582
4296	-0.055313
4280	0.382542
4264	0.008726
4248	0.271582
4232	-0.149726
4216	0.257539
4200	-0.113439
4184	0.049328
4168	0.986170
4152	0.590205
4136	0.915384
4120	0.587105
4104	0.340700
4088	-0.109672
4072	0.192093
4056	-0.073266
4040	-0.119519
4024	0.057911
4008	0.223207
3992	-0.209665
3976	0.050735
3960	0.025868
3944	0.053286
3928	0.144338
3912	0.220870
3896	0.112891
3880	0.059580
3864	0.125789
3848	0.114798
3832	0.024247
3816	-0.008440
3800	0.190019
3784	0.092482
3768	0.174522
3752	0.057220
3736	0.064492
3720	0.078296
3704	0.124788
3688	0.165176
3672	-0.073385
3656	0.258708
3640	-0.147128
3624	0.052309
3608	0.030660
3592	0.163269
3576	0.102424
3560	-0.002169
3544	-0.088930
3528	0.063896
3512	0.075054
3496	0.104403
3480	0.118756
3464	0.011801
3448	0.095176
3432	-0.049781
3416	0.049495
3400	0.054621
3384	0.038790
3368	-0.003194
3352	0.057697
3336	0.147628
3320	0.026822
3304	-0.103354
3288	0.121164
3272	0.061583
3256	0.075459
3240	0.010108
3224	-0.060391
3208	-0.031614
3192	0.140523
3176	-0.113725
3160	0.096464
3144	0.065732
3128	-0.102233
3112	-0.029826
3096	0.007319
3080	0.080442
3064	-0.182414
3048	0.040030
3032	0.023269
3016	-0.056600
3000	0.143122
2984	0.104880
2968	0.182795
2952	-0.045156
2936	-0.028777
2920	0.038766
2904	0.075984
2888	0.038337
2872	0.088667
2856	-0.031471
2840	0.112199
2824	0.008344
2808	0.091361
2792	0.067639
2776	0.075674
2760	0.007629
2744	-0.100755
2728	0.030755
2712	0.007295
2696	0.022745
2680	0.059342
2664	-0.030350
2648	0.110960
2632	0.078868
2616	-0.042796
2600	-0.033879
2584	0.130176
2568	0.066375
2552	0.043487
2536	-0.004959
2520	0.011515
2504	0.108933
2488	-0.063443
2472	0.014042
2456	-0.010752
2440	0.079584
2424	-0.007128
2408	0.067281
2392	0.098776
2376	0.065231
2360	0.156998
2344	0.208950
2328	0.332212
2312	0.517940
2296	0.835251
2280	1.115870
2264	1.501822
2248	2.263975
2232	2.909803
2216	3.935980
2200	4.922318
2184	6.262445
2168	7.768058
2152	9.397101
2136	10.9489
2120	12.7516
2104	14.5468
2088	16.2995
2072	17.7612
2056	19.4384
2040	20.8894
2024	22.1341
2008	23.2229
1992	24.2889
1976	25.2563
1960	26.1023
1944	26.9397
1928	27.7111
1912	28.1986
1896	28.5475
1880	29.1741
1864	29.5241
1848	29.7331
1832	30.0972
1816	30.4719
1800	30.6202
1784	30.6203
1768	30.9566
1752	31.1213
1736	31.1437
1720	31.239
1704	31.2681
1688	31.4536
1672	31.3491
1656	31.5817
1640	31.7142
1624	31.6809
1608	31.5772
1592	31.7771
1576	31.9871
1560	31.6733
1544	31.8048
1528	31.9429
1512	31.8962
1496	31.7953
1480	31.8074
1464	31.9011
1448	31.7363
1432	31.7702
1416	31.8552
1400	32.052
1384	31.7639
1368	31.7107
1352	31.8977
1336	31.9927
1320	31.739
1304	31.7991
1288	31.9722
1272	31.8559
1256	31.6245
1240	31.8233
1224	31.7848
1208	31.652
1192	31.4798
1176	31.7838
1160	31.7757
1144	31.3827
1128	31.3439
1112	31.5097
1096	31.5562
1080	31.0682
1064	31.0766
1048	31.2387
1032	31.0861
1016	30.7419
1000	30.8193
984	 31.0634
968	 30.5117
952	 30.1955
936	 30.6623
920	 30.5381
904	 29.8269
888	 29.7481
872	 30.126
856	 29.9901
840	 29.1845
824	 28.9895
808	 29.6265
792	 29.1172
776	 28.4285
760	 28.4445
744	 28.6324
728	 27.9907
712	 27.5595
696	 27.7229
680	 27.6776
664	 26.9972
648	 26.6287
632	 26.5433
616	 26.5091
600	 25.6627
584	 25.3921
568	 25.9131
552	 25.5769
536	 24.3762
520	 24.2666
504	 24.0546
488	 23.6875
472	 23.272
456	 20.3922
440	 20.8895
424	 18.4854
408	 20.9644
392	 21.1368
376	 -6.371617
370	 29.8731

File: LPE454_t121.asc
PE IR       SPECTRUM    SPECTRUM    ASCII       PEDS        1.60
  -1
LP97F3~1.ASC
17/05/20
00:33:39.00
17/05/20
00:34:05.00
tln
$LPE454_t0121$<tbV0>[-13.0,13.0,8.0,0.0,27,1,0]
27.028
64

2002,4.07
MIRTGS : RIGHTBACK : INTERNAL 2
MIR : ON : INTERNAL 2
OPTKBR

0.200000
8
8.000000
FILLER
RATIO
SPECTRUM
UNLOCKED 256

DOUBLE
64
COMBINED
1
0
0

0.002000
RATIO

1
0
TRUE
51149
0
LEFT NOT FITTED RIGHT NOT FITTED 0
NONE
NONE
15600
12
4.427000
51148
TRUE
1 0 8 72 0 0 0 0

15798

#HDR
-1
-1
#GR
µM
%T
2.38419e-05
0.0
2.000000
0.002000
12515
8
45.6232
-3.460279
#DATA
2.000000	 0.707340
2.084000	 0.135660
2.168000	 -0.747017
2.252000	 0.414980
2.336000	 0.451025
2.420000	 1.503167
2.504000	 0.180065
2.588000	 0.175995
2.672000	 0.087659
2.756000	 0.058344
2.840000	 0.104873
2.924000	 0.088661
3.008000	 0.012169
3.092000	 -0.026684
3.176000	 -0.094638
3.260000	 0.031892
3.344000	 -0.029008
3.428000	 0.015101
3.512000	 0.120289
3.596000	 0.058527
3.680000	 0.106905
3.764000	 0.100621
3.848000	 0.007557
3.932000	 -0.067902
4.016000	 0.115115
4.100000	 0.095499
4.184000	 0.086372
4.268000	 0.214348
4.352000	 0.607213
4.436000	 1.655248
4.520000	 3.643478
4.604000	 6.565751
4.688000	 10.2266
4.772000	 13.9349
4.856000	 17.2545
4.940000	 19.8722
5.024000	 22.0463
5.108000	 23.6323
5.192000	 24.9243
5.276000	 25.6247
5.359999	 26.2531
5.444000	 26.8137
5.528000	 27.1303
5.612000	 27.2292
5.696000	 27.5915
5.780000	 27.6606
5.864000	 27.8209
5.948000	 27.8401
6.032000	 27.869
6.116000	 27.9888
6.200000	 27.8373
6.284000	 28.1715
6.368000	 28.1683
6.452000	 27.8208
6.536000	 28.1584
6.620000	 28.102
6.704000	 28.0185
6.788000	 28.2244
6.872000	 28.0514
6.956000	 27.8474
7.040000	 28.162
7.124000	 28.1924
7.208000	 28.0863
7.292000	 28.0127
7.376000	 28.2223
7.460000	 28.3025
7.544000	 28.1414
7.628000	 28.1251
7.712000	 28.3049
7.796000	 28.3552
7.880000	 28.0691
7.964000	 28.0254
8.048000	 28.2688
8.132000	 28.3743
8.216000	 28.0667
8.300000	 28.0637
8.384000	 27.9632
8.468000	 28.2311
8.552000	 28.2499
8.635999	 28.1264
8.719999	 27.8314
8.804000	 27.8497
8.888000	 27.8673
8.972000	 28.007
9.056000	 28.0428
9.140000	 27.7947
9.224000	 27.5186
9.308000	 27.5481
9.391999	 27.5839
9.475999	 27.8735
9.560000	 27.5662
9.644000	 27.5833
9.728000	 27.244
9.812000	 27.0783
9.896000	 26.9505
9.980000	 27.3282
10.064	27.3421
10.148	27.377
10.232	27.2688
10.316	26.9336
10.4	26.7347
10.484	26.6506
10.568	26.8204
10.652	26.8111
10.736	26.7129
10.82	26.7736
10.904	26.5221
10.988	26.2275
11.072	26.3449
11.156	26.1
11.24	26.0323
11.324	25.9852
11.408	26.0808
11.492	25.9143
11.576	25.9325
11.66	26.0785
11.744	25.8877
11.828	25.5278
11.912	25.2619
11.996	25.1569
12.08	25.2036
12.164	24.9456
12.248	25.2348
12.332	25.3089
12.416	25.1051
12.5	25.0875
12.584	25.1817
12.668	24.9616
12.752	24.5426
12.836	24.3611
12.92	24.1925
13.004	24.1996
13.088	24.2921
13.172	24.4618
13.256	24.5669
13.34	24.4124
13.424	24.5075
13.508	24.5343
13.592	24.2664
13.676	23.9313
13.76	23.6237
13.844	23.5703
13.928	23.5242
14.012	23.2767
14.096	23.1604
14.18	23.2619
14.264	23.4031
14.348	23.362
14.432	23.2294
14.516	23.3547
14.6	23.53
14.684	23.4236
14.768	23.2536
14.852	23.1233
14.936	22.9275
15.02	22.7764
15.104	22.6079
15.188	22.32
15.272	22.1409
15.356	22.1763
15.44	22.3368
15.524	22.5032
15.608	22.5179
15.692	22.3916
15.776	22.2654
15.86	22.151
15.944	21.9731
16.028	21.828
16.112	21.8654
16.196	21.9422
16.28	21.7774
16.364	21.4033
16.448	21.123
16.532	21.0974
16.616	21.1874
16.7	21.1614
16.784	20.9746
16.868	20.8021
16.952	20.7772
17.036	20.832
17.12	20.866
17.204	20.9083
17.288	21.0139
17.372	21.1295
17.456	21.1524
17.54	21.0533
17.624	20.9192
17.708	20.8641
17.792	20.9175
17.876	20.9917
17.96	20.9454
18.044	20.711
18.128	20.3782
18.212	20.0978
18.296	19.9005
18.38	19.6841
18.464	19.4211
18.548	19.2422
18.632	19.2311
18.716	19.2803
18.8	19.2493
18.884	19.1837
18.968	19.2674
19.052	19.5807
19.136	19.9617
19.22	20.1382
19.304	19.9859
19.388	19.6443
19.472	19.3806
19.556	19.3453
19.64	19.4512
19.724	19.4847
19.808	19.3217
19.892	19.0365
19.976	18.8003
20.06	18.7047
20.144	18.6873
20.228	18.6147
20.312	18.3945
20.396	18.0316
20.48	17.6216
20.564	17.2951
20.648	17.14
20.732	17.146
20.816	17.1974
20.9	17.1564
20.984	16.9548
21.068	16.6261
21.152	16.2562
21.236	15.9233
21.32	15.6918
21.404	15.6308
21.488	15.7726
21.572	16.0698
21.656	16.3852
21.74	16.5589
21.824	16.5233
21.908	16.3692
21.992	16.2771
22.076	16.3926
22.16	16.7316
22.244	17.1492
22.328	17.4495
22.412	17.4683
22.496	17.1786
22.58	16.7287
22.664	16.385
22.748	16.4188
22.832	16.9301
22.916	17.782
23	18.6243
23.084	19.0747
23.168	18.9044
23.252	18.1937
23.336	17.2865
23.42	16.6213
23.504	16.5587
23.588	17.2204
23.672	18.4929
23.756	20.1064
23.84	21.7399
23.924	23.1133
24.008	24.0474
24.092	24.4729
24.176	24.4237
24.26	23.9939
24.344	23.301
24.428	22.4382
24.512	21.4802
24.596	20.4347
24.68	19.3077
24.764	18.1852
24.848	17.245
24.932	16.7296
25.016	16.8616
25.1	17.817
25.184	19.6222
25.268	22.1217
25.352	25.0603
25.436	28.0701
25.52	30.7515
25.604	32.7821
25.688	34.0658
25.772	34.8186
25.856	35.4245
25.94	36.0918
26.024	36.6481
26.108	36.5489
26.192	35.265
26.276	32.5494
26.36	28.6653
26.444	24.216
26.528	20.0649
26.612	17.0288
26.696	16.069
26.78	18.1304
26.864	23.9764
26.948	33.7133
27.028	45.6232

File: LPE454_t121_cm-1.asc
PE IR       SPECTRUM    SPECTRUM    ASCII       PEDS        1.60
  -1
LP04D7~1.ASC
17/05/20
00:33:39.00
17/05/20
00:33:39.00
tln
$LPE454_t0121$<tbV0>[-13.0,13.0,8.0,0.0,27,1,0]
370
64

2002,4.07
MIRTGS : RIGHTBACK : INTERNAL 2
MIR : ON : INTERNAL 2
OPTKBR

0.200000
8
8.000000
FILLER
RATIO
SPECTRUM
UNLOCKED 256

DOUBLE
64
COMBINED
1
0
0

1.000000
RATIO

1
0
TRUE
51149
0
LEFT NOT FITTED RIGHT NOT FITTED 0
NONE
NONE
15600
12
4.427000
51148
TRUE
1 0 8 72 0 0 0 0

15798

#HDR
-1
-1
#GR
CM-1
%T
2.38419e-05
0.0
5000
-1.000000
4631
8
45.6232
-3.468084
#DATA
5000	0.707340
4984	-0.209903
4968	0.611233
4952	0.052928
4936	0.266838
4920	0.329589
4904	0.225353
4888	0.661540
4872	0.020837
4856	0.345039
4840	-0.017642
4824	0.106811
4808	0.118565
4792	0.159382
4776	0.102543
4760	0.590300
4744	0.609612
4728	0.686359
4712	0.839853
4696	0.975537
4680	0.976300
4664	-0.025391
4648	-0.498127
4632	-1.047158
4616	-0.957918
4600	0.259995
4584	9.933328
4568	8.979630
4552	-3.156304
4536	-2.155160
4520	-0.486803
4504	-1.195025
4488	0.249838
4472	0.356554
4456	0.578999
4440	0.414085
4424	0.536394
4408	0.359940
4392	0.421929
4376	0.147056
4360	0.207543
4344	0.217151
4328	0.223016
4312	0.378155
4296	0.329613
4280	0.445938
4264	0.164031
4248	0.248169
4232	0.590682
4216	0.118160
4200	0.286173
4184	0.166678
4168	0.033783
4152	0.345492
4136	1.827836
4120	-0.004959
4104	0.617504
4088	0.696754
4072	0.266218
4056	0.250506
4040	-0.052833
4024	-0.070118
4008	-0.195479
3992	0.151014
3976	-0.006747
3960	0.017189
3944	0.061583
3928	0.004935
3912	-0.028038
3896	0.297927
3880	-0.069069
3864	0.175929
3848	0.062465
3832	0.192308
3816	0.080943
3800	0.018477
3784	0.012922
3768	0.063967
3752	0.029516
3736	0.129699
3720	-0.024533
3704	0.250554
3688	0.159883
3672	0.144124
3656	0.053834
3640	0.097608
3624	0.101542
3608	0.068211
3592	-0.005459
3576	0.040006
3560	0.006914
3544	0.051307
3528	0.004053
3512	0.070834
3496	0.168466
3480	-0.172972
3464	0.007486
3448	0.084280
3432	0.027441
3416	0.090837
3400	0.112581
3384	0.103878
3368	0.099945
3352	-0.047588
3336	-0.021171
3320	0.075316
3304	0.019145
3288	0.029277
3272	-0.087022
3256	-0.011777
3240	0.123143
3224	0.003504
3208	-0.001239
3192	0.177168
3176	0.040721
3160	-0.025987
3144	-0.005817
3128	0.019049
3112	-0.041675
3096	0.163412
3080	0.031828
3064	0.016617
3048	0.088691
3032	-0.003790
3016	0.020122
3000	-0.009918
2984	0.078177
2968	-0.003290
2952	0.044274
2936	0.012445
2920	0.045418
2904	-0.003147
2888	0.107765
2872	0.104284
2856	0.023484
2840	0.094556
2824	0.050258
2808	0.184321
2792	0.040102
2776	0.079798
2760	0.020837
2744	0.084686
2728	0.119805
2712	0.036573
2696	0.024819
2680	-0.004506
2664	0.120282
2648	0.047039
2632	0.048351
2616	0.023579
2600	-0.000643
2584	0.057864
2568	0.013089
2552	-0.020027
2536	0.035715
2520	-0.052356
2504	-0.010108
2488	0.101065
2472	0.027680
2456	0.016880
2440	0.085377
2424	0.073552
2408	0.099611
2392	0.069236
2376	0.046849
2360	0.096511
2344	0.200700
2328	0.362753
2312	0.454616
2296	0.650238
2280	1.103615
2264	1.347732
2248	1.957368
2232	2.660703
2216	3.385782
2200	4.567313
2184	5.598616
2168	6.902885
2152	8.470368
2136	9.964585
2120	11.4948
2104	13.041
2088	14.5302
2072	16.104
2056	17.5594
2040	18.8014
2024	19.8901
2008	20.9617
1992	21.9378
1976	22.8263
1960	23.5272
1944	24.2865
1928	24.8671
1912	25.2287
1896	25.6038
1880	26.0372
1864	26.2916
1848	26.6525
1832	26.8229
1816	27.1198
1800	27.137
1784	27.2358
1768	27.4647
1752	27.5938
1736	27.5207
1720	27.6664
1704	27.8341
1688	27.8246
1672	27.8007
1656	27.8887
1640	27.9997
1624	27.8229
1608	27.885
1592	28.1691
1576	28.1272
1560	27.912
1544	28.0528
1528	28.1908
1512	28.0967
1496	27.9709
1480	28.1657
1464	28.1264
1448	28.0489
1432	27.7889
1416	28.1632
1400	28.1652
1384	27.9943
1368	28.0276
1352	28.2449
1336	28.2138
1320	28.0909
1304	28.1482
1288	28.2993
1272	28.1102
1256	28.0233
1240	28.2968
1224	28.3783
1208	28.0771
1192	27.9732
1176	28.2792
1160	28.1606
1144	27.7933
1128	27.8483
1112	28.0798
1096	27.8126
1080	27.447
1064	27.5825
1048	27.6097
1032	27.3912
1016	26.9541
1000	27.3611
984	 27.4074
968	 26.9372
952	 26.6972
936	 26.7509
920	 26.6783
904	 26.3304
888	 26.0268
872	 25.9718
856	 26.0787
840	 25.2855
824	 25.0124
808	 25.1744
792	 25.1432
776	 24.2508
760	 24.4241
744	 24.54
728	 23.6918
712	 23.2
696	 23.324
680	 23.3728
664	 22.7123
648	 22.319
632	 22.2066
616	 21.9064
600	 21.1948
584	 20.8671
568	 20.945
552	 20.4256
536	 19.2476
520	 20.1368
504	 19.2139
488	 17.5681
472	 16.1113
456	 16.3317
440	 16.3657
424	 17.1844
408	 21.5064
392	 30.4699
376	 17.476
370	 45.6232