Folder: Masteroppgave/Bakgrunnsmateriale/MATLAB/FTIR/ftir_data/LPE454/Mapping_121

File: LPE454_e122.asc
PE IR       SPECTRUM    SPECTRUM    ASCII       PEDS        1.60
  -1
LPE454~2.ASC
17/05/19
14:23:25.00
17/05/19
14:23:52.00
tln
$LPE454_e0122$<ebV0>[-23.3,12.1,10.0,0.0,27,1,0]
27.028
64

2002,4.07
MIRTGS : RIGHTBACK : INTERNAL 2
MIR : ON : INTERNAL 2
OPTKBR

0.200000
8
8.000000
FILLER
SINGLE
SPECTRUM
UNLOCKED 256

DOUBLE

COMBINED
1
0
0

0.002000
BACKG

1
0
TRUE
51149
0
LEFT NOT FITTED RIGHT NOT FITTED 0
NONE
NONE
15600
12
4.427000
51148
TRUE
1 0 8 72 0 0 0 0

15798

#HDR
-1
-1
#GR
µM
EGY
2.38419e-05
0.0
2.000000
0.002000
12515
8
2.423288
0.004696
#DATA
2.000000	 0.765895
2.084000	 0.864455
2.168000	 0.923852
2.252000	 1.036978
2.336000	 1.131558
2.420000	 1.229154
2.504000	 1.387150
2.588000	 1.438593
2.672000	 1.529963
2.756000	 1.557927
2.840000	 1.612624
2.924000	 1.577123
3.008000	 1.671041
3.092000	 1.765615
3.176000	 1.797937
3.260000	 1.912898
3.344000	 2.010181
3.428000	 1.824517
3.512000	 1.992171
3.596000	 2.193182
3.680000	 2.233470
3.764000	 2.200836
3.848000	 2.202542
3.932000	 2.270802
4.016000	 2.300587
4.100000	 2.270452
4.184000	 2.227770
4.268000	 2.235573
4.352000	 2.313910
4.436000	 2.352180
4.520000	 2.342103
4.604000	 2.310430
4.688000	 2.302764
4.772000	 2.307450
4.856000	 2.351992
4.940000	 2.408656
5.024000	 2.423001
5.108000	 2.399074
5.192000	 2.369103
5.276000	 2.335551
5.359999	 2.343301
5.444000	 2.364739
5.528000	 2.388557
5.612000	 2.387713
5.696000	 2.356045
5.780000	 2.282399
5.864000	 2.241490
5.948000	 2.194732
6.032000	 2.147413
6.116000	 2.098108
6.200000	 1.972503
6.284000	 1.984422
6.368000	 1.941582
6.452000	 1.920509
6.536000	 2.059225
6.620000	 2.039299
6.704000	 1.660702
6.788000	 1.939639
6.872000	 1.758945
6.956000	 1.834096
7.040000	 1.828262
7.124000	 1.701264
7.208000	 1.759907
7.292000	 1.788695
7.376000	 1.789387
7.460000	 1.786557
7.544000	 1.823923
7.628000	 1.827804
7.712000	 1.829732
7.796000	 1.825460
7.880000	 1.751982
7.964000	 1.737187
8.048000	 1.810145
8.132000	 1.802556
8.216000	 1.761817
8.300000	 1.722437
8.384000	 1.719937
8.468000	 1.693456
8.552000	 1.655516
8.635999	 1.604712
8.719999	 1.584736
8.804000	 1.557001
8.888000	 1.508773
8.972000	 1.451255
9.056000	 1.413603
9.140000	 1.407067
9.224000	 1.412602
9.308000	 1.414345
9.391999	 1.421150
9.475999	 1.344472
9.560000	 1.312822
9.644000	 1.369186
9.728000	 1.354408
9.812000	 1.346583
9.896000	 1.366040
9.980000	 1.381106
10.064	1.381386
10.148	1.367467
10.232	1.353217
10.316	1.331039
10.4	1.305555
10.484	1.281600
10.568	1.259081
10.652	1.243900
10.736	1.227887
10.82	1.211445
10.904	1.195164
10.988	1.166348
11.072	1.146455
11.156	1.134356
11.24	1.116653
11.324	1.067856
11.408	1.020551
11.492	1.034755
11.576	1.072056
11.66	1.082132
11.744	1.075610
11.828	1.066827
11.912	1.044562
11.996	0.979276
12.08	0.869682
12.164	0.841465
12.248	0.902600
12.332	0.933072
12.416	0.934623
12.5	0.932955
12.584	0.941244
12.668	0.957137
12.752	0.968593
12.836	0.970177
12.92	0.965420
13.004	0.959891
13.088	0.955212
13.172	0.950416
13.256	0.947021
13.34	0.941631
13.424	0.934282
13.508	0.925892
13.592	0.914107
13.676	0.901180
13.76	0.889005
13.844	0.876832
13.928	0.865164
14.012	0.853706
14.096	0.840544
14.18	0.826381
14.264	0.810851
14.348	0.790071
14.432	0.760310
14.516	0.731047
14.6	0.719952
14.684	0.723110
14.768	0.723862
14.852	0.719185
14.936	0.712469
15.02	0.704230
15.104	0.694966
15.188	0.686059
15.272	0.677327
15.356	0.667654
15.44	0.657286
15.524	0.647897
15.608	0.640002
15.692	0.632137
15.776	0.623268
15.86	0.614368
15.944	0.606068
16.028	0.597456
16.112	0.587442
16.196	0.575333
16.28	0.561142
16.364	0.545581
16.448	0.530981
16.532	0.521233
16.616	0.517977
16.7	0.517779
16.784	0.516422
16.868	0.513098
16.952	0.508924
17.036	0.504697
17.12	0.501020
17.204	0.498159
17.288	0.495831
17.372	0.493584
17.456	0.491272
17.54	0.488808
17.624	0.485721
17.708	0.481799
17.792	0.477236
17.876	0.472460
17.96	0.467798
18.044	0.463572
18.128	0.459922
18.212	0.456662
18.296	0.453121
18.38	0.448563
18.464	0.442919
18.548	0.436841
18.632	0.431198
18.716	0.426073
18.8	0.421233
18.884	0.416392
18.968	0.411510
19.052	0.406579
19.136	0.401614
19.22	0.396299
19.304	0.390623
19.388	0.384908
19.472	0.379571
19.556	0.374828
19.64	0.370328
19.724	0.365391
19.808	0.359531
19.892	0.352617
19.976	0.344913
20.06	0.336739
20.144	0.328513
20.228	0.320666
20.312	0.313509
20.396	0.306950
20.48	0.300598
20.564	0.293965
20.648	0.286915
20.732	0.279742
20.816	0.272907
20.9	0.266561
20.984	0.260575
21.068	0.254684
21.152	0.248600
21.236	0.242343
21.32	0.236038
21.404	0.229802
21.488	0.223751
21.572	0.217967
21.656	0.212353
21.74	0.206987
21.824	0.201664
21.908	0.196374
21.992	0.190899
22.076	0.185113
22.16	0.179157
22.244	0.173303
22.328	0.167978
22.412	0.163365
22.496	0.159366
22.58	0.155590
22.664	0.151334
22.748	0.146282
22.832	0.140504
22.916	0.134432
23	0.128570
23.084	0.123350
23.168	0.118772
23.252	0.114603
23.336	0.110485
23.42	0.106149
23.504	0.101684
23.588	0.097260
23.672	0.093236
23.756	0.089692
23.84	0.086530
23.924	0.083328
24.008	0.079676
24.092	0.075193
24.176	0.069816
24.26	0.063770
24.344	0.057572
24.428	0.051656
24.512	0.046561
24.596	0.042521
24.68	0.039667
24.764	0.037860
24.848	0.036890
24.932	0.036472
25.016	0.036260
25.1	0.036078
25.184	0.035676
25.268	0.034922
25.352	0.033736
25.436	0.032107
25.52	0.030075
25.604	0.027785
25.688	0.025380
25.772	0.023039
25.856	0.020903
25.94	0.019068
26.024	0.017544
26.108	0.016282
26.192	0.015254
26.276	0.014253
26.36	0.013311
26.444	0.012258
26.528	0.011119
26.612	0.009917
26.696	0.008692
26.78	0.007498
26.864	0.006368
26.948	0.005403
27.028	0.004696

File: LPE454_e122_cm-1.asc
PE IR       SPECTRUM    SPECTRUM    ASCII       PEDS        1.60
  -1
LPE454~1.ASC
17/05/19
14:23:25.00
17/05/19
14:23:25.00
tln
$LPE454_e0122$<ebV0>[-23.3,12.1,10.0,0.0,27,1,0]
370
64

2002,4.07
MIRTGS : RIGHTBACK : INTERNAL 2
MIR : ON : INTERNAL 2
OPTKBR

0.200000
8
8.000000
FILLER
SINGLE
SPECTRUM
UNLOCKED 256

DOUBLE

COMBINED
1
0
0

1.000000
BACKG

1
0
TRUE
51149
0
LEFT NOT FITTED RIGHT NOT FITTED 0
NONE
NONE
15600
12
4.427000
51148
TRUE
1 0 8 72 0 0 0 0

15798

#HDR
-1
-1
#GR
CM-1
EGY
2.38419e-05
0.0
5000
-1.000000
4631
8
2.423286
0.004696
#DATA
5000	0.765895
4984	0.773143
4968	0.783491
4952	0.783205
4936	0.797605
4920	0.799512
4904	0.803184
4888	0.793814
4872	0.818753
4856	0.836086
4840	0.827383
4824	0.850892
4808	0.860381
4792	0.867867
4776	0.880932
4760	0.886178
4744	0.890660
4728	0.901293
4712	0.902509
4696	0.904941
4680	0.906825
4664	0.910949
4648	0.913691
4632	0.918507
4616	0.921177
4600	0.934863
4584	0.938963
4568	0.954437
4552	0.970697
4536	0.974941
4520	0.988936
4504	0.993895
4488	0.993013
4472	1.006579
4456	0.977945
4440	1.035761
4424	1.023602
4408	1.015758
4392	1.023864
4376	1.034426
4360	1.043581
4344	1.058006
4328	1.075267
4312	1.096129
4296	1.114964
4280	1.132583
4264	1.144886
4248	1.164197
4232	1.174378
4216	1.184344
4200	1.190614
4184	1.199579
4168	1.209449
4152	1.215386
4136	1.226902
4120	1.241993
4104	1.255822
4088	1.273226
4072	1.294469
4056	1.317334
4040	1.337695
4024	1.354408
4008	1.374530
3992	1.389455
3976	1.398658
3960	1.406788
3944	1.413726
3928	1.416468
3912	1.419734
3896	1.423573
3880	1.432490
3864	1.438570
3848	1.449680
3832	1.467871
3816	1.479768
3800	1.498746
3784	1.527357
3768	1.536583
3752	1.522517
3736	1.540660
3720	1.561927
3704	1.567173
3688	1.551699
3672	1.546621
3656	1.560211
3640	1.570081
3624	1.565241
3608	1.573610
3592	1.581668
3576	1.593399
3560	1.601982
3544	1.608014
3528	1.612043
3512	1.613259
3496	1.610922
3480	1.603913
3464	1.594448
3448	1.582074
3432	1.572227
3416	1.577544
3400	1.583075
3384	1.594614
3368	1.608037
3352	1.632118
3336	1.652121
3320	1.675724
3304	1.699495
3288	1.719546
3272	1.736974
3256	1.753926
3240	1.763629
3224	1.771044
3208	1.774024
3192	1.778125
3176	1.783585
3160	1.786398
3144	1.798367
3128	1.816391
3112	1.835703
3096	1.867604
3080	1.894950
3064	1.915073
3048	1.944017
3032	1.958036
3016	1.944041
3000	2.006506
2984	2.007150
2968	1.944160
2952	1.903438
2936	1.801156
2920	1.788997
2904	1.928830
2888	1.979422
2872	1.965641
2856	1.903915
2840	2.048659
2824	2.104544
2808	2.142047
2792	2.168035
2776	2.202796
2760	2.221798
2744	2.233958
2728	2.235436
2712	2.230954
2696	2.227115
2680	2.217078
2664	2.206897
2648	2.196121
2632	2.195334
2616	2.196764
2600	2.202463
2584	2.216005
2568	2.238821
2552	2.260065
2536	2.278232
2520	2.296376
2504	2.306866
2488	2.299809
2472	2.293634
2456	2.286005
2440	2.271056
2424	2.257061
2408	2.239036
2392	2.228164
2376	2.218961
2360	2.210164
2344	2.235364
2328	2.257323
2312	2.289581
2296	2.316331
2280	2.334642
2264	2.346205
2248	2.352809
2232	2.350854
2216	2.344512
2200	2.330899
2184	2.315926
2168	2.308630
2152	2.305030
2136	2.304029
2120	2.305340
2104	2.308154
2088	2.306056
2072	2.327036
2056	2.357602
2040	2.388048
2024	2.408838
2008	2.421379
1992	2.423214
1976	2.413511
1960	2.400541
1944	2.384042
1928	2.371788
1912	2.353382
1896	2.335929
1880	2.341294
1864	2.346014
1848	2.354693
1832	2.366137
1816	2.385592
1800	2.389216
1784	2.388143
1768	2.367663
1752	2.343106
1736	2.278709
1720	2.267146
1704	2.231884
1688	2.206373
1672	2.185440
1656	2.131581
1640	2.116036
1624	2.069139
1608	1.943278
1592	1.984143
1576	1.945018
1560	1.883077
1544	1.912856
1528	2.067589
1512	2.048707
1496	1.670932
1480	1.929187
1464	1.904225
1448	1.759696
1432	1.840066
1416	1.813793
1400	1.705217
1384	1.757717
1368	1.791715
1352	1.787996
1336	1.796674
1320	1.827287
1304	1.826715
1288	1.829409
1272	1.781511
1256	1.733350
1240	1.811385
1224	1.789522
1208	1.726841
1192	1.719188
1176	1.678705
1160	1.611208
1144	1.579022
1128	1.522707
1112	1.437568
1096	1.407265
1080	1.413226
1064	1.420569
1048	1.292943
1032	1.361870
1016	1.351833
1000	1.383018
984	 1.365184
968	 1.326918
952	 1.276254
936	 1.238489
920	 1.202988
904	 1.148128
888	 1.108002
872	 1.025056
856	 1.081061
840	 1.047635
824	 0.835227
808	 0.935339
792	 0.949048
776	 0.967741
760	 0.951123
744	 0.932788
728	 0.892448
712	 0.848770
696	 0.783824
680	 0.723981
664	 0.699830
648	 0.658249
632	 0.618243
616	 0.569200
600	 0.517797
584	 0.500893
568	 0.486469
552	 0.460410
536	 0.429630
520	 0.395584
504	 0.356912
488	 0.299692
472	 0.246047
456	 0.194978
440	 0.147604
424	 0.097417
408	 0.046682
392	 0.030326
376	 0.010156
370	 0.004696

File: LPE454_e123.asc
PE IR       SPECTRUM    SPECTRUM    ASCII       PEDS        1.60
  -1
LP8FF4~1.ASC
17/05/19
16:12:42.00
17/05/19
16:13:08.00
tln
$LPE454_e0123$<ebV0>[-23.3,12.1,10.0,0.0,27,1,0]
27.028
64

2002,4.07
MIRTGS : RIGHTBACK : INTERNAL 2
MIR : ON : INTERNAL 2
OPTKBR

0.200000
8
8.000000
FILLER
SINGLE
SPECTRUM
UNLOCKED 256

DOUBLE

COMBINED
1
0
0

0.002000
BACKG

1
0
TRUE
51149
0
LEFT NOT FITTED RIGHT NOT FITTED 0
NONE
NONE
15600
12
4.427000
51148
TRUE
1 0 8 72 0 0 0 0

15798

#HDR
-1
-1
#GR
µM
EGY
2.38419e-05
0.0
2.000000
0.002000
12515
8
2.425860
0.007486
#DATA
2.000000	 0.769782
2.084000	 0.871999
2.168000	 0.921954
2.252000	 0.996413
2.336000	 1.131200
2.420000	 1.232325
2.504000	 1.386574
2.588000	 1.442349
2.672000	 1.543543
2.756000	 1.566115
2.840000	 1.614886
2.924000	 1.574069
3.008000	 1.673649
3.092000	 1.768453
3.176000	 1.795640
3.260000	 1.910541
3.344000	 2.012943
3.428000	 1.825779
3.512000	 1.995617
3.596000	 2.195721
3.680000	 2.236895
3.764000	 2.201665
3.848000	 2.202191
3.932000	 2.273565
4.016000	 2.303317
4.100000	 2.267672
4.184000	 2.227537
4.268000	 2.239789
4.352000	 2.314153
4.436000	 2.350753
4.520000	 2.340287
4.604000	 2.310458
4.688000	 2.304484
4.772000	 2.305478
4.856000	 2.351329
4.940000	 2.410651
5.024000	 2.424954
5.108000	 2.400492
5.192000	 2.368436
5.276000	 2.340547
5.359999	 2.345840
5.444000	 2.368135
5.528000	 2.393237
5.612000	 2.391386
5.696000	 2.362065
5.780000	 2.287309
5.864000	 2.244385
5.948000	 2.199785
6.032000	 2.153436
6.116000	 2.105003
6.200000	 1.974924
6.284000	 1.983843
6.368000	 1.947557
6.452000	 1.925599
6.536000	 2.065539
6.620000	 2.050204
6.704000	 1.663609
6.788000	 1.945658
6.872000	 1.764023
6.956000	 1.836328
7.040000	 1.829305
7.124000	 1.701106
7.208000	 1.761014
7.292000	 1.787908
7.376000	 1.789372
7.460000	 1.787110
7.544000	 1.820234
7.628000	 1.827497
7.712000	 1.825689
7.796000	 1.823730
7.880000	 1.748590
7.964000	 1.733419
8.048000	 1.807620
8.132000	 1.802202
8.216000	 1.762380
8.300000	 1.724016
8.384000	 1.719458
8.468000	 1.693201
8.552000	 1.655008
8.635999	 1.604590
8.719999	 1.586200
8.804000	 1.556799
8.888000	 1.509001
8.972000	 1.454972
9.056000	 1.417646
9.140000	 1.408619
9.224000	 1.413997
9.308000	 1.412005
9.391999	 1.422887
9.475999	 1.344153
9.560000	 1.314377
9.644000	 1.371184
9.728000	 1.353718
9.812000	 1.345438
9.896000	 1.364691
9.980000	 1.380417
10.064	1.379708
10.148	1.369721
10.232	1.354450
10.316	1.331944
10.4	1.304162
10.484	1.278222
10.568	1.256537
10.652	1.242426
10.736	1.226102
10.82	1.209239
10.904	1.191727
10.988	1.164187
11.072	1.145270
11.156	1.135267
11.24	1.116138
11.324	1.064769
11.408	1.017874
11.492	1.035410
11.576	1.073236
11.66	1.080393
11.744	1.074372
11.828	1.067162
11.912	1.046839
11.996	0.979156
12.08	0.868862
12.164	0.840060
12.248	0.902376
12.332	0.933947
12.416	0.934441
12.5	0.933265
12.584	0.940774
12.668	0.954455
12.752	0.965887
12.836	0.968993
12.92	0.965852
13.004	0.961346
13.088	0.958443
13.172	0.955211
13.256	0.947123
13.34	0.938511
13.424	0.932712
13.508	0.925984
13.592	0.915264
13.676	0.901437
13.76	0.888656
13.844	0.877340
13.928	0.864484
14.012	0.851312
14.096	0.838801
14.18	0.825089
14.264	0.808674
14.348	0.787452
14.432	0.759169
14.516	0.731651
14.6	0.721054
14.684	0.724989
14.768	0.727192
14.852	0.721861
14.936	0.711938
15.02	0.701698
15.104	0.692900
15.188	0.684308
15.272	0.675421
15.356	0.665839
15.44	0.655411
15.524	0.645832
15.608	0.637708
15.692	0.630048
15.776	0.622418
15.86	0.614646
15.944	0.606052
16.028	0.596507
16.112	0.586169
16.196	0.574560
16.28	0.560672
16.364	0.544873
16.448	0.530317
16.532	0.521458
16.616	0.518690
16.7	0.517808
16.784	0.515533
16.868	0.512423
16.952	0.509142
17.036	0.505341
17.12	0.501275
17.204	0.498018
17.288	0.495630
17.372	0.493405
17.456	0.490686
17.54	0.487325
17.624	0.483746
17.708	0.480427
17.792	0.477094
17.876	0.473383
17.96	0.469279
18.044	0.464972
18.128	0.460424
18.212	0.455531
18.296	0.450555
18.38	0.445918
18.464	0.441731
18.548	0.437860
18.632	0.434024
18.716	0.429865
18.8	0.424980
18.884	0.419161
18.968	0.412519
19.052	0.405574
19.136	0.399042
19.22	0.393366
19.304	0.388393
19.388	0.383745
19.472	0.379199
19.556	0.374491
19.64	0.369534
19.724	0.364175
19.808	0.358361
19.892	0.352023
19.976	0.345107
20.06	0.337648
20.144	0.330000
20.228	0.322655
20.312	0.315959
20.396	0.309821
20.48	0.303648
20.564	0.296970
20.648	0.289671
20.732	0.282124
20.816	0.274836
20.9	0.268073
20.984	0.261860
21.068	0.256015
21.152	0.250458
21.236	0.245166
21.32	0.239902
21.404	0.234483
21.488	0.228683
21.572	0.222409
21.656	0.215682
21.74	0.208710
21.824	0.201660
21.908	0.194690
21.992	0.188108
22.076	0.182112
22.16	0.176864
22.244	0.172304
22.328	0.168200
22.412	0.164283
22.496	0.160322
22.58	0.156349
22.664	0.152338
22.748	0.148330
22.832	0.144292
22.916	0.140111
23	0.135667
23.084	0.130799
23.168	0.125510
23.252	0.119900
23.336	0.114020
23.42	0.108066
23.504	0.102271
23.588	0.096770
23.672	0.091787
23.756	0.087374
23.84	0.083536
23.924	0.080110
24.008	0.076945
24.092	0.073878
24.176	0.070783
24.26	0.067598
24.344	0.064305
24.428	0.060871
24.512	0.057193
24.596	0.053283
24.68	0.049118
24.764	0.044802
24.848	0.040526
24.932	0.036582
25.016	0.033162
25.1	0.030450
25.184	0.028358
25.268	0.026781
25.352	0.025551
25.436	0.024397
25.52	0.023256
25.604	0.022119
25.688	0.021026
25.772	0.019993
25.856	0.019072
25.94	0.018252
26.024	0.017456
26.108	0.016611
26.192	0.015727
26.276	0.014764
26.36	0.013779
26.444	0.012810
26.528	0.011867
26.612	0.011054
26.696	0.010304
26.78	0.009576
26.864	0.008873
26.948	0.008159
27.028	0.007486

File: LPE454_e123_cm-1.asc
PE IR       SPECTRUM    SPECTRUM    ASCII       PEDS        1.60
  -1
LP061C~1.ASC
17/05/19
16:12:42.00
17/05/19
16:12:42.00
tln
$LPE454_e0123$<ebV0>[-23.3,12.1,10.0,0.0,27,1,0]
370
64

2002,4.07
MIRTGS : RIGHTBACK : INTERNAL 2
MIR : ON : INTERNAL 2
OPTKBR

0.200000
8
8.000000
FILLER
SINGLE
SPECTRUM
UNLOCKED 256

DOUBLE

COMBINED
1
0
0

1.000000
BACKG

1
0
TRUE
51149
0
LEFT NOT FITTED RIGHT NOT FITTED 0
NONE
NONE
15600
12
4.427000
51148
TRUE
1 0 8 72 0 0 0 0

15798

#HDR
-1
-1
#GR
CM-1
EGY
2.38419e-05
0.0
5000
-1.000000
4631
8
2.425861
0.007486
#DATA
5000	0.769782
4984	0.775933
4968	0.783944
4952	0.788927
4936	0.798463
4920	0.803399
4904	0.809550
4888	0.815296
4872	0.829339
4856	0.833892
4840	0.846290
4824	0.854778
4808	0.865578
4792	0.877118
4776	0.882720
4760	0.890302
4744	0.895142
4728	0.902605
4712	0.901246
4696	0.903248
4680	0.898957
4664	0.902843
4648	0.903916
4632	0.911474
4616	0.919389
4600	0.929379
4584	0.931715
4568	0.935864
4552	0.950574
4536	0.966668
4520	0.983810
4504	1.160788
4488	1.002025
4472	0.998520
4456	1.001358
4440	0.996565
4424	1.003813
4408	1.008367
4392	1.014542
4376	1.025247
4360	1.035594
4344	1.054096
4328	1.074457
4312	1.097726
4296	1.114368
4280	1.132225
4264	1.152801
4248	1.168751
4232	1.179742
4216	1.189303
4200	1.196098
4184	1.200532
4168	1.210880
4152	1.219391
4136	1.229500
4120	1.242947
4104	1.257371
4088	1.276326
4072	1.297688
4056	1.318621
4040	1.338124
4024	1.360058
4008	1.376533
3992	1.387381
3976	1.396250
3960	1.404237
3944	1.412320
3928	1.418852
3912	1.425170
3896	1.428151
3880	1.434516
3864	1.442337
3848	1.455903
3832	1.472997
3816	1.487398
3800	1.505136
3784	1.533341
3768	1.545119
3752	1.535439
3736	1.551651
3720	1.567625
3704	1.568388
3688	1.561021
3672	1.558780
3656	1.567316
3640	1.571869
3624	1.570653
3608	1.576685
3592	1.585388
3576	1.596093
3560	1.604294
3544	1.609420
3528	1.614832
3512	1.615619
3496	1.611566
3480	1.604056
3464	1.595401
3448	1.584577
3432	1.573896
3416	1.575088
3400	1.587128
3384	1.597332
3368	1.612114
3352	1.634716
3336	1.658344
3320	1.679563
3304	1.705074
3288	1.727104
3272	1.742243
3256	1.756525
3240	1.765942
3224	1.773405
3208	1.776242
3192	1.778459
3176	1.782655
3160	1.787686
3144	1.800656
3128	1.811242
3112	1.840305
3096	1.864671
3080	1.897692
3064	1.914095
3048	1.944375
3032	1.958727
3016	1.945948
3000	2.007508
2984	2.008724
2968	1.946592
2952	1.906824
2936	1.801419
2920	1.791262
2904	1.931762
2888	1.979351
2872	1.968145
2856	1.909208
2840	2.052927
2824	2.108764
2808	2.146792
2792	2.174901
2776	2.206325
2760	2.225637
2744	2.234888
2728	2.239489
2712	2.234864
2696	2.224922
2680	2.218055
2664	2.206087
2648	2.199101
2632	2.198815
2616	2.201819
2600	2.202320
2584	2.217698
2568	2.242708
2552	2.260613
2536	2.282071
2520	2.293062
2504	2.302074
2488	2.304100
2472	2.298951
2456	2.285623
2440	2.268671
2424	2.254819
2408	2.238845
2392	2.229118
2376	2.218341
2360	2.214145
2344	2.239274
2328	2.259063
2312	2.294468
2296	2.316617
2280	2.336049
2264	2.345609
2248	2.353572
2232	2.351546
2216	2.342772
2200	2.330231
2184	2.318596
2168	2.307868
2152	2.302742
2136	2.304983
2120	2.304410
2104	2.309203
2088	2.306580
2072	2.326679
2056	2.357578
2040	2.389907
2024	2.410840
2008	2.423906
1992	2.425575
1976	2.416372
1960	2.402400
1944	2.383923
1928	2.370119
1912	2.353429
1896	2.340936
1880	2.341651
1864	2.347755
1848	2.356886
1832	2.369856
1816	2.390146
1800	2.393722
1784	2.392864
1768	2.376937
1752	2.349662
1736	2.289628
1720	2.273225
1704	2.236676
1688	2.213335
1672	2.191042
1656	2.140831
1640	2.118825
1624	2.072882
1608	1.942038
1592	1.983499
1576	1.951742
1560	1.894378
1544	1.923847
1528	2.073645
1512	2.058529
1496	1.676487
1480	1.933073
1464	1.907968
1448	1.758408
1432	1.841473
1416	1.815843
1400	1.705908
1384	1.759743
1368	1.789808
1352	1.788401
1336	1.796770
1320	1.826262
1304	1.827883
1288	1.825571
1272	1.779937
1256	1.729607
1240	1.808810
1224	1.790809
1208	1.726937
1192	1.718115
1176	1.680469
1160	1.611351
1144	1.580548
1128	1.523303
1112	1.443600
1096	1.408386
1080	1.410961
1064	1.422142
1048	1.294803
1032	1.363563
1016	1.350259
1000	1.381039
984	 1.367330
968	 1.327490
952	 1.272296
936	 1.236772
920	 1.200270
904	 1.146984
888	 1.106119
872	 1.024413
856	 1.079106
840	 1.049900
824	 0.833988
808	 0.935626
792	 0.947356
776	 0.967478
760	 0.956106
744	 0.931596
728	 0.892019
712	 0.846433
696	 0.781393
680	 0.726222
664	 0.697350
648	 0.656390
632	 0.618124
616	 0.568628
600	 0.518226
584	 0.501132
568	 0.484514
552	 0.461101
536	 0.432848
520	 0.392699
504	 0.355911
488	 0.302743
472	 0.248265
456	 0.192928
440	 0.149321
424	 0.096964
408	 0.057291
392	 0.023388
376	 0.011205
370	 0.007486