Folder: Masteroppgave/Bakgrunnsmateriale/MATLAB/FTIR/ftir_data/LPE454/Mapping_121 (part 17)

File: LPE454_t109_cm-1.asc
PE IR       SPECTRUM    SPECTRUM    ASCII       PEDS        1.60
  -1
LP0CDC~1.ASC
17/05/19
23:17:37.00
17/05/19
23:17:37.00
tln
$LPE454_t0109$<tbV0>[-10.4,10.4,8.0,0.0,27,1,0]
370
64

2002,4.07
MIRTGS : RIGHTBACK : INTERNAL 2
MIR : ON : INTERNAL 2
OPTKBR

0.200000
8
8.000000
FILLER
RATIO
SPECTRUM
UNLOCKED 256

DOUBLE
64
COMBINED
1
0
0

1.000000
RATIO

1
0
TRUE
51149
0
LEFT NOT FITTED RIGHT NOT FITTED 0
NONE
NONE
15600
12
4.427000
51148
TRUE
1 0 8 72 0 0 0 0

15798

#HDR
-1
-1
#GR
CM-1
%T
2.38419e-05
0.0
5000
-1.000000
4631
8
58.8576
-20.7086
#DATA
5000	0.645756
4984	0.486159
4968	0.132846
4952	0.445246
4936	0.585055
4920	0.406622
4904	0.403952
4888	0.492382
4872	0.226879
4856	0.075149
4840	0.171685
4824	0.276827
4808	-0.171113
4792	0.252723
4776	0.703024
4760	0.451564
4744	0.698351
4728	0.588107
4712	0.895738
4696	0.374150
4680	-0.248265
4664	-0.723171
4648	-0.714230
4632	-1.741218
4616	-0.266504
4600	6.738424
4584	31.7961
4568	-2.447342
4552	-2.063488
4536	-2.699184
4520	-1.340770
4504	-1.122236
4488	-0.218248
4472	0.204801
4456	0.286793
4440	0.564670
4424	0.332021
4408	0.181722
4392	0.349307
4376	0.132918
4360	0.024056
4344	0.049090
4328	0.328683
4312	0.381112
4296	0.547003
4280	0.270509
4264	0.363254
4248	0.310373
4232	0.104427
4216	0.370573
4200	0.206685
4184	-0.009655
4168	0.543951
4152	0.188541
4136	0.255513
4120	0.184202
4104	0.397491
4088	0.314784
4072	0.279808
4056	-0.121855
4040	-0.048804
4024	0.011491
4008	0.329899
3992	0.179123
3976	-0.083088
3960	0.000190
3944	0.216150
3928	0.163102
3912	-0.070118
3896	-0.001049
3880	0.042700
3864	0.036692
3848	0.191640
3832	-0.073814
3816	0.235772
3800	0.067257
3784	0.141835
3768	0.087022
3752	0.016760
3736	0.029134
3720	0.170445
3704	-0.080752
3688	0.117611
3672	-0.087618
3656	0.204777
3640	0.207519
3624	0.077295
3608	0.134611
3592	0.076246
3576	0.008034
3560	-0.074601
3544	0.045132
3528	-0.014686
3512	0.071144
3496	-0.014948
3480	0.240540
3464	-0.098752
3448	0.116062
3432	0.046205
3416	-0.008130
3400	-0.052452
3384	0.090456
3368	0.089335
3352	0.093746
3336	-0.094246
3320	-0.003504
3304	0.058054
3288	-0.055241
3272	0.037765
3256	0.234341
3240	0.073957
3224	0.019884
3208	0.056171
3192	0.080752
3176	0.005412
3160	0.041770
3144	0.155520
3128	0.197720
3112	-0.083088
3096	0.169062
3080	-0.003838
3064	-0.027537
3048	0.025510
3032	0.154685
3016	0.051450
3000	0.064206
2984	0.032973
2968	0.192236
2952	-0.084495
2936	0.001716
2920	0.157690
2904	0.056886
2888	0.154376
2872	-0.040745
2856	0.108766
2840	-0.042128
2824	0.051903
2808	0.032639
2792	0.044417
2776	-0.048780
2760	0.061583
2744	-0.013518
2728	0.012230
2712	0.101661
2696	0.031089
2680	0.053358
2664	-0.028729
2648	0.023245
2632	0.075125
2616	0.143289
2600	0.056123
2584	0.060963
2568	-0.009775
2552	0.042200
2536	-0.084042
2520	0.020790
2504	0.058007
2488	0.014066
2472	-0.005722
2456	0.193595
2440	0.019645
2424	0.165009
2408	0.149917
2392	0.075936
2376	0.161361
2360	0.115966
2344	0.417542
2328	0.500392
2312	0.775218
2296	1.043844
2280	1.407027
2264	2.056527
2248	2.690458
2232	3.474116
2216	4.495501
2200	5.736541
2184	7.093691
2168	8.567833
2152	10.0226
2136	11.8887
2120	13.5925
2104	15.1906
2088	16.6933
2072	18.2486
2056	19.8712
2040	20.9962
2024	22.0925
2008	23.3343
1992	24.0963
1976	24.8253
1960	25.6125
1944	26.3258
1928	26.6287
1912	26.9423
1896	27.6172
1880	27.861
1864	27.8763
1848	28.0645
1832	28.5595
1816	28.5686
1800	28.5403
1784	28.808
1768	29.0525
1752	29.0764
1736	28.7092
1720	28.9372
1704	29.2232
1688	29.0347
1672	28.9175
1656	29.0746
1640	29.2696
1624	29.1427
1608	28.8436
1592	28.9692
1576	29.3766
1560	28.9868
1544	28.8504
1528	29.1197
1512	29.32
1496	28.9486
1480	28.6362
1464	29.2096
1448	29.3043
1432	28.6448
1416	28.4542
1400	28.8041
1384	29.0467
1368	28.5221
1352	28.1265
1336	28.7624
1320	28.9724
1304	28.5088
1288	28.0235
1272	28.5511
1256	28.7814
1240	28.3033
1224	28.0371
1208	28.2962
1192	28.4609
1176	27.9567
1160	27.6098
1144	27.9669
1128	28.1745
1112	27.7096
1096	27.3124
1080	27.6888
1064	27.9501
1048	27.523
1032	26.8755
1016	27.1111
1000	27.5154
984	 27.1715
968	 26.0957
952	 26.5709
936	 26.7961
920	 26.4786
904	 25.8939
888	 25.8485
872	 26.1371
856	 25.7449
840	 24.9061
824	 25.1158
808	 25.2825
792	 24.9671
776	 23.9142
760	 24.1588
744	 24.2309
728	 23.7039
712	 22.9416
696	 23.1744
680	 23.2771
664	 22.5276
648	 21.9082
632	 21.4334
616	 21.9247
600	 21.4101
584	 20.3577
568	 20.1467
552	 21.1483
536	 21.7107
520	 16.711
504	 16.806
488	 18.7753
472	 18.2016
456	 14.4357
440	 16.9644
424	 13.1232
408	 9.634971
392	 31.027
376	 -19.4634
370	 1.837730

File: LPE454_t110.asc
PE IR       SPECTRUM    SPECTRUM    ASCII       PEDS        1.60
  -1
LP93FD~1.ASC
17/05/19
23:22:14.00
17/05/19
23:22:40.00
tln
$LPE454_t0110$<tbV0>[-13.0,10.4,8.0,0.0,27,1,0]
27.028
64

2002,4.07
MIRTGS : RIGHTBACK : INTERNAL 2
MIR : ON : INTERNAL 2
OPTKBR

0.200000
8
8.000000
FILLER
RATIO
SPECTRUM
UNLOCKED 256

DOUBLE
64
COMBINED
1
0
0

0.002000
RATIO

1
0
TRUE
51149
0
LEFT NOT FITTED RIGHT NOT FITTED 0
NONE
NONE
15600
12
4.427000
51148
TRUE
1 0 8 72 0 0 0 0

15798

#HDR
-1
-1
#GR
µM
%T
2.38419e-05
0.0
2.000000
0.002000
12515
8
40.554
-4.410927
#DATA
2.000000	 0.317454
2.084000	 0.173590
2.168000	 0.889757
2.252000	 0.209206
2.336000	 0.186834
2.420000	 -0.121536
2.504000	 0.087856
2.588000	 -0.049962
2.672000	 0.120599
2.756000	 0.126824
2.840000	 0.042446
2.924000	 0.109830
3.008000	 -0.002780
3.092000	 -0.008089
3.176000	 0.013126
3.260000	 0.083042
3.344000	 0.115643
3.428000	 -0.116358
3.512000	 0.119738
3.596000	 -0.077688
3.680000	 0.095201
3.764000	 0.030550
3.848000	 0.098051
3.932000	 0.031919
4.016000	 -0.038305
4.100000	 -0.056630
4.184000	 -0.029870
4.268000	 0.233577
4.352000	 0.652019
4.436000	 1.779212
4.520000	 3.595455
4.604000	 6.377651
4.688000	 9.898393
4.772000	 13.3892
4.856000	 16.3861
4.940000	 19.3192
5.024000	 21.3141
5.108000	 22.7983
5.192000	 24.0396
5.276000	 24.8895
5.359999	 25.3814
5.444000	 25.922
5.528000	 26.1837
5.612000	 26.4374
5.696000	 26.5604
5.780000	 26.7012
5.864000	 26.7483
5.948000	 26.8905
6.032000	 26.848
6.116000	 26.9084
6.200000	 26.845
6.284000	 26.8296
6.368000	 26.8779
6.452000	 26.9002
6.536000	 26.8571
6.620000	 26.7629
6.704000	 26.8708
6.788000	 26.7797
6.872000	 26.7739
6.956000	 26.8413
7.040000	 26.667
7.124000	 26.5342
7.208000	 26.5284
7.292000	 26.6585
7.376000	 26.5149
7.460000	 26.4532
7.544000	 26.4722
7.628000	 26.5374
7.712000	 26.4591
7.796000	 26.3916
7.880000	 26.3537
7.964000	 26.403
8.048000	 26.2888
8.132000	 26.2313
8.216000	 26.1345
8.300000	 26.0483
8.384000	 26.0229
8.468000	 25.9289
8.552000	 25.7426
8.635999	 25.74
8.719999	 25.7215
8.804000	 25.7401
8.888000	 25.6504
8.972000	 25.5985
9.056000	 25.3879
9.140000	 25.2046
9.224000	 25.393
9.308000	 25.2834
9.391999	 25.3736
9.475999	 25.2302
9.560000	 25.0412
9.644000	 24.9605
9.728000	 25.0467
9.812000	 24.96
9.896000	 24.9384
9.980000	 24.7531
10.064	24.5786
10.148	24.4784
10.232	24.4181
10.316	24.3665
10.4	24.3656
10.484	24.1478
10.568	24.2505
10.652	24.376
10.736	24.0845
10.82	23.7515
10.904	23.5695
10.988	23.6092
11.072	23.8408
11.156	23.7879
11.24	23.8566
11.324	23.6508
11.408	23.4588
11.492	23.1257
11.576	23.1638
11.66	23.2026
11.744	23.0176
11.828	22.9096
11.912	23.0573
11.996	23.1095
12.08	22.9876
12.164	22.916
12.248	22.7982
12.332	22.5143
12.416	22.4075
12.5	22.3178
12.584	22.2366
12.668	22.142
12.752	22.1547
12.836	22.1582
12.92	22.1518
13.004	22.2918
13.088	22.4437
13.172	22.382
13.256	22.1009
13.34	21.8033
13.424	21.6102
13.508	21.6583
13.592	21.6899
13.676	21.5249
13.76	21.3002
13.844	21.0997
13.928	21.0079
14.012	21.1345
14.096	21.1961
14.18	21.1495
14.264	21.2041
14.348	21.1751
14.432	21.0718
14.516	20.97
14.6	20.6728
14.684	20.3585
14.768	20.3753
14.852	20.4608
14.936	20.2774
15.02	20.0523
15.104	20.1569
15.188	20.4936
15.272	20.6226
15.356	20.4076
15.44	20.165
15.524	20.0814
15.608	20.0143
15.692	19.9604
15.776	20.0138
15.86	20.0142
15.944	19.8207
16.028	19.5308
16.112	19.2603
16.196	19.0352
16.28	18.8493
16.364	18.7424
16.448	18.8228
16.532	19.1263
16.616	19.4746
16.7	19.5679
16.784	19.2687
16.868	18.7837
16.952	18.4633
17.036	18.4091
17.12	18.4575
17.204	18.5146
17.288	18.6222
17.372	18.7403
17.456	18.7676
17.54	18.7265
17.624	18.6862
17.708	18.5945
17.792	18.3964
17.876	18.1741
17.96	18.0467
18.044	18.0227
18.128	18.0401
18.212	18.0442
18.296	17.9498
18.38	17.6407
18.464	17.1256
18.548	16.6212
18.632	16.3669
18.716	16.3597
18.8	16.3647
18.884	16.2203
18.968	16.0136
19.052	15.9664
19.136	16.2111
19.22	16.7092
19.304	17.2955
19.388	17.7787
19.472	18.0434
19.556	18.1029
19.64	18.0423
19.724	17.8644
19.808	17.4767
19.892	16.8521
19.976	16.1631
20.06	15.6835
20.144	15.5714
20.228	15.7618
20.312	16.043
20.396	16.2166
20.48	16.2146
20.564	16.093
20.648	15.9621
20.732	15.9079
20.816	15.9437
20.9	16.0214
20.984	16.0697
21.068	16.0378
21.152	15.9181
21.236	15.737
21.32	15.5372
21.404	15.3616
21.488	15.2303
21.572	15.1357
21.656	15.052
21.74	14.9648
21.824	14.9064
21.908	14.9578
21.992	15.1887
22.076	15.5837
22.16	16.008
22.244	16.2556
22.328	16.1641
22.412	15.7003
22.496	14.996
22.58	14.2704
22.664	13.7288
22.748	13.4782
22.832	13.5043
22.916	13.722
23	14.045
23.084	14.4187
23.168	14.8232
23.252	15.2452
23.336	15.6331
23.42	15.8767
23.504	15.8588
23.588	15.53
23.672	14.9477
23.756	14.2701
23.84	13.6773
23.924	13.301
24.008	13.181
24.092	13.2738
24.176	13.494
24.26	13.7484
24.344	13.9292
24.428	13.9248
24.512	13.6045
24.596	12.9235
24.68	11.9678
24.764	10.9511
24.848	10.1971
24.932	10.0334
25.016	10.5906
25.1	11.6613
25.184	12.8267
25.268	13.6843
25.352	14.0459
25.436	13.901
25.52	13.369
25.604	12.5974
25.688	11.8978
25.772	11.607
25.856	11.8955
25.94	12.5287
26.024	12.9519
26.108	12.5962
26.192	11.6408
26.276	11.0737
26.36	12.6158
26.444	17.283
26.528	24.6516
26.612	32.6981
26.696	38.7287
26.78	40.4985
26.864	37.3949
26.948	30.6277
27.028	23.0528

File: LPE454_t110_cm-1.asc
PE IR       SPECTRUM    SPECTRUM    ASCII       PEDS        1.60
  -1
LP0358~1.ASC
17/05/19
23:22:14.00
17/05/19
23:22:14.00
tln
$LPE454_t0110$<tbV0>[-13.0,10.4,8.0,0.0,27,1,0]
370
64

2002,4.07
MIRTGS : RIGHTBACK : INTERNAL 2
MIR : ON : INTERNAL 2
OPTKBR

0.200000
8
8.000000
FILLER
RATIO
SPECTRUM
UNLOCKED 256

DOUBLE
64
COMBINED
1
0
0

1.000000
RATIO

1
0
TRUE
51149
0
LEFT NOT FITTED RIGHT NOT FITTED 0
NONE
NONE
15600
12
4.427000
51148
TRUE
1 0 8 72 0 0 0 0

15798

#HDR
-1
-1
#GR
CM-1
%T
2.38419e-05
0.0
5000
-1.000000
4631
8
40.2595
-4.469680
#DATA
5000	0.317454
4984	-0.022816
4968	0.641679
4952	0.095462
4936	-0.152969
4920	0.364089
4904	0.343227
4888	-0.004601
4872	0.048136
4856	-0.008678
4840	0.012278
4824	0.258159
4808	0.114130
4792	0.264978
4776	0.369167
4760	0.347375
4744	0.071167
4728	0.353384
4712	-0.192856
4696	-0.663638
4680	-0.452041
4664	-0.578284
4648	-0.327634
4632	0.195169
4616	0.303483
4600	6.929016
4584	8.218646
4568	-2.368330
4552	-2.843499
4536	-0.591945
4520	-0.397038
4504	0.160837
4488	0.077438
4472	0.041198
4456	0.591897
4440	0.199532
4424	0.435614
4408	0.068974
4392	0.036931
4376	0.320172
4360	0.005245
4344	0.338411
4328	0.196862
4312	0.228643
4296	0.049996
4280	0.181841
4264	-0.019764
4248	-0.001502
4232	-0.012993
4216	0.018906
4200	-0.004410
4184	0.087475
4168	0.107216
4152	-0.032424
4136	-0.126695
4120	-0.342869
4104	0.180196
4088	1.467680
4072	-0.309300
4056	0.404262
4040	0.136399
4024	-0.470662
4008	0.316953
3992	-0.011110
3976	0.289845
3960	-0.083541
3944	0.041007
3928	0.171470
3912	0.107622
3896	-0.006818
3880	0.038266
3864	-0.050354
3848	0.085663
3832	0.258231
3816	-0.106668
3800	-0.072169
3784	0.028300
3768	-0.101661
3752	0.012826
3736	0.083422
3720	-0.132131
3704	0.106644
3688	0.174069
3672	0.007557
3656	-0.111484
3640	0.056624
3624	-0.003981
3608	0.093054
3592	-0.096392
3576	0.166869
3560	-0.049829
3544	0.206661
3528	0.196814
3512	0.023889
3496	-0.002646
3480	0.004696
3464	0.021624
3448	0.026130
3432	0.006866
3416	0.089311
3400	0.099539
3384	0.218367
3368	-0.007653
3352	0.012445
3336	0.196814
3320	-0.010943
3304	0.050354
3288	0.020194
3272	-0.011682
3256	0.218439
3240	-0.007438
3224	-0.040793
3208	-0.159764
3192	0.055813
3176	0.175666
3160	0.140285
3144	0.007796
3128	-0.020122
3112	0.186705
3096	0.026488
3080	-0.013995
3064	0.096082
3048	0.088477
3032	0.209403
3016	0.045633
3000	0.022459
2984	0.106978
2968	-0.010395
2952	-0.000047
2936	0.036263
2920	-0.104236
2904	-0.016808
2888	0.037097
2872	0.180482
2856	0.043892
2840	-0.028777
2824	0.100731
2808	0.030064
2792	0.018119
2776	-0.112676
2760	0.009608
2744	0.022649
2728	0.060343
2712	0.159287
2696	-0.099539
2680	0.069880
2664	-0.026869
2648	0.013542
2632	0.012540
2616	0.020980
2600	0.078630
2584	-0.085473
2568	0.028562
2552	0.067281
2536	0.004553
2520	0.057697
2504	0.163817
2488	-0.019931
2472	-0.033950
2456	-0.040435
2440	-0.059485
2424	-0.012302
2408	-0.036931
2392	-0.047039
2376	0.256967
2360	0.147914
2344	0.228977
2328	0.265312
2312	0.568795
2296	0.671839
2280	0.960397
2264	1.402139
2248	2.006578
2232	2.649402
2216	3.365111
2200	4.376125
2184	5.487227
2168	6.705117
2152	8.210039
2136	9.596872
2120	11.0822
2104	12.6126
2088	14.1168
2072	15.6455
2056	16.7964
2040	18.1583
2024	19.3342
2008	20.2468
1992	21.2414
1976	22.077
1960	22.696
1944	23.3584
1928	24.0021
1912	24.4295
1896	24.8764
1880	25.1027
1864	25.4322
1848	25.7816
1832	25.9275
1816	26.0946
1800	26.2545
1784	26.4184
1768	26.4531
1752	26.5775
1736	26.6757
1720	26.8577
1704	26.7711
1688	26.7355
1672	26.8442
1656	26.8383
1640	26.9407
1624	26.9176
1608	26.8154
1592	26.8281
1576	26.8431
1560	26.9778
1544	26.9309
1528	26.8722
1512	26.7801
1496	26.9439
1480	26.7859
1464	26.7784
1448	26.7094
1432	26.8731
1416	26.6535
1400	26.4479
1384	26.5993
1368	26.6614
1352	26.4991
1336	26.4223
1320	26.6064
1304	26.5169
1288	26.4577
1272	26.3393
1256	26.3936
1240	26.2702
1224	26.2174
1208	26.0927
1192	26.0156
1176	25.8435
1160	25.7503
1144	25.7109
1128	25.6326
1112	25.499
1096	25.2377
1080	25.3933
1064	25.3639
1048	25.0524
1032	24.9933
1016	24.9247
1000	24.7227
984	 24.4862
968	 24.3699
952	 24.1075
936	 24.2701
920	 23.6307
904	 23.8322
888	 23.8281
872	 23.1949
856	 23.1803
840	 23.0462
824	 22.9165
808	 22.4474
792	 22.1775
776	 22.1439
760	 22.412
744	 21.6018
728	 21.3625
712	 21.185
696	 21.1497
680	 20.33
664	 20.0531
648	 20.1805
632	 20.036
616	 18.9464
600	 19.5773
584	 18.4595
568	 18.6959
552	 18.0372
536	 16.3472
520	 16.7834
504	 17.2524
488	 16.2026
472	 15.8489
456	 14.9988
440	 13.5118
424	 15.5471
408	 13.6175
392	 13.4468
376	 31.2414
370	 23.0528

File: LPE454_t111.asc
PE IR       SPECTRUM    SPECTRUM    ASCII       PEDS        1.60
  -1
LP97FD~1.ASC
17/05/19
23:33:04.00
17/05/19
23:33:30.00
tln
$LPE454_t0111$<tbV0>[13.0,13.0,8.0,0.0,27,1,0]
27.028
64

2002,4.07
MIRTGS : RIGHTBACK : INTERNAL 2
MIR : ON : INTERNAL 2
OPTKBR

0.200000
8
8.000000
FILLER
RATIO
SPECTRUM
UNLOCKED 256

DOUBLE
64
COMBINED
1
0
0

0.002000
RATIO

1
0
TRUE
51149
0
LEFT NOT FITTED RIGHT NOT FITTED 0
NONE
NONE
15600
12
4.427000
51148
TRUE
1 0 8 72 0 0 0 0

15798

#HDR
-1
-1
#GR
µM
%T
2.38419e-05
0.0
2.000000
0.002000
12515
8
31.3798
-7.284074
#DATA
2.000000	 0.378704
2.084000	 -0.210091
2.168000	 0.091498
2.252000	 0.001032
2.336000	 0.034376
2.420000	 0.168385
2.504000	 -0.020299
2.588000	 0.048811
2.672000	 0.012497
2.756000	 0.084094
2.840000	 -0.065255
2.924000	 -0.024160
3.008000	 0.031819
3.092000	 0.085074
3.176000	 0.064457
3.260000	 -0.149307
3.344000	 -0.019186
3.428000	 -0.004805
3.512000	 0.009779
3.596000	 0.115870
3.680000	 -0.021400
3.764000	 -0.025691
3.848000	 -0.041975
3.932000	 -0.055531
4.016000	 -0.071115
4.100000	 -0.041880
4.184000	 0.027234
4.268000	 0.045760
4.352000	 0.119172
4.436000	 0.569041
4.520000	 1.567405
4.604000	 3.337861
4.688000	 6.123781
4.772000	 9.045946
4.856000	 12.1412
4.940000	 14.7331
5.024000	 16.8909
5.108000	 18.7308
5.192000	 20.1027
5.276000	 21.2496
5.359999	 22.013
5.444000	 22.762
5.528000	 23.3418
5.612000	 23.5613
5.696000	 23.8658
5.780000	 24.17
5.864000	 24.3717
5.948000	 24.5969
6.032000	 24.8751
6.116000	 24.9821
6.200000	 25.0334
6.284000	 25.1997
6.368000	 25.2059
6.452000	 25.1469
6.536000	 25.1443
6.620000	 25.2067
6.704000	 25.1914
6.788000	 25.073
6.872000	 25.0451
6.956000	 24.9622
7.040000	 25.118
7.124000	 25.0727
7.208000	 24.9409
7.292000	 24.9374
7.376000	 24.9537
7.460000	 24.8934
7.544000	 24.7094
7.628000	 24.5925
7.712000	 24.6318
7.796000	 24.4095
7.880000	 24.3929
7.964000	 24.2962
8.048000	 24.0072
8.132000	 23.9167
8.216000	 23.9209
8.300000	 23.806
8.384000	 23.8744
8.468000	 23.7705
8.552000	 23.7591
8.635999	 23.5243
8.719999	 23.3772
8.804000	 23.3344
8.888000	 23.1015
8.972000	 23.0049
9.056000	 22.9455
9.140000	 22.6704
9.224000	 22.8775
9.308000	 22.7088
9.391999	 22.6633
9.475999	 22.5497
9.560000	 22.4056
9.644000	 22.286
9.728000	 22.2488
9.812000	 22.16
9.896000	 21.9171
9.980000	 21.8978
10.064	21.8406
10.148	21.8051
10.232	21.5996
10.316	21.5382
10.4	21.4043
10.484	21.2059
10.568	21.3553
10.652	21.1504
10.736	21.0106
10.82	20.9454
10.904	20.7216
10.988	20.6897
11.072	20.8376
11.156	20.7519
11.24	20.5088
11.324	20.3559
11.408	20.3623
11.492	20.342
11.576	20.2617
11.66	20.1278
11.744	20.1556
11.828	19.9934
11.912	19.8066
11.996	19.6897
12.08	19.6144
12.164	19.469
12.248	19.5187
12.332	19.5111
12.416	19.5882
12.5	19.1915
12.584	18.9489
12.668	19.109
12.752	19.1789
12.836	18.9931
12.92	18.7691
13.004	18.7682
13.088	18.7721
13.172	18.6299
13.256	18.3901
13.34	18.1875
13.424	18.2688
13.508	18.2853
13.592	18.2979
13.676	18.3646
13.76	18.3151
13.844	18.1613
13.928	18.017
14.012	17.8527
14.096	17.6358
14.18	17.5288
14.264	17.5035
14.348	17.5289
14.432	17.568
14.516	17.4725
14.6	17.243
14.684	16.9721
14.768	16.7998
14.852	16.7124
14.936	16.6521
15.02	16.7085
15.104	16.7461
15.188	16.7032
15.272	16.739
15.356	16.7574
15.44	16.6577
15.524	16.5403
15.608	16.4553
15.692	16.3969
15.776	16.3363
15.86	16.2383
15.944	16.1226
16.028	16.0077
16.112	15.8662
16.196	15.7636
16.28	15.8335
16.364	15.9906
16.448	15.9671
16.532	15.6979
16.616	15.3964
16.7	15.2632
16.784	15.2946
16.868	15.3526
16.952	15.3755
17.036	15.4399
17.12	15.5937
17.204	15.7338
17.288	15.7054
17.372	15.47
17.456	15.1424
17.54	14.8694
17.624	14.6606
17.708	14.4123
17.792	14.1169
17.876	13.9438
17.96	14.0164
18.044	14.2062
18.128	14.2637
18.212	14.1152
18.296	13.9184
18.38	13.8375
18.464	13.8525
18.548	13.8362
18.632	13.7574
18.716	13.7222
18.8	13.7972
18.884	13.8848
18.968	13.8328
19.052	13.6473
19.136	13.4881
19.22	13.4679
19.304	13.5137
19.388	13.4896
19.472	13.4007
19.556	13.4076
19.64	13.6176
19.724	13.8865
19.808	13.8809
19.892	13.3358
19.976	12.3073
20.06	11.1803
20.144	10.4204
20.228	10.2774
20.312	10.6634
20.396	11.276
20.48	11.8212
20.564	12.1685
20.648	12.3675
20.732	12.5368
20.816	12.7564
20.9	13.0055
20.984	13.1881
21.068	13.2068
21.152	13.0361
21.236	12.7513
21.32	12.5018
21.404	12.4511
21.488	12.68
21.572	13.151
21.656	13.7132
21.74	14.1472
21.824	14.2442
21.908	13.8857
21.992	13.0993
22.076	12.062
22.16	11.0414
22.244	10.2772
22.328	9.878474
22.412	9.800409
22.496	9.900164
22.58	10.0669
22.664	10.2875
22.748	10.6312
22.832	11.1401
22.916	11.751
23	12.2781
23.084	12.5056
23.168	12.3058
23.252	11.7349
23.336	11.0028
23.42	10.3763
23.504	10.0791
23.588	10.2002
23.672	10.6943
23.756	11.426
23.84	12.2234
23.924	12.9496
24.008	13.5336
24.092	13.9703
24.176	14.3186
24.26	14.641
24.344	14.9433
24.428	15.1399
24.512	15.0678
24.596	14.5333
24.68	13.4384
24.764	11.905
24.848	10.2301
24.932	8.847436
25.016	8.145376
25.1	8.295749
25.184	9.237606
25.268	10.7382
25.352	12.5525
25.436	14.4086
25.52	16.1404
25.604	17.7591
25.688	19.4028
25.772	21.2193
25.856	23.215
25.94	25.2196
26.024	26.8102
26.108	27.3819
26.192	26.5261
26.276	24.1185
26.36	20.317
26.444	15.6084
26.528	10.6483
26.612	6.007202
26.696	2.050558
26.78	-1.121809
26.864	-3.615567
26.948	-5.407851
27.028	-6.044316

File: LPE454_t111_cm-1.asc
PE IR       SPECTRUM    SPECTRUM    ASCII       PEDS        1.60
  -1
LP0458~1.ASC
17/05/19
23:33:04.00
17/05/19
23:33:04.00
tln
$LPE454_t0111$<tbV0>[13.0,13.0,8.0,0.0,27,1,0]
370
64

2002,4.07
MIRTGS : RIGHTBACK : INTERNAL 2
MIR : ON : INTERNAL 2
OPTKBR

0.200000
8
8.000000
FILLER
RATIO
SPECTRUM
UNLOCKED 256

DOUBLE
64
COMBINED
1
0
0

1.000000
RATIO

1
0
TRUE
51149
0
LEFT NOT FITTED RIGHT NOT FITTED 0
NONE
NONE
15600
12
4.427000
51148
TRUE
1 0 8 72 0 0 0 0

15798

#HDR
-1
-1
#GR
CM-1
%T
2.38419e-05
0.0
5000
-1.000000
4631
8
32.1743
-7.616257
#DATA
5000	0.378704
4984	0.289130
4968	-0.257110
4952	0.491237
4936	0.308108
4920	0.059556
4904	-0.065016
4888	0.283455
4872	0.417470
4856	0.037550
4840	0.466108
4824	0.126767
4808	0.435924
4792	-0.026488
4776	0.388312
4760	0.285148
4744	0.117444
4728	0.021862
4712	0.142002
4696	-0.094890
4680	-0.091767
4664	-0.105762
4648	0.237274
4632	0.240397
4616	0.007462
4600	2.264380
4584	15.8826
4568	-0.738906
4552	-0.455260
4536	-0.888490
4520	-0.584459
4504	-0.328278
4488	-0.164532
4472	-0.166821
4456	0.125241
4440	0.016236
4424	0.259304
4408	0.019168
4392	0.027728
4376	-0.161433
4360	0.148677
4344	0.475859
4328	0.301551
4312	0.163578
4296	0.233769
4280	0.083184
4264	0.088405
4248	0.196957
4232	0.288009
4216	-0.009083
4200	0.252628
4184	0.095939
4168	-0.070691
4152	-0.588822
4136	0.087428
4120	0.342988
4104	0.216245
4088	1.850175
4072	-0.127744
4056	0.585508
4040	0.278925
4024	0.005936
4008	0.065350
3992	-0.043249
3976	0.279331
3960	-0.022578
3944	0.237083
3928	-0.039434
3912	-0.004291
3896	-0.011062
3880	0.076150
3864	0.048351
3848	0.117492
3832	-0.000667
3816	0.176525
3800	0.158739
3784	0.026988
3768	0.055289
3752	-0.005841
3736	0.137400
3720	0.073504
3704	0.006985
3688	-0.100731
3672	0.049948
3656	-0.026226
3640	-0.021696
3624	0.030994
3608	0.109243
3592	0.133752
3576	-0.145149
3560	0.063037
3544	0.098967
3528	0.076818
3512	-0.087237
3496	-0.064110
3480	0.058054
3464	0.077366
3448	-0.037908
3432	0.032997
3416	0.020694
3400	-0.044465
3384	0.081110
3368	0.161075
3352	-0.045633
3336	0.142550
3320	0.029897
3304	0.077033
3288	0.031566
3272	0.123739
3256	-0.112390
3240	0.082898
3224	0.176310
3208	0.141429
3192	0.057697
3176	0.044512
3160	-0.037264
3144	0.091624
3128	0.080776
3112	0.042319
3096	0.045871
3080	0.058507
3064	-0.078129
3048	-0.049161
3032	0.026512
3016	-0.004649
3000	0.084543
2984	0.010967
2968	-0.010085
2952	-0.040006
2936	0.078630
2920	-0.011706
2904	0.031352
2888	0.019216
2872	0.052285
2856	0.003552
2840	0.033330
2824	0.086665
2808	0.053501
2792	0.080895
2776	0.079631
2760	0.095748
2744	-0.000452
2728	0.022387
2712	-0.021290
2696	0.018239
2680	0.038385
2664	-0.031733
2648	0.074219
2632	0.063419
2616	0.108957
2600	-0.030708
2584	0.064539
2568	0.049400
2552	-0.037360
2536	0.074291
2520	0.095248
2504	0.087261
2488	-0.005674
2472	0.080227
2456	0.056290
2440	-0.036501
2424	-0.000834
2408	0.022053
2392	0.061559
2376	0.024127
2360	0.037837
2344	0.036525
2328	0.048303
2312	0.037837
2296	0.130367
2280	0.227141
2264	0.430893
2248	0.628376
2232	0.882840
2216	1.360058
2200	2.037405
2184	2.717852
2168	3.601384
2152	4.578948
2136	5.898928
2120	7.087302
2104	8.399319
2088	9.755611
2072	11.0709
2056	12.3463
2040	13.5724
2024	14.7512
2008	15.9175
1992	16.795
1976	17.7925
1960	18.6143
1944	19.3858
1928	20.0173
1912	20.6236
1896	21.2199
1880	21.5727
1864	22.0766
1848	22.4558
1832	22.8225
1816	23.1503
1800	23.427
1784	23.5166
1768	23.8312
1752	23.9038
1736	24.0932
1720	24.2171
1704	24.3907
1688	24.5957
1672	24.623
1656	24.8818
1640	24.9848
1624	25.0884
1608	25.0149
1592	25.207
1576	25.1072
1560	25.2369
1544	25.1763
1528	25.1178
1512	25.2156
1496	25.1868
1480	25.1167
1464	25.0764
1448	25.0863
1432	24.9826
1416	25.1524
1400	25.0767
1384	24.9814
1368	24.9195
1352	24.9178
1336	24.8161
1320	24.6955
1304	24.5579
1288	24.4548
1272	24.4125
1256	24.3086
1240	23.948
1224	23.954
1208	23.8323
1192	23.8855
1176	23.7322
1160	23.5868
1144	23.4055
1128	23.1772
1112	23.0159
1096	22.6741
1080	22.7993
1064	22.6582
1048	22.4714
1032	22.3051
1016	22.0279
1000	21.8473
984	 21.7602
968	 21.5095
952	 21.2397
936	 21.1058
920	 20.815
904	 20.8194
888	 20.4639
872	 20.3568
856	 20.1411
840	 19.8271
824	 19.4767
808	 19.5831
792	 19.0168
776	 18.8367
760	 18.659
744	 18.286
728	 18.3435
712	 17.7651
696	 17.5426
680	 16.9134
664	 16.7424
648	 16.6696
632	 16.2863
616	 15.771
600	 15.2913
584	 15.6004
568	 14.706
552	 14.2695
536	 13.7367
520	 13.473
504	 13.7353
488	 11.8825
472	 12.9254
456	 13.7181
440	 10.5311
424	 10.1887
408	 15.0752
392	 15.9457
376	 6.854224
370	 -6.044316