Folder: Masteroppgave/Bakgrunnsmateriale/MATLAB/FTIR/ftir_data/LPE454/Mapping_121 (part 3)

File: LPE454_e126.asc
PE IR       SPECTRUM    SPECTRUM    ASCII       PEDS        1.60
  -1
LP8B05~1.ASC
17/05/19
21:39:18.00
17/05/19
21:39:45.00
tln
$LPE454_e0126$<ebV0>[-23.3,12.1,10.0,0.0,27,1,0]
27.028
64

2002,4.07
MIRTGS : RIGHTBACK : INTERNAL 2
MIR : ON : INTERNAL 2
OPTKBR

0.200000
8
8.000000
FILLER
SINGLE
SPECTRUM
UNLOCKED 256

DOUBLE

COMBINED
1
0
0

0.002000
BACKG

1
0
TRUE
51149
0
LEFT NOT FITTED RIGHT NOT FITTED 0
NONE
NONE
15600
12
4.427000
51148
TRUE
1 0 8 72 0 0 0 0

15798

#HDR
-1
-1
#GR
µM
EGY
2.38419e-05
0.0
2.000000
0.002000
12515
8
2.426050
0.005217
#DATA
2.000000	 0.768780
2.084000	 0.869280
2.168000	 0.944202
2.252000	 1.013220
2.336000	 1.134854
2.420000	 1.225698
2.504000	 1.392261
2.588000	 1.442851
2.672000	 1.541627
2.756000	 1.564645
2.840000	 1.617838
2.924000	 1.575479
3.008000	 1.676107
3.092000	 1.770309
3.176000	 1.799478
3.260000	 1.915532
3.344000	 2.018472
3.428000	 1.825181
3.512000	 1.997161
3.596000	 2.198435
3.680000	 2.239812
3.764000	 2.203269
3.848000	 2.205777
3.932000	 2.275327
4.016000	 2.306297
4.100000	 2.266456
4.184000	 2.229202
4.268000	 2.238649
4.352000	 2.317377
4.436000	 2.353550
4.520000	 2.342156
4.604000	 2.311629
4.688000	 2.305435
4.772000	 2.307185
4.856000	 2.353682
4.940000	 2.410564
5.024000	 2.423812
5.108000	 2.399671
5.192000	 2.370073
5.276000	 2.338486
5.359999	 2.347099
5.444000	 2.371126
5.528000	 2.397942
5.612000	 2.394210
5.696000	 2.363826
5.780000	 2.290130
5.864000	 2.248599
5.948000	 2.204457
6.032000	 2.156216
6.116000	 2.106893
6.200000	 1.979038
6.284000	 1.989164
6.368000	 1.949458
6.452000	 1.927959
6.536000	 2.067447
6.620000	 2.051511
6.704000	 1.666249
6.788000	 1.945147
6.872000	 1.766164
6.956000	 1.838662
7.040000	 1.828946
7.124000	 1.704233
7.208000	 1.764215
7.292000	 1.787993
7.376000	 1.791962
7.460000	 1.790822
7.544000	 1.822231
7.628000	 1.829607
7.712000	 1.829062
7.796000	 1.826862
7.880000	 1.749252
7.964000	 1.737441
8.048000	 1.811528
8.132000	 1.802235
8.216000	 1.764669
8.300000	 1.725135
8.384000	 1.722251
8.468000	 1.695310
8.552000	 1.655869
8.635999	 1.603541
8.719999	 1.585356
8.804000	 1.556073
8.888000	 1.508959
8.972000	 1.453535
9.056000	 1.416370
9.140000	 1.409548
9.224000	 1.412542
9.308000	 1.412657
9.391999	 1.421137
9.475999	 1.344291
9.560000	 1.311810
9.644000	 1.369026
9.728000	 1.352083
9.812000	 1.346778
9.896000	 1.365621
9.980000	 1.380581
10.064	1.380823
10.148	1.369297
10.232	1.353234
10.316	1.331958
10.4	1.305318
10.484	1.279237
10.568	1.256648
10.652	1.241675
10.736	1.226319
10.82	1.210413
10.904	1.190914
10.988	1.165435
11.072	1.147157
11.156	1.135233
11.24	1.116940
11.324	1.067159
11.408	1.019695
11.492	1.035490
11.576	1.069918
11.66	1.080903
11.744	1.075338
11.828	1.066459
11.912	1.044844
11.996	0.980915
12.08	0.871634
12.164	0.840942
12.248	0.903457
12.332	0.935838
12.416	0.937127
12.5	0.936698
12.584	0.945506
12.668	0.959471
12.752	0.967838
12.836	0.969493
12.92	0.966280
13.004	0.961441
13.088	0.957445
13.172	0.952515
13.256	0.947600
13.34	0.942293
13.424	0.935906
13.508	0.927179
13.592	0.916091
13.676	0.904254
13.76	0.890081
13.844	0.875819
13.928	0.863538
14.012	0.850823
14.096	0.838645
14.18	0.825902
14.264	0.809737
14.348	0.789657
14.432	0.761630
14.516	0.733230
14.6	0.721989
14.684	0.723617
14.768	0.722890
14.852	0.717898
14.936	0.710284
15.02	0.701085
15.104	0.693066
15.188	0.685853
15.272	0.677339
15.356	0.667330
15.44	0.656994
15.524	0.647338
15.608	0.638100
15.692	0.628665
15.776	0.619407
15.86	0.610735
15.944	0.602449
16.028	0.594067
16.112	0.585269
16.196	0.575116
16.28	0.561973
16.364	0.545917
16.448	0.530718
16.532	0.521273
16.616	0.518441
16.7	0.518216
16.784	0.516388
16.868	0.512265
16.952	0.507437
17.036	0.503315
17.12	0.500081
17.204	0.497196
17.288	0.494489
17.372	0.492253
17.456	0.490516
17.54	0.488668
17.624	0.486101
17.708	0.482509
17.792	0.478002
17.876	0.472979
17.96	0.467982
18.044	0.463140
18.128	0.458489
18.212	0.453916
18.296	0.449378
18.38	0.444667
18.464	0.439734
18.548	0.435015
18.632	0.430765
18.716	0.426740
18.8	0.422407
18.884	0.417357
18.968	0.411717
19.052	0.405684
19.136	0.399625
19.22	0.393816
19.304	0.388539
19.388	0.383791
19.472	0.379291
19.556	0.374368
19.64	0.368682
19.724	0.362840
19.808	0.358000
19.892	0.354569
19.976	0.351344
20.06	0.346550
20.144	0.339142
20.228	0.329815
20.312	0.320259
20.396	0.311754
20.48	0.304538
20.564	0.298022
20.648	0.291556
20.732	0.284713
20.816	0.277710
20.9	0.270842
20.984	0.264413
21.068	0.258621
21.152	0.253424
21.236	0.248626
21.32	0.243850
21.404	0.238635
21.488	0.232598
21.572	0.225615
21.656	0.218054
21.74	0.210374
21.824	0.203133
21.908	0.196346
21.992	0.189852
22.076	0.183341
22.16	0.176744
22.244	0.170343
22.328	0.164482
22.412	0.159365
22.496	0.154992
22.58	0.151206
22.664	0.147762
22.748	0.144384
22.832	0.140912
22.916	0.137182
23	0.132937
23.084	0.128358
23.168	0.123342
23.252	0.118135
23.336	0.112912
23.42	0.107644
23.504	0.102454
23.588	0.097299
23.672	0.092214
23.756	0.087352
23.84	0.082769
23.924	0.078532
24.008	0.074618
24.092	0.070860
24.176	0.067213
24.26	0.063589
24.344	0.060095
24.428	0.056775
24.512	0.053808
24.596	0.051069
24.68	0.048526
24.764	0.045996
24.848	0.043330
24.932	0.040532
25.016	0.037615
25.1	0.034716
25.184	0.032002
25.268	0.029573
25.352	0.027554
25.436	0.025932
25.52	0.024640
25.604	0.023680
25.688	0.022906
25.772	0.022183
25.856	0.021456
25.94	0.020634
26.024	0.019570
26.108	0.018244
26.192	0.016651
26.276	0.014867
26.36	0.012912
26.444	0.010998
26.528	0.009145
26.612	0.007589
26.696	0.006375
26.78	0.005606
26.864	0.005245
26.948	0.005300
27.028	0.005602

File: LPE454_e126_cm-1.asc
PE IR       SPECTRUM    SPECTRUM    ASCII       PEDS        1.60
  -1
LP091C~1.ASC
17/05/19
21:39:18.00
17/05/19
21:39:18.00
tln
$LPE454_e0126$<ebV0>[-23.3,12.1,10.0,0.0,27,1,0]
370
64

2002,4.07
MIRTGS : RIGHTBACK : INTERNAL 2
MIR : ON : INTERNAL 2
OPTKBR

0.200000
8
8.000000
FILLER
SINGLE
SPECTRUM
UNLOCKED 256

DOUBLE

COMBINED
1
0
0

1.000000
BACKG

1
0
TRUE
51149
0
LEFT NOT FITTED RIGHT NOT FITTED 0
NONE
NONE
15600
12
4.427000
51148
TRUE
1 0 8 72 0 0 0 0

15798

#HDR
-1
-1
#GR
CM-1
EGY
2.38419e-05
0.0
5000
-1.000000
4631
8
2.426052
0.005221
#DATA
5000	0.768780
4984	0.775575
4968	0.783681
4952	0.792884
4936	0.795888
4920	0.801086
4904	0.809240
4888	0.816416
4872	0.821638
4856	0.830864
4840	0.839304
4824	0.851917
4808	0.862479
4792	0.873303
4776	0.880765
4760	0.891280
4744	0.896143
4728	0.902605
4712	0.907683
4696	0.909805
4680	0.904369
4664	0.912141
4648	0.912189
4632	0.922799
4616	0.935721
4600	0.943589
4584	0.719833
4568	0.953173
4552	0.961303
4536	0.981402
4520	0.988101
4504	0.997066
4488	1.007080
4472	1.007962
4456	1.011943
4440	1.013159
4424	1.018953
4408	1.021575
4392	1.024293
4376	1.034355
4360	1.046371
4344	1.060175
4328	1.078724
4312	1.096868
4296	1.116442
4280	1.135444
4264	1.152443
4248	1.166534
4232	1.177930
4216	1.184248
4200	1.191759
4184	1.202487
4168	1.208281
4152	1.221370
4136	1.222610
4120	1.252317
4104	1.257658
4088	1.294755
4072	1.300120
4056	1.318836
4040	1.343393
4024	1.365232
4008	1.376962
3992	1.392388
3976	1.402068
3960	1.409101
3944	1.413512
3928	1.415872
3912	1.426267
3896	1.428413
3880	1.434779
3864	1.442837
3848	1.453804
3832	1.469373
3816	1.486253
3800	1.507854
3784	1.532626
3768	1.542663
3752	1.531958
3736	1.550126
3720	1.565861
3704	1.569795
3688	1.561021
3672	1.554298
3656	1.564407
3640	1.570081
3624	1.569080
3608	1.577854
3592	1.586985
3576	1.595997
3560	1.607847
3544	1.609802
3528	1.615452
3512	1.617312
3496	1.615834
3480	1.602673
3464	1.595520
3448	1.584601
3432	1.575732
3416	1.577520
3400	1.585817
3384	1.595640
3368	1.611614
3352	1.631546
3336	1.656699
3320	1.684093
3304	1.703357
3288	1.723289
3272	1.743292
3256	1.755905
3240	1.767706
3224	1.773571
3208	1.775312
3192	1.779794
3176	1.784133
3160	1.791548
3144	1.805567
3128	1.817202
3112	1.839733
3096	1.866030
3080	1.901507
3064	1.919174
3048	1.949453
3032	1.962661
3016	1.948142
3000	2.008366
2984	2.012085
2968	1.948428
2952	1.905941
2936	1.800560
2920	1.789426
2904	1.933002
2888	1.982760
2872	1.968669
2856	1.910543
2840	2.050805
2824	2.111887
2808	2.147483
2792	2.173733
2776	2.208757
2760	2.228140
2744	2.236652
2728	2.239632
2712	2.236032
2696	2.227950
2680	2.218866
2664	2.209472
2648	2.200245
2632	2.198934
2616	2.202725
2600	2.205157
2584	2.217698
2568	2.243518
2552	2.267479
2536	2.281546
2520	2.296209
2504	2.305126
2488	2.305984
2472	2.297377
2456	2.285361
2440	2.267551
2424	2.252483
2408	2.238273
2392	2.229905
2376	2.222108
2360	2.212190
2344	2.238345
2328	2.260613
2312	2.292418
2296	2.319574
2280	2.336478
2264	2.348732
2248	2.354073
2232	2.354049
2216	2.345061
2200	2.332448
2184	2.319359
2168	2.308058
2152	2.306628
2136	2.304673
2120	2.310514
2104	2.309608
2088	2.306866
2072	2.331781
2056	2.359986
2040	2.392148
2024	2.410650
2008	2.422428
1992	2.424120
1976	2.415156
1960	2.401995
1944	2.385282
1928	2.372527
1912	2.353620
1896	2.338910
1880	2.343535
1864	2.348279
1848	2.359175
1832	2.373790
1816	2.390909
1800	2.398133
1784	2.394938
1768	2.379417
1752	2.352285
1736	2.293324
1720	2.274537
1704	2.240681
1688	2.216792
1672	2.193951
1656	2.143406
1640	2.121639
1624	2.074050
1608	1.947021
1592	1.988792
1576	1.952910
1560	1.896977
1544	1.925158
1528	2.075529
1512	2.059578
1496	1.677465
1480	1.933884
1464	1.906776
1448	1.758909
1432	1.844453
1416	1.816344
1400	1.707959
1384	1.760530
1368	1.790714
1352	1.789975
1336	1.801228
1320	1.825118
1304	1.827979
1288	1.830077
1272	1.780176
1256	1.733660
1240	1.813340
1224	1.790666
1208	1.728010
1192	1.721191
1176	1.681303
1160	1.610207
1144	1.579952
1128	1.522850
1112	1.440215
1096	1.409745
1080	1.411485
1064	1.420331
1048	1.292943
1032	1.361536
1016	1.352286
1000	1.382517
984	 1.366615
968	 1.327514
952	 1.273298
936	 1.236510
920	 1.200056
904	 1.148867
888	 1.107716
872	 1.025462
856	 1.080465
840	 1.047849
824	 0.835466
808	 0.937867
792	 0.952649
776	 0.968003
760	 0.953412
744	 0.934433
728	 0.894308
712	 0.845885
696	 0.783872
680	 0.723958
664	 0.697040
648	 0.657939
632	 0.614500
616	 0.569677
600	 0.518298
584	 0.499963
568	 0.486731
552	 0.459146
536	 0.429582
520	 0.393104
504	 0.356507
488	 0.303602
472	 0.251436
456	 0.194644
440	 0.145220
424	 0.097489
408	 0.053882
392	 0.024771
376	 0.007867
370	 0.005602

File: LPE454_e127.asc
PE IR       SPECTRUM    SPECTRUM    ASCII       PEDS        1.60
  -1
LP8F05~1.ASC
17/05/19
23:27:42.00
17/05/19
23:28:08.00
tln
$LPE454_e0127$<ebV0>[-23.3,12.1,10.0,0.0,27,1,0]
27.028
64

2002,4.07
MIRTGS : RIGHTBACK : INTERNAL 2
MIR : ON : INTERNAL 2
OPTKBR

0.200000
8
8.000000
FILLER
SINGLE
SPECTRUM
UNLOCKED 256

DOUBLE

COMBINED
1
0
0

0.002000
BACKG

1
0
TRUE
51149
0
LEFT NOT FITTED RIGHT NOT FITTED 0
NONE
NONE
15600
12
4.427000
51148
TRUE
1 0 8 72 0 0 0 0

15798

#HDR
-1
-1
#GR
µM
EGY
2.38419e-05
0.0
2.000000
0.002000
12515
8
2.428809
0.008010
#DATA
2.000000	 0.770783
2.084000	 0.869711
2.168000	 0.920673
2.252000	 1.012610
2.336000	 1.133009
2.420000	 1.232241
2.504000	 1.393666
2.588000	 1.440476
2.672000	 1.540936
2.756000	 1.564498
2.840000	 1.619893
2.924000	 1.575689
3.008000	 1.675408
3.092000	 1.768666
3.176000	 1.799913
3.260000	 1.915647
3.344000	 2.017476
3.428000	 1.825383
3.512000	 1.993227
3.596000	 2.198871
3.680000	 2.239184
3.764000	 2.202789
3.848000	 2.207775
3.932000	 2.274854
4.016000	 2.308194
4.100000	 2.268313
4.184000	 2.228441
4.268000	 2.238169
4.352000	 2.317072
4.436000	 2.354531
4.520000	 2.342676
4.604000	 2.309732
4.688000	 2.307022
4.772000	 2.309250
4.856000	 2.355613
4.940000	 2.413749
5.024000	 2.425712
5.108000	 2.398918
5.192000	 2.369774
5.276000	 2.340757
5.359999	 2.349276
5.444000	 2.370288
5.528000	 2.395332
5.612000	 2.396047
5.696000	 2.366002
5.780000	 2.290608
5.864000	 2.250608
5.948000	 2.205160
6.032000	 2.156867
6.116000	 2.106216
6.200000	 1.975913
6.284000	 1.985683
6.368000	 1.946759
6.452000	 1.930458
6.536000	 2.065635
6.620000	 2.050229
6.704000	 1.664844
6.788000	 1.945165
6.872000	 1.766960
6.956000	 1.837169
7.040000	 1.829477
7.124000	 1.705304
7.208000	 1.762089
7.292000	 1.789487
7.376000	 1.792228
7.460000	 1.789634
7.544000	 1.823113
7.628000	 1.829682
7.712000	 1.828424
7.796000	 1.825363
7.880000	 1.749972
7.964000	 1.736556
8.048000	 1.808938
8.132000	 1.805194
8.216000	 1.763520
8.300000	 1.723537
8.384000	 1.719562
8.468000	 1.694934
8.552000	 1.652802
8.635999	 1.602726
8.719999	 1.584412
8.804000	 1.556547
8.888000	 1.508364
8.972000	 1.453940
9.056000	 1.416182
9.140000	 1.409045
9.224000	 1.412229
9.308000	 1.414639
9.391999	 1.421522
9.475999	 1.342396
9.560000	 1.309398
9.644000	 1.369061
9.728000	 1.352626
9.812000	 1.344710
9.896000	 1.366671
9.980000	 1.381584
10.064	1.380260
10.148	1.368029
10.232	1.352488
10.316	1.332605
10.4	1.306209
10.484	1.279432
10.568	1.258017
10.652	1.242329
10.736	1.227173
10.82	1.212189
10.904	1.192784
10.988	1.165090
11.072	1.144655
11.156	1.135796
11.24	1.117296
11.324	1.065990
11.408	1.018768
11.492	1.036612
11.576	1.073137
11.66	1.079610
11.744	1.072643
11.828	1.066031
11.912	1.046366
11.996	0.981562
12.08	0.872414
12.164	0.842638
12.248	0.903479
12.332	0.935002
12.416	0.935582
12.5	0.935173
12.584	0.943372
12.668	0.957011
12.752	0.967708
12.836	0.970468
12.92	0.966875
13.004	0.960558
13.088	0.957246
13.172	0.955446
13.256	0.951153
13.34	0.943528
13.424	0.934327
13.508	0.924584
13.592	0.914821
13.676	0.905773
13.76	0.893001
13.844	0.877095
13.928	0.864116
14.012	0.853649
14.096	0.841640
14.18	0.827146
14.264	0.811106
14.348	0.791732
14.432	0.762936
14.516	0.733379
14.6	0.722217
14.684	0.724901
14.768	0.724358
14.852	0.717293
14.936	0.708060
15.02	0.699424
15.104	0.692078
15.188	0.685321
15.272	0.677355
15.356	0.667610
15.44	0.657087
15.524	0.646661
15.608	0.636983
15.692	0.628304
15.776	0.620225
15.86	0.611722
15.944	0.602990
16.028	0.594597
16.112	0.586051
16.196	0.575927
16.28	0.563121
16.364	0.547664
16.448	0.532816
16.532	0.523087
16.616	0.519225
16.7	0.517660
16.784	0.515237
16.868	0.511809
16.952	0.508490
17.036	0.505582
17.12	0.502681
17.204	0.499655
17.288	0.496970
17.372	0.494677
17.456	0.492117
17.54	0.488537
17.624	0.484327
17.708	0.480361
17.792	0.476856
17.876	0.472937
17.96	0.467943
18.044	0.462507
18.128	0.457761
18.212	0.454028
18.296	0.450218
18.38	0.445644
18.464	0.440834
18.548	0.436617
18.632	0.433261
18.716	0.430652
18.8	0.428201
18.884	0.425114
18.968	0.420264
19.052	0.413299
19.136	0.405123
19.22	0.397555
19.304	0.391781
19.388	0.387402
19.472	0.382839
19.556	0.377060
19.64	0.370242
19.724	0.363482
19.808	0.357210
19.892	0.351002
19.976	0.344274
20.06	0.337207
20.144	0.330317
20.228	0.323876
20.312	0.317417
20.396	0.310412
20.48	0.302928
20.564	0.295464
20.648	0.288493
20.732	0.282204
20.816	0.276401
20.9	0.270853
20.984	0.265217
21.068	0.259185
21.152	0.252592
21.236	0.245539
21.32	0.238393
21.404	0.231407
21.488	0.224950
21.572	0.219015
21.656	0.213552
21.74	0.208421
21.824	0.203467
21.908	0.198432
21.992	0.193178
22.076	0.187692
22.16	0.182141
22.244	0.176683
22.328	0.171369
22.412	0.166150
22.496	0.160909
22.58	0.155518
22.664	0.150034
22.748	0.144632
22.832	0.139466
22.916	0.134742
23	0.130380
23.084	0.126311
23.168	0.122432
23.252	0.118600
23.336	0.114591
23.42	0.110248
23.504	0.105428
23.588	0.100150
23.672	0.094608
23.756	0.089067
23.84	0.083803
23.924	0.079102
24.008	0.074976
24.092	0.071415
24.176	0.068192
24.26	0.065197
24.344	0.062271
24.428	0.059326
24.512	0.056354
24.596	0.053299
24.68	0.050221
24.764	0.047201
24.848	0.044273
24.932	0.041497
25.016	0.038940
25.1	0.036645
25.184	0.034590
25.268	0.032680
25.352	0.030884
25.436	0.029117
25.52	0.027297
25.604	0.025418
25.688	0.023492
25.772	0.021580
25.856	0.019685
25.94	0.017834
26.024	0.016071
26.108	0.014430
26.192	0.013071
26.276	0.011975
26.36	0.011222
26.444	0.010747
26.528	0.010557
26.612	0.010446
26.696	0.010315
26.78	0.010026
26.864	0.009525
26.948	0.008808
27.028	0.008010

File: LPE454_e127_cm-1.asc
PE IR       SPECTRUM    SPECTRUM    ASCII       PEDS        1.60
  -1
LP0A1C~1.ASC
17/05/19
23:27:42.00
17/05/19
23:27:42.00
tln
$LPE454_e0127$<ebV0>[-23.3,12.1,10.0,0.0,27,1,0]
370
64

2002,4.07
MIRTGS : RIGHTBACK : INTERNAL 2
MIR : ON : INTERNAL 2
OPTKBR

0.200000
8
8.000000
FILLER
SINGLE
SPECTRUM
UNLOCKED 256

DOUBLE

COMBINED
1
0
0

1.000000
BACKG

1
0
TRUE
51149
0
LEFT NOT FITTED RIGHT NOT FITTED 0
NONE
NONE
15600
12
4.427000
51148
TRUE
1 0 8 72 0 0 0 0

15798

#HDR
-1
-1
#GR
CM-1
EGY
2.38419e-05
0.0
5000
-1.000000
4631
8
2.428817
0.008010
#DATA
5000	0.770783
4984	0.776338
4968	0.785946
4952	0.789093
4936	0.795650
4920	0.801706
4904	0.806641
4888	0.815153
4872	0.824165
4856	0.831651
4840	0.840592
4824	0.854587
4808	0.861978
4792	0.872755
4776	0.880122
4760	0.886583
4744	0.896859
4728	0.901508
4712	0.906205
4696	0.907516
4680	0.912570
4664	0.913166
4648	0.915002
4632	0.918221
4616	0.922894
4600	0.934672
4584	0.858283
4568	0.952768
4552	0.984716
4536	0.982975
4520	0.990223
4504	0.997614
4488	1.005792
4472	1.007080
4456	1.008081
4440	1.013064
4424	1.014351
4408	1.018381
4392	1.023674
4376	1.030707
4360	1.046943
4344	1.061654
4328	1.077842
4312	1.098346
4296	1.118397
4280	1.133871
4264	1.152944
4248	1.164484
4232	1.175737
4216	1.186180
4200	1.195502
4184	1.199984
4168	1.208257
4152	1.219320
4136	1.230430
4120	1.249194
4104	1.257157
4088	1.275897
4072	1.296615
4056	1.321315
4040	1.341485
4024	1.364302
4008	1.377415
3992	1.395201
3976	1.402425
3960	1.410770
3944	1.414442
3928	1.419758
3912	1.421666
3896	1.425695
3880	1.433467
3864	1.440453
3848	1.455593
3832	1.468443
3816	1.487660
3800	1.506066
3784	1.531744
3768	1.542568
3752	1.534557
3736	1.548194
3720	1.565957
3704	1.566910
3688	1.560926
3672	1.552844
3656	1.564240
3640	1.574230
3624	1.569151
3608	1.577258
3592	1.586079
3576	1.596736
3560	1.603698
3544	1.614093
3528	1.614522
3512	1.618123
3496	1.613068
3480	1.601624
3464	1.596283
3448	1.587533
3432	1.574373
3416	1.576614
3400	1.587486
3384	1.595711
3368	1.610898
3352	1.633119
3336	1.659250
3320	1.681447
3304	1.701784
3288	1.722431
3272	1.744437
3256	1.756286
3240	1.766967
3224	1.772189
3208	1.778101
3192	1.777935
3176	1.784563
3160	1.788735
3144	1.804494
3128	1.822829
3112	1.839041
3096	1.868820
3080	1.899766
3064	1.921558
3048	1.948261
3032	1.961278
3016	1.950669
3000	2.008700
2984	2.013969
2968	1.944518
2952	1.909089
2936	1.802039
2920	1.789283
2904	1.933407
2888	1.979875
2872	1.967430
2856	1.909470
2840	2.052640
2824	2.109909
2808	2.150249
2792	2.176523
2776	2.208733
2760	2.225708
2744	2.235198
2728	2.240490
2712	2.235841
2696	2.228713
2680	2.218556
2664	2.208971
2648	2.200818
2632	2.199482
2616	2.203369
2600	2.207231
2584	2.218651
2568	2.245616
2552	2.265501
2536	2.283072
2520	2.296090
2504	2.303671
2488	2.307105
2472	2.297377
2456	2.283239
2440	2.269172
2424	2.245688
2408	2.239274
2392	2.228903
2376	2.218198
2360	2.213597
2344	2.237749
2328	2.261519
2312	2.292394
2296	2.319717
2280	2.338290
2264	2.349686
2248	2.353858
2232	2.354288
2216	2.345824
2200	2.332639
2184	2.320861
2168	2.306604
2152	2.309513
2136	2.306532
2120	2.306866
2104	2.311730
2088	2.309465
2072	2.329754
2056	2.361011
2040	2.391934
2024	2.413964
2008	2.424383
1992	2.426695
1976	2.416086
1960	2.401065
1944	2.386283
1928	2.372622
1912	2.355217
1896	2.341198
1880	2.344441
1864	2.351331
1848	2.358102
1832	2.373933
1816	2.391219
1800	2.397036
1784	2.396416
1768	2.378511
1752	2.353191
1736	2.293896
1720	2.275371
1704	2.242565
1688	2.218985
1672	2.193474
1656	2.144575
1640	2.122235
1624	2.075552
1608	1.944231
1592	1.985478
1576	1.951050
1560	1.897740
1544	1.927447
1528	2.074289
1512	2.058386
1496	1.677989
1480	1.931786
1464	1.909899
1448	1.757168
1432	1.845192
1416	1.817917
1400	1.708269
1384	1.760292
1368	1.791357
1352	1.790690
1336	1.802253
1320	1.825833
1304	1.829123
1288	1.828360
1272	1.780700
1256	1.732635
1240	1.810765
1224	1.791644
1208	1.726365
1192	1.718425
1176	1.680231
1160	1.609516
1144	1.578116
1128	1.523137
1112	1.441121
1096	1.409506
1080	1.412677
1064	1.420712
1048	1.290321
1032	1.361942
1016	1.351094
1000	1.382732
984	 1.364994
968	 1.328015
952	 1.273655
936	 1.236581
920	 1.201939
904	 1.146340
888	 1.107406
872	 1.025629
856	 1.077985
840	 1.049256
824	 0.837016
808	 0.936770
792	 0.949978
776	 0.968933
760	 0.955843
744	 0.932455
728	 0.897169
712	 0.849246
696	 0.785875
680	 0.725483
664	 0.695753
648	 0.658082
632	 0.615549
616	 0.570559
600	 0.518274
584	 0.502562
568	 0.485277
552	 0.458359
536	 0.432443
520	 0.396704
504	 0.354766
488	 0.301861
472	 0.249719
456	 0.197100
440	 0.145959
424	 0.100350
408	 0.056433
392	 0.027513
376	 0.010466
370	 0.008010