Folder: Masteroppgave/Bakgrunnsmateriale/MATLAB/FTIR/ftir_data/LPE454/Mapping_121 (part 12)

File: LPE454_t21.asc
PE IR       SPECTRUM    SPECTRUM    ASCII       PEDS        1.60
  -1
LPCB98~1.ASC
17/05/19
16:02:10.00
17/05/19
16:02:36.00
tln
$LPE454_t0021$<tbV0>[-10.4,-10.4,8.0,0.0,27,1,0]
27.028
64

2002,4.07
MIRTGS : RIGHTBACK : INTERNAL 2
MIR : ON : INTERNAL 2
OPTKBR

0.200000
8
8.000000
FILLER
RATIO
SPECTRUM
UNLOCKED 256

DOUBLE
64
COMBINED
1
0
0

0.002000
RATIO

1
0
TRUE
51149
0
LEFT NOT FITTED RIGHT NOT FITTED 0
NONE
NONE
15600
12
4.427000
51148
TRUE
1 0 8 72 0 0 0 0

15798

#HDR
-1
-1
#GR
µM
%T
2.38419e-05
0.0
2.000000
0.002000
12515
8
38.9519
-3.709710
#DATA
2.000000	 0.611066
2.084000	 0.335466
2.168000	 -0.885424
2.252000	 -0.791682
2.336000	 -0.006200
2.420000	 0.095642
2.504000	 0.102233
2.588000	 0.003291
2.672000	 -0.096867
2.756000	 -0.060201
2.840000	 0.036730
2.924000	 0.103528
3.008000	 0.025293
3.092000	 0.005697
3.176000	 0.049257
3.260000	 0.019576
3.344000	 0.008522
3.428000	 -0.147679
3.512000	 -0.016072
3.596000	 -0.000911
3.680000	 0.083644
3.764000	 0.026539
3.848000	 0.002082
3.932000	 0.077891
4.016000	 0.088405
4.100000	 -0.140190
4.184000	 0.081746
4.268000	 0.053911
4.352000	 0.412793
4.436000	 1.019367
4.520000	 2.330764
4.604000	 4.292754
4.688000	 6.560856
4.772000	 8.838736
4.856000	 10.9551
4.940000	 12.6936
5.024000	 14.0829
5.108000	 15.217
5.192000	 15.9439
5.276000	 16.6229
5.359999	 17.0225
5.444000	 17.6026
5.528000	 17.922
5.612000	 18.183
5.696000	 18.3753
5.780000	 18.5985
5.864000	 18.7693
5.948000	 18.9313
6.032000	 19.1313
6.116000	 19.1008
6.200000	 19.2062
6.284000	 19.1975
6.368000	 19.4566
6.452000	 19.5094
6.536000	 19.5055
6.620000	 19.5375
6.704000	 19.6996
6.788000	 19.6718
6.872000	 19.5874
6.956000	 19.7622
7.040000	 19.7481
7.124000	 19.7854
7.208000	 19.828
7.292000	 19.8202
7.376000	 19.8312
7.460000	 20.0264
7.544000	 19.9938
7.628000	 19.9145
7.712000	 19.8527
7.796000	 20.0022
7.880000	 19.9862
7.964000	 20.0643
8.048000	 20.0067
8.132000	 19.942
8.216000	 20.236
8.300000	 20.0542
8.384000	 20.0781
8.468000	 19.9833
8.552000	 20.0439
8.635999	 20.1017
8.719999	 20.1758
8.804000	 20.0717
8.888000	 20.1695
8.972000	 20.149
9.056000	 20.2605
9.140000	 20.4157
9.224000	 20.1587
9.308000	 19.7227
9.391999	 19.9694
9.475999	 19.9843
9.560000	 20.0305
9.644000	 20.0424
9.728000	 20.1908
9.812000	 20.1818
9.896000	 20.1103
9.980000	 19.9218
10.064	19.8471
10.148	19.9789
10.232	20.2179
10.316	20.0347
10.4	19.9097
10.484	19.9026
10.568	19.6171
10.652	19.8297
10.736	19.8434
10.82	19.7472
10.904	19.7562
10.988	19.742
11.072	19.4664
11.156	19.4673
11.24	19.5237
11.324	19.4626
11.408	19.311
11.492	19.2603
11.576	19.3193
11.66	19.4471
11.744	19.687
11.828	19.6382
11.912	19.281
11.996	19.1391
12.08	19.117
12.164	19.0725
12.248	19.2033
12.332	19.3638
12.416	19.2406
12.5	19.2309
12.584	19.0873
12.668	19.1617
12.752	19.068
12.836	18.8205
12.92	18.6939
13.004	18.5605
13.088	18.3915
13.172	18.4954
13.256	18.8008
13.34	18.5326
13.424	18.7143
13.508	19.0822
13.592	18.8672
13.676	18.3451
13.76	17.9942
13.844	17.9744
13.928	18.0489
14.012	17.8826
14.096	17.7009
14.18	17.8061
14.264	18.0144
14.348	18.2152
14.432	18.2235
14.516	18.0289
14.6	17.9407
14.684	17.9978
14.768	17.9643
14.852	17.7044
14.936	17.4347
15.02	17.3212
15.104	17.2176
15.188	17.1709
15.272	17.2349
15.356	17.2307
15.44	17.205
15.524	17.2394
15.608	17.1315
15.692	16.9055
15.776	16.9504
15.86	17.3051
15.944	17.4762
16.028	17.2483
16.112	16.9453
16.196	16.8184
16.28	16.8404
16.364	16.9185
16.448	16.9194
16.532	16.7607
16.616	16.4933
16.7	16.1967
16.784	15.9329
16.868	15.7579
16.952	15.6763
17.036	15.6649
17.12	15.6982
17.204	15.7167
17.288	15.7213
17.372	15.7901
17.456	15.91
17.54	15.9553
17.624	15.8871
17.708	15.7918
17.792	15.692
17.876	15.4951
17.96	15.159
18.044	14.8018
18.128	14.6306
18.212	14.7696
18.296	15.1479
18.38	15.5248
18.464	15.6476
18.548	15.4337
18.632	15.0242
18.716	14.644
18.8	14.4352
18.884	14.4002
18.968	14.467
19.052	14.5468
19.136	14.5671
19.22	14.4784
19.304	14.2431
19.388	13.8534
19.472	13.3744
19.556	12.9616
19.64	12.7901
19.724	12.9382
19.808	13.3185
19.892	13.7295
19.976	13.983
20.06	14.003
20.144	13.8433
20.228	13.6206
20.312	13.4368
20.396	13.3415
20.48	13.34
20.564	13.4171
20.648	13.5269
20.732	13.595
20.816	13.558
20.9	13.4178
20.984	13.2798
21.068	13.2907
21.152	13.5338
21.236	13.9457
21.32	14.339
21.404	14.519
21.488	14.4254
21.572	14.1787
21.656	13.9975
21.74	14.0563
21.824	14.3635
21.908	14.732
21.992	14.8883
22.076	14.6225
22.16	13.9043
22.244	12.932
22.328	12.0119
22.412	11.4098
22.496	11.2234
22.58	11.3558
22.664	11.6156
22.748	11.8355
22.832	11.9591
22.916	12.0283
23	12.124
23.084	12.2675
23.168	12.3879
23.252	12.3644
23.336	12.0821
23.42	11.4925
23.504	10.6625
23.588	9.745034
23.672	8.921404
23.756	8.378876
23.84	8.200518
23.924	8.391042
24.008	8.923414
24.092	9.761106
24.176	10.8386
24.26	12.0428
24.344	13.161
24.428	13.918
24.512	14.0311
24.596	13.3277
24.68	11.873
24.764	10.0393
24.848	8.363730
24.932	7.426423
25.016	7.653341
25.1	9.286680
25.184	12.3955
25.268	16.8059
25.352	22.0826
25.436	27.6451
25.52	32.7916
25.604	36.758
25.688	38.7924
25.772	38.4598
25.856	35.8497
25.94	31.6411
26.024	26.9576
26.108	22.9835
26.192	20.2508
26.276	18.4946
26.36	16.6569
26.444	13.9469
26.528	10.4846
26.612	7.578161
26.696	7.021878
26.78	10.2333
26.864	17.2307
26.948	26.3976
27.028	34.6442

File: LPE454_t21_cm-1.asc
PE IR       SPECTRUM    SPECTRUM    ASCII       PEDS        1.60
  -1
LP5831~1.ASC
17/05/19
16:02:10.00
17/05/19
16:02:10.00
tln
$LPE454_t0021$<tbV0>[-10.4,-10.4,8.0,0.0,27,1,0]
370
64

2002,4.07
MIRTGS : RIGHTBACK : INTERNAL 2
MIR : ON : INTERNAL 2
OPTKBR

0.200000
8
8.000000
FILLER
RATIO
SPECTRUM
UNLOCKED 256

DOUBLE
64
COMBINED
1
0
0

1.000000
RATIO

1
0
TRUE
51149
0
LEFT NOT FITTED RIGHT NOT FITTED 0
NONE
NONE
15600
12
4.427000
51148
TRUE
1 0 8 72 0 0 0 0

15798

#HDR
-1
-1
#GR
CM-1
%T
2.38419e-05
0.0
5000
-1.000000
4631
8
38.931
-3.827452
#DATA
5000	0.611066
4984	0.367808
4968	-0.149846
4952	0.443696
4936	0.006318
4920	0.314068
4904	-0.447726
4888	0.089788
4872	0.520181
4856	0.090265
4840	0.249767
4824	-0.387883
4808	-0.069642
4792	0.015521
4776	0.292253
4760	0.523900
4744	0.043773
4728	0.078630
4712	0.674581
4696	0.096702
4680	-0.052785
4664	0.580787
4648	0.178837
4632	-0.473833
4616	-0.904941
4600	0.816702
4584	-0.538563
4568	-0.277042
4552	0.586223
4536	-1.495838
4520	4.285216
4504	5.909848
4488	1.921749
4472	-0.437569
4456	0.373530
4440	-0.803613
4424	-0.494551
4408	0.144767
4392	0.561213
4376	0.033569
4360	-0.239920
4344	-0.301933
4328	-0.054430
4312	-0.148558
4296	0.041937
4280	-0.062251
4264	0.208425
4248	-0.148606
4232	-0.114369
4216	0.002741
4200	0.116491
4184	0.060534
4168	0.188255
4152	-0.001978
4136	0.011944
4120	0.178217
4104	-0.119876
4088	0.040125
4072	0.179743
4056	-0.098729
4040	0.063419
4024	0.182127
4008	0.119352
3992	0.074553
3976	-0.055909
3960	0.040435
3944	-0.050115
3928	0.096416
3912	-0.230312
3896	0.047731
3880	0.015115
3864	0.003242
3848	0.083088
3832	0.147795
3816	0.216293
3800	-0.170445
3784	0.136661
3768	0.087809
3752	-0.117111
3736	-0.140595
3720	-0.063610
3704	0.033450
3688	0.085258
3672	0.115418
3656	0.071239
3640	0.037312
3624	-0.059866
3608	0.144100
3592	0.083518
3576	-0.035905
3560	0.158500
3544	-0.040936
3528	0.082206
3512	-0.030231
3496	0.116062
3480	-0.071883
3464	-0.014758
3448	0.110435
3432	0.079584
3416	0.054192
3400	0.090265
3384	0.019073
3368	0.064635
3352	0.097203
3336	0.049233
3320	0.085115
3304	0.127530
3288	-0.039529
3272	0.013279
3256	0.050187
3240	0.119066
3224	0.116014
3208	0.015830
3192	0.141787
3176	0.021028
3160	0.179100
3144	0.111126
3128	0.265932
3112	-0.192499
3096	0.024080
3080	-0.003981
3064	0.023078
3048	0.020599
3032	0.002503
3016	0.131916
3000	-0.025463
2984	-0.037050
2968	-0.025463
2952	0.070095
2936	0.106167
2920	-0.196933
2904	0.086545
2888	0.120115
2872	0.169992
2856	-0.105476
2840	0.087141
2824	-0.084018
2808	0.087690
2792	0.044488
2776	0.054645
2760	0.100469
2744	0.034379
2728	0.063800
2712	-0.013256
2696	0.061678
2680	0.018477
2664	-0.015115
2648	0.009536
2632	0.010824
2616	0.092387
2600	-0.012326
2584	0.019955
2568	0.018763
2552	0.025892
2536	0.109338
2520	0.031447
2504	0.003314
2488	-0.003123
2472	-0.141263
2456	0.040888
2440	-0.181531
2424	0.095939
2408	-0.150012
2392	0.082969
2376	0.045609
2360	0.140237
2344	0.049662
2328	0.169038
2312	0.335812
2296	0.431561
2280	0.750756
2264	0.924611
2248	1.148104
2232	1.653504
2216	2.205920
2200	2.920961
2184	3.637552
2168	4.532194
2152	5.497026
2136	6.350374
2120	7.461380
2104	8.437824
2088	9.520006
2072	10.4031
2056	11.1147
2040	12.1019
2024	12.7056
2008	13.4082
1992	14.0173
1976	14.6611
1960	15.1883
1944	15.6693
1928	15.9336
1912	16.17
1896	16.6049
1880	16.8038
1864	17.0417
1848	17.3989
1832	17.656
1816	17.7966
1800	18.0216
1784	18.1709
1768	18.3495
1752	18.3289
1736	18.6024
1720	18.783
1704	18.7551
1688	18.8227
1672	19.0684
1656	19.1064
1640	19.1311
1624	19.2718
1608	19.1663
1592	19.1942
1576	19.4311
1560	19.5261
1544	19.5451
1528	19.527
1512	19.5418
1496	19.7044
1480	19.6467
1464	19.6507
1448	19.8848
1432	19.8431
1416	19.6809
1400	19.8055
1384	19.8358
1368	19.7683
1352	19.8883
1336	20.0279
1320	19.9594
1304	19.9174
1288	19.9029
1272	19.9766
1256	20.0691
1240	19.9241
1224	20.1411
1208	20.13
1192	20.074
1176	19.9579
1160	20.1209
1144	20.181
1128	20.098
1112	20.1598
1096	20.3521
1080	19.9038
1064	19.9793
1048	20.0205
1032	20.1373
1016	20.1367
1000	19.8955
984	 20.0361
968	 20.0077
952	 19.8261
936	 19.8973
920	 19.7246
904	 19.4953
888	 19.4964
872	 19.2337
856	 19.5194
840	 19.3064
824	 19.0928
808	 19.2929
792	 19.0979
776	 18.745
760	 18.4349
744	 18.815
728	 18.0579
712	 17.7836
696	 18.2429
680	 18.0081
664	 17.2757
648	 17.2036
632	 17.1367
616	 16.8151
600	 16.3141
584	 15.6995
568	 15.9077
552	 14.637
536	 14.9001
520	 14.457
504	 13.49
488	 13.3466
472	 13.6916
456	 14.8038
440	 11.7901
424	 9.777975
408	 14.0384
392	 32.2419
376	 7.995462
370	 34.6442

File: LPE454_t22.asc
PE IR       SPECTRUM    SPECTRUM    ASCII       PEDS        1.60
  -1
LPCB94~1.ASC
17/05/19
16:06:47.00
17/05/19
16:07:13.00
tln
$LPE454_t0022$<tbV0>[-13.0,-10.4,8.0,0.0,27,1,0]
27.028
64

2002,4.07
MIRTGS : RIGHTBACK : INTERNAL 2
MIR : ON : INTERNAL 2
OPTKBR

0.200000
8
8.000000
FILLER
RATIO
SPECTRUM
UNLOCKED 256

DOUBLE
64
COMBINED
1
0
0

0.002000
RATIO

1
0
TRUE
51149
0
LEFT NOT FITTED RIGHT NOT FITTED 0
NONE
NONE
15600
12
4.427000
51148
TRUE
1 0 8 72 0 0 0 0

15798

#HDR
-1
-1
#GR
µM
%T
2.38419e-05
0.0
2.000000
0.002000
12515
8
21.1567
-53.9671
#DATA
2.000000	 0.969696
2.084000	 0.261360
2.168000	 0.660877
2.252000	 -0.546979
2.336000	 -0.275525
2.420000	 0.107087
2.504000	 0.252643
2.588000	 0.085886
2.672000	 0.073520
2.756000	 0.037010
2.840000	 0.118423
2.924000	 -0.021496
3.008000	 0.031593
3.092000	 -0.099058
3.176000	 0.022682
3.260000	 0.190451
3.344000	 0.006072
3.428000	 0.094411
3.512000	 0.048334
3.596000	 -0.038424
3.680000	 0.100226
3.764000	 0.003229
3.848000	 0.062725
3.932000	 0.093188
4.016000	 -0.029877
4.100000	 -0.019679
4.184000	 -0.005658
4.268000	 0.025641
4.352000	 0.085818
4.436000	 0.069218
4.520000	 -0.031152
4.604000	 0.031819
4.688000	 0.020792
4.772000	 0.088381
4.856000	 0.034310
4.940000	 0.125529
5.024000	 0.193688
5.108000	 0.113875
5.192000	 0.257511
5.276000	 0.037819
5.359999	 0.128545
5.444000	 0.135456
5.528000	 0.249113
5.612000	 0.180717
5.696000	 0.147716
5.780000	 0.315129
5.864000	 0.205552
5.948000	 0.207850
6.032000	 0.247793
6.116000	 0.264408
6.200000	 0.275159
6.284000	 0.232505
6.368000	 0.169700
6.452000	 0.331505
6.536000	 0.115036
6.620000	 0.204219
6.704000	 0.172590
6.788000	 0.369337
6.872000	 0.160578
6.956000	 0.367575
7.040000	 0.260091
7.124000	 0.188071
7.208000	 0.259449
7.292000	 0.316926
7.376000	 0.254811
7.460000	 0.244323
7.544000	 0.285720
7.628000	 0.250187
7.712000	 0.342180
7.796000	 0.398138
7.880000	 0.357523
7.964000	 0.436013
8.048000	 0.497155
8.132000	 0.480735
8.216000	 0.373565
8.300000	 0.588593
8.384000	 0.577751
8.468000	 0.543468
8.552000	 0.630952
8.635999	 0.704763
8.719999	 0.625534
8.804000	 0.343566
8.888000	 0.675466
8.972000	 0.757737
9.056000	 0.715126
9.140000	 0.990096
9.224000	 0.846093
9.308000	 0.724203
9.391999	 0.678338
9.475999	 0.784370
9.560000	 0.860125
9.644000	 0.653546
9.728000	 0.712418
9.812000	 0.511702
9.896000	 0.746226
9.980000	 0.772601
10.064	0.928878
10.148	0.809406
10.232	0.885443
10.316	0.807333
10.4	0.652692
10.484	0.925546
10.568	1.112377
10.652	1.054870
10.736	1.017918
10.82	0.809507
10.904	0.949206
10.988	0.906560
11.072	0.920141
11.156	0.858077
11.24	1.168342
11.324	1.106059
11.408	1.069490
11.492	1.084515
11.576	0.997811
11.66	0.934134
11.744	0.860257
11.828	1.088675
11.912	1.116112
11.996	1.035533
12.08	0.968283
12.164	1.021153
12.248	1.217629
12.332	1.183576
12.416	1.270154
12.5	1.437830
12.584	1.427284
12.668	1.278830
12.752	1.158594
12.836	1.319096
12.92	1.435383
13.004	1.287079
13.088	1.315445
13.172	1.496977
13.256	1.767715
13.34	1.713727
13.424	1.341695
13.508	1.413336
13.592	1.701503
13.676	1.781195
13.76	1.668601
13.844	1.503970
13.928	1.572103
14.012	1.730387
14.096	1.638571
14.18	1.488944
14.264	1.530097
14.348	1.608696
14.432	1.624087
14.516	1.698302
14.6	1.757293
14.684	1.757877
14.768	1.677757
14.852	1.597472
14.936	1.673392
15.02	1.744025
15.104	1.644625
15.188	1.498388
15.272	1.512074
15.356	1.682067
15.44	1.786322
15.524	1.734861
15.608	1.565043
15.692	1.275358
15.776	0.975688
15.86	0.881555
15.944	1.051806
16.028	1.321363
16.112	1.521899
16.196	1.626494
16.28	1.715052
16.364	1.880647
16.448	2.069438
16.532	2.117410
16.616	2.051780
16.7	2.076179
16.784	2.177841
16.868	2.119143
16.952	1.845044
17.036	1.595625
17.12	1.529088
17.204	1.494241
17.288	1.345249
17.372	1.219871
17.456	1.312160
17.54	1.591990
17.624	1.904407
17.708	2.137128
17.792	2.187029
17.876	1.989272
17.96	1.657627
18.044	1.405818
18.128	1.305080
18.212	1.284145
18.296	1.309369
18.38	1.395745
18.464	1.495808
18.548	1.543402
18.632	1.568585
18.716	1.630486
18.8	1.693318
18.884	1.693060
18.968	1.663481
19.052	1.678914
19.136	1.716480
19.22	1.686221
19.304	1.575993
19.388	1.475577
19.472	1.447531
19.556	1.460056
19.64	1.463248
19.724	1.461397
19.808	1.480766
19.892	1.509340
19.976	1.512981
20.06	1.492718
20.144	1.492879
20.228	1.538064
20.312	1.596687
20.396	1.613051
20.48	1.567962
20.564	1.490433
20.648	1.433497
20.732	1.436749
20.816	1.512392
20.9	1.661929
20.984	1.878948
21.068	2.145165
21.152	2.402235
21.236	2.560489
21.32	2.537401
21.404	2.303433
21.488	1.903068
21.572	1.425635
21.656	0.954825
21.74	0.538354
21.824	0.203847
21.908	-0.012501
21.992	-0.048831
22.076	0.170342
22.16	0.683083
22.244	1.450290
22.328	2.345721
22.412	3.178962
22.496	3.747101
22.58	3.918844
22.664	3.675879
22.748	3.140551
22.832	2.519201
22.916	2.022930
23	1.759672
23.084	1.694554
23.168	1.657891
23.252	1.462871
23.336	1.007167
23.42	0.331792
23.504	-0.376584
23.588	-0.886972
23.672	-1.047194
23.756	-0.836207
23.84	-0.355651
23.924	0.201750
24.008	0.658205
24.092	0.917148
24.176	0.944589
24.26	0.769616
24.344	0.455992
24.428	0.070623
24.512	-0.310500
24.596	-0.627490
24.68	-0.785638
24.764	-0.625207
24.848	-0.012963
24.932	1.207218
25.016	3.131716
25.1	5.650747
25.184	8.528479
25.268	11.4433
25.352	14.0416
25.436	15.7872
25.52	16.1186
25.604	14.6899
25.688	11.6032
25.772	7.504415
25.856	3.353559
25.94	-0.030471
26.024	-2.165299
26.108	-3.007232
26.192	-2.911206
26.276	-2.446748
26.36	-2.108927
26.444	-2.357231
26.528	-3.668061
26.612	-6.708452
26.696	-12.1393
26.78	-20.3637
26.864	-31.1155
26.948	-43.2139
27.028	-53.9671

File: LPE454_t22_cm-1.asc
PE IR       SPECTRUM    SPECTRUM    ASCII       PEDS        1.60
  -1
LP58B0~1.ASC
17/05/19
16:06:47.00
17/05/19
16:06:47.00
tln
$LPE454_t0022$<tbV0>[-13.0,-10.4,8.0,0.0,27,1,0]
370
64

2002,4.07
MIRTGS : RIGHTBACK : INTERNAL 2
MIR : ON : INTERNAL 2
OPTKBR

0.200000
8
8.000000
FILLER
RATIO
SPECTRUM
UNLOCKED 256

DOUBLE
64
COMBINED
1
0
0

1.000000
RATIO

1
0
TRUE
51149
0
LEFT NOT FITTED RIGHT NOT FITTED 0
NONE
NONE
15600
12
4.427000
51148
TRUE
1 0 8 72 0 0 0 0

15798

#HDR
-1
-1
#GR
CM-1
%T
2.38419e-05
0.0
5000
-1.000000
4631
8
21.5982
-53.9671
#DATA
5000	0.969696
4984	0.158715
4968	0.135946
4952	0.173759
4936	-0.284647
4920	-0.256156
4904	0.256013
4888	-0.025773
4872	0.139737
4856	-0.055003
4840	0.013017
4824	0.438404
4808	-0.138902
4792	0.248241
4776	-0.036072
4760	-0.117659
4744	0.268816
4728	-0.234532
4712	0.393772
4696	0.504660
4680	0.342583
4664	0.091433
4648	0.136995
4632	0.085210
4616	0.410342
4600	-0.900387
4584	-0.546860
4568	1.252245
4552	0.862717
4536	0.578379
4520	3.220462
4504	17.7161
4488	-0.330615
4472	-1.396179
4456	0.406455
4440	-0.559997
4424	-0.200581
4408	0.372529
4392	0.125074
4376	0.622653
4360	0.056338
4344	0.434899
4328	-0.004076
4312	0.157761
4296	0.243425
4280	-0.259160
4264	0.084495
4248	0.302815
4232	0.175952
4216	0.031042
4200	-0.139188
4184	0.632119
4168	0.374221
4152	-0.214862
4136	0.171732
4120	0.074005
4104	0.226473
4088	0.163483
4072	0.092530
4056	0.103569
4040	0.098204
4024	-0.048422
4008	-0.243782
3992	0.251054
3976	0.032997
3960	-0.084447
3944	-0.090646
3928	-0.129532
3912	0.041937
3896	0.196790
3880	0.116181
3864	0.085902
3848	0.049328
3832	0.150704
3816	0.195622
3800	-0.162720
3784	0.067806
3768	0.077199
3752	-0.069475
3736	0.156617
3720	0.051045
3704	0.150561
3688	0.269055
3672	-0.018358
3656	-0.054478
3640	-0.036025
3624	0.016260
3608	-0.109934
3592	-0.018739
3576	0.075173
3560	0.038170
3544	-0.023818
3528	0.010466
3512	0.167655
3496	0.099277
3480	0.038194
3464	0.102448
3448	-0.095295
3432	0.046420
3416	-0.111937
3400	-0.026345
3384	0.178766
3368	0.052118
3352	0.090384
3336	0.109148
3320	0.133299
3304	0.065112
3288	0.068211
3272	-0.021314
3256	-0.058054
3240	-0.042152
3224	0.025439
3208	0.060653
3192	-0.016021
3176	0.016570
3160	0.056409
3144	0.055503
3128	0.190234
3112	0.050520
3096	-0.022077
3080	0.033760
3064	0.185394
3048	0.199174
3032	0.085997
3016	0.061702
3000	-0.027203
2984	0.077176
2968	0.075626
2952	-0.020933
2936	0.047230
2920	0.090861
2904	-0.049519
2888	0.040340
2872	0.191164
2856	-0.100660
2840	-0.066924
2824	0.030708
2808	0.006675
2792	0.050592
2776	0.014543
2760	0.068187
2744	0.019741
2728	0.049185
2712	0.034403
2696	0.084877
2680	0.060391
2664	0.116109
2648	-0.084590
2632	-0.045514
2616	0.082278
2600	0.050044
2584	0.034666
2568	-0.015878
2552	0.053119
2536	0.006222
2520	-0.035476
2504	0.118994
2488	-0.073242
2472	-0.045084
2456	0.016236
2440	0.000977
2424	0.152540
2408	0.049829
2392	0.014209
2376	0.166440
2360	-0.066471
2344	0.042748
2328	-0.031518
2312	-0.009465
2296	0.113010
2280	0.010085
2264	0.008153
2248	0.019001
2232	0.052356
2216	-0.002360
2200	0.008273
2184	0.048971
2168	0.096821
2152	0.074124
2136	-0.046133
2120	-0.029063
2104	0.053119
2088	0.029683
2072	0.061821
2056	0.037455
2040	0.213456
2024	0.130748
2008	0.155067
1992	0.167655
1976	0.166797
1960	0.124645
1944	0.074219
1928	0.224852
1912	0.200057
1896	0.052499
1880	0.005125
1864	0.114655
1848	0.124454
1832	0.139760
1816	0.229930
1800	0.283598
1784	0.200939
1768	0.060272
1752	0.152683
1736	0.257611
1720	0.235295
1704	0.205969
1688	0.239372
1672	0.142908
1656	0.277972
1640	0.258851
1624	0.235462
1608	0.375771
1592	0.217247
1576	0.091195
1560	0.325894
1544	0.358104
1528	0.093221
1512	0.203371
1496	0.138688
1480	0.310063
1464	0.309324
1448	0.366497
1432	0.340819
1416	0.220751
1400	0.165271
1384	0.232887
1368	0.332689
1352	0.246095
1336	0.213503
1320	0.324249
1304	0.215077
1288	0.385069
1272	0.376200
1256	0.440382
1240	0.500869
1224	0.396323
1208	0.590443
1192	0.587773
1176	0.518202
1160	0.682830
1144	0.584387
1128	0.603222
1112	0.785899
1096	0.863075
1080	0.847363
1064	0.674390
1048	0.857758
1032	0.664258
1016	0.536537
1000	0.836229
984	 0.819659
968	 0.755262
952	 0.996708
936	 1.072001
920	 0.879478
904	 0.915789
888	 1.201581
872	 1.109576
856	 0.891900
840	 1.122832
824	 0.977301
808	 1.183176
792	 1.377201
776	 1.425933
760	 1.460862
744	 1.310873
728	 1.714348
712	 1.724839
696	 1.612854
680	 1.746320
664	 1.715612
648	 1.783585
632	 0.887775
616	 1.661252
600	 2.048301
584	 1.528573
568	 1.839590
552	 1.312732
536	 1.582241
520	 1.675438
504	 1.493072
488	 1.558017
472	 2.484703
456	 -0.042271
440	 3.289508
424	 -0.874042
408	 -0.301194
392	 16.1695
376	 -5.946969
370	 -53.9671

File: LPE454_t23.asc
PE IR       SPECTRUM    SPECTRUM    ASCII       PEDS        1.60
  -1
LPCB90~1.ASC
17/05/19
16:18:31.00
17/05/19
16:18:58.00
tln
$LPE454_t0023$<tbV0>[13.0,-7.8,8.0,0.0,27,1,0]
27.028
64

2002,4.07
MIRTGS : RIGHTBACK : INTERNAL 2
MIR : ON : INTERNAL 2
OPTKBR

0.200000
8
8.000000
FILLER
RATIO
SPECTRUM
UNLOCKED 256

DOUBLE
64
COMBINED
1
0
0

0.002000
RATIO

1
0
TRUE
51149
0
LEFT NOT FITTED RIGHT NOT FITTED 0
NONE
NONE
15600
12
4.427000
51148
TRUE
1 0 8 72 0 0 0 0

15798

#HDR
-1
-1
#GR
µM
%T
2.38419e-05
0.0
2.000000
0.002000
12515
8
26.5321
-6.664502
#DATA
2.000000	 0.598549
2.084000	 0.157018
2.168000	 -0.007504
2.252000	 0.568760
2.336000	 0.093565
2.420000	 0.144771
2.504000	 -0.054949
2.588000	 0.069036
2.672000	 0.143956
2.756000	 -0.020787
2.840000	 0.075227
2.924000	 0.033955
3.008000	 0.134937
3.092000	 0.077345
3.176000	 0.010564
3.260000	 0.067802
3.344000	 0.143853
3.428000	 0.000735
3.512000	 0.034698
3.596000	 0.183791
3.680000	 0.040216
3.764000	 -0.002969
3.848000	 0.071186
3.932000	 0.110696
4.016000	 0.191721
4.100000	 -0.074404
4.184000	 0.014544
4.268000	 0.012973
4.352000	 0.056345
4.436000	 0.511626
4.520000	 1.576710
4.604000	 3.480111
4.688000	 6.466290
4.772000	 9.574352
4.856000	 12.6756
4.940000	 15.5048
5.024000	 17.7816
5.108000	 19.76
5.192000	 21.1869
5.276000	 22.2049
5.359999	 23.0613
5.444000	 23.8307
5.528000	 24.3996
5.612000	 24.7912
5.696000	 25.125
5.780000	 25.3597
5.864000	 25.7313
5.948000	 25.8424
6.032000	 26.0803
6.116000	 26.0758
6.200000	 26.2245
6.284000	 26.2235
6.368000	 26.2844
6.452000	 26.2517
6.536000	 26.3928
6.620000	 26.2919
6.704000	 26.5307
6.788000	 26.3568
6.872000	 26.2858
6.956000	 26.0614
7.040000	 26.2798
7.124000	 26.1321
7.208000	 26.0868
7.292000	 26.0657
7.376000	 26.1109
7.460000	 26.2007
7.544000	 26.0516
7.628000	 26.0475
7.712000	 26.0364
7.796000	 25.9079
7.880000	 25.7979
7.964000	 26.0528
8.048000	 25.8849
8.132000	 25.9143
8.216000	 26.0069
8.300000	 25.739
8.384000	 25.6143
8.468000	 25.7013
8.552000	 25.7811
8.635999	 25.4985
8.719999	 25.334
8.804000	 25.5014
8.888000	 25.4341
8.972000	 25.2964
9.056000	 24.9915
9.140000	 25.0092
9.224000	 25.1804
9.308000	 25.0448
9.391999	 24.8225
9.475999	 24.9748
9.560000	 24.7546
9.644000	 24.879
9.728000	 24.6557
9.812000	 24.533
9.896000	 24.3375
9.980000	 24.5632
10.064	24.6512
10.148	24.6911
10.232	24.3015
10.316	24.1093
10.4	24.0118
10.484	24.057
10.568	24.1676
10.652	24.17
10.736	23.8907
10.82	23.4785
10.904	23.419
10.988	23.6658
11.072	23.7528
11.156	23.8181
11.24	23.5349
11.324	23.4151
11.408	23.1649
11.492	22.9695
11.576	23.1478
11.66	23.1368
11.744	23.0882
11.828	23.0043
11.912	22.8863
11.996	22.9061
12.08	22.7004
12.164	22.5808
12.248	22.5669
12.332	22.5142
12.416	22.525
12.5	22.6751
12.584	22.3199
12.668	21.873
12.752	21.8838
12.836	21.8076
12.92	21.6518
13.004	21.697
13.088	21.6933
13.172	21.6651
13.256	21.7302
13.34	21.7067
13.424	21.4656
13.508	21.19
13.592	21.0659
13.676	21.0615
13.76	21.1131
13.844	21.2119
13.928	21.1834
14.012	20.9689
14.096	20.7782
14.18	20.6148
14.264	20.366
14.348	20.21
14.432	20.1414
14.516	19.9885
14.6	19.9902
14.684	20.1554
14.768	20.2366
14.852	20.2848
14.936	20.3969
15.02	20.3607
15.104	19.959
15.188	19.5753
15.272	19.5631
15.356	19.6695
15.44	19.6189
15.524	19.4047
15.608	19.1674
15.692	19.0669
15.776	19.1499
15.86	19.3174
15.944	19.392
16.028	19.3125
16.112	19.1669
16.196	18.9939
16.28	18.773
16.364	18.5313
16.448	18.3345
16.532	18.2744
16.616	18.3646
16.7	18.4537
16.784	18.4216
16.868	18.3488
16.952	18.3784
17.036	18.5082
17.12	18.6184
17.204	18.6211
17.288	18.4967
17.372	18.2478
17.456	17.9307
17.54	17.666
17.624	17.5093
17.708	17.4029
17.792	17.3192
17.876	17.3055
17.96	17.3576
18.044	17.3785
18.128	17.3099
18.212	17.2052
18.296	17.1311
18.38	17.0831
18.464	17.0353
18.548	17.0156
18.632	17.0749
18.716	17.1972
18.8	17.2922
18.884	17.2925
18.968	17.2083
19.052	17.0841
19.136	16.9452
19.22	16.8155
19.304	16.7384
19.388	16.7406
19.472	16.7738
19.556	16.737
19.64	16.5742
19.724	16.3183
19.808	16.0471
19.892	15.8065
19.976	15.5906
20.06	15.3971
20.144	15.2856
20.228	15.3537
20.312	15.6174
20.396	15.9442
20.48	16.1447
20.564	16.1375
20.648	16.0323
20.732	16.0174
20.816	16.1802
20.9	16.4249
20.984	16.5589
21.068	16.4562
21.152	16.1411
21.236	15.7607
21.32	15.4853
21.404	15.4229
21.488	15.5677
21.572	15.8001
21.656	15.9226
21.74	15.7394
21.824	15.172
21.908	14.3347
21.992	13.4798
22.076	12.867
22.16	12.6326
22.244	12.7381
22.328	13.0305
22.412	13.3549
22.496	13.6255
22.58	13.8405
22.664	14.0416
22.748	14.2644
22.832	14.4989
22.916	14.6976
23	14.7836
23.084	14.6924
23.168	14.3987
23.252	13.9423
23.336	13.4236
23.42	12.9271
23.504	12.5067
23.588	12.134
23.672	11.7166
23.756	11.172
23.84	10.5195
23.924	9.908086
24.008	9.543942
24.092	9.580309
24.176	10.0177
24.26	10.7466
24.344	11.5701
24.428	12.2816
24.512	12.7232
24.596	12.8298
24.68	12.711
24.764	12.6698
24.848	13.086
24.932	14.2752
25.016	16.2775
25.1	18.7934
25.184	21.2495
25.268	23.0388
25.352	23.7462
25.436	23.3045
25.52	22.0063
25.604	20.2898
25.688	18.5121
25.772	16.8169
25.856	15.1435
25.94	13.1991
26.024	10.6551
26.108	7.407779
26.192	3.659382
26.276	-0.125213
26.36	-3.333317
26.444	-5.507480
26.528	-6.514250
26.612	-6.649135
26.696	-6.358708
26.78	-5.997973
26.864	-5.715921
26.948	-5.585441
27.028	-5.825662