Folder: Masteroppgave/Bakgrunnsmateriale/MATLAB/FTIR/ftir_data/LPE454/Mapping_121 (part 15)

File: LPE454_t104_cm-1.asc
PE IR       SPECTRUM    SPECTRUM    ASCII       PEDS        1.60
  -1
LP07DC~1.ASC
17/05/19
22:54:34.00
17/05/19
22:54:34.00
tln
$LPE454_t0104$<tbV0>[2.6,10.4,8.0,0.0,27,1,0]
370
64

2002,4.07
MIRTGS : RIGHTBACK : INTERNAL 2
MIR : ON : INTERNAL 2
OPTKBR

0.200000
8
8.000000
FILLER
RATIO
SPECTRUM
UNLOCKED 256

DOUBLE
64
COMBINED
1
0
0

1.000000
RATIO

1
0
TRUE
51149
0
LEFT NOT FITTED RIGHT NOT FITTED 0
NONE
NONE
15600
12
4.427000
51148
TRUE
1 0 8 72 0 0 0 0

15798

#HDR
-1
-1
#GR
CM-1
%T
2.38419e-05
0.0
5000
-1.000000
4631
8
40.5443
-53.4773
#DATA
5000	0.268959
4984	-0.144529
4968	0.103735
4952	0.027132
4936	0.255608
4920	-0.098609
4904	-0.100564
4888	0.034523
4872	0.098729
4856	0.189089
4840	-0.087165
4824	0.198149
4808	0.298547
4792	0.439667
4776	0.126719
4760	0.209712
4744	-0.103616
4728	0.153207
4712	-0.318264
4696	-0.117540
4680	0.321483
4664	0.037646
4648	0.253105
4632	-0.061440
4616	0.335979
4600	-1.957845
4584	17.0984
4568	-2.434086
4552	-1.009202
4536	0.171685
4520	-0.061559
4504	0.320839
4488	0.328636
4472	0.299978
4456	-0.203418
4440	-0.217843
4424	0.066566
4408	-0.110268
4392	0.089001
4376	0.077581
4360	0.227737
4344	0.047469
4328	0.224447
4312	0.051617
4296	0.071406
4280	0.122189
4264	-0.100159
4248	0.094199
4232	0.281620
4216	-0.010085
4200	0.275373
4184	0.179171
4168	0.175309
4152	-0.013899
4136	-0.326323
4120	-0.162339
4104	0.600290
4088	0.336956
4072	-0.284028
4056	0.174713
4040	0.383853
4024	0.096607
4008	0.568890
3992	0.191807
3976	0.114011
3960	0.235557
3944	-0.052857
3928	-0.026774
3912	-0.016188
3896	-0.078701
3880	-0.035953
3864	0.043678
3848	0.093293
3832	0.231313
3816	0.067448
3800	-0.046253
3784	0.014805
3768	0.065803
3752	0.247406
3736	0.078248
3720	-0.035357
3704	0.151228
3688	0.002026
3672	0.116086
3656	0.057148
3640	0.171184
3624	0.043797
3608	-0.006580
3592	-0.033426
3576	0.180482
3560	0.096178
3544	0.039291
3528	0.085711
3512	-0.008487
3496	0.045466
3480	0.046133
3464	-0.058937
3448	0.037860
3432	0.072741
3416	0.126743
3400	0.038695
3384	0.008845
3368	-0.003242
3352	0.227808
3336	0.102233
3320	-0.129818
3304	0.133728
3288	0.031328
3272	0.073671
3256	-0.065994
3240	0.045871
3224	0.138521
3208	0.202155
3192	0.089550
3176	0.179338
3160	0.069117
3144	-0.048160
3128	0.091052
3112	-0.095009
3096	0.088691
3080	-0.009536
3064	-0.001645
3048	0.135278
3032	0.057625
3016	-0.009417
3000	0.021743
2984	-0.095844
2968	-0.019764
2952	-0.041341
2936	0.043153
2920	0.063967
2904	0.032615
2888	0.054144
2872	-0.018167
2856	0.019955
2840	0.120282
2824	-0.037288
2808	0.119066
2792	0.015377
2776	0.023484
2760	0.015640
2744	0.069236
2728	0.114989
2712	-0.124979
2696	-0.006508
2680	0.017929
2664	0.155019
2648	0.063061
2632	0.037384
2616	-0.092673
2600	0.079059
2584	0.027036
2568	-0.034284
2552	0.025248
2536	0.095152
2520	-0.022268
2504	0.090241
2488	0.139808
2472	0.006890
2456	0.190782
2440	0.012040
2424	0.028133
2408	0.227165
2392	0.126981
2376	0.246787
2360	0.233387
2344	0.383043
2328	0.538682
2312	0.879240
2296	1.204895
2280	1.691293
2264	2.303552
2248	3.162741
2232	4.081106
2216	5.327963
2200	6.860041
2184	8.440804
2168	10.3806
2152	12.4298
2136	14.2781
2120	16.2848
2104	18.3745
2088	20.5096
2072	22.2693
2056	24.0086
2040	25.614
2024	26.9442
2008	28.2398
1992	29.452
1976	30.3175
1960	31.0988
1944	32.0096
1928	32.7408
1912	33.1651
1896	33.69
1880	34.0966
1864	34.5048
1848	34.7339
1832	34.9036
1816	35.1608
1800	35.4219
1784	35.4605
1768	35.6041
1752	35.8542
1736	35.9514
1720	36.1588
1704	36.1027
1688	36.3558
1672	36.1633
1656	36.2859
1640	36.3424
1624	36.4737
1608	36.3472
1592	36.3535
1576	36.4435
1560	36.5218
1544	36.3953
1528	36.411
1512	36.5971
1496	36.5206
1480	36.3919
1464	36.5587
1448	36.3724
1432	36.539
1416	36.4107
1400	36.2641
1384	36.5935
1368	36.46
1352	36.2386
1336	36.4415
1320	36.5351
1304	36.3256
1288	36.2416
1272	36.3906
1256	36.5322
1240	36.1216
1224	36.0795
1208	36.2125
1192	36.3723
1176	35.9491
1160	36.0435
1144	36.142
1128	36.1422
1112	35.9755
1096	35.9757
1080	35.9498
1064	35.957
1048	35.3803
1032	35.4844
1016	35.709
1000	35.4954
984	 34.9853
968	 35.0432
952	 35.0513
936	 35.0109
920	 34.616
904	 34.3947
888	 34.6564
872	 34.008
856	 33.5889
840	 33.7978
824	 33.9858
808	 33.5048
792	 32.6921
776	 33.1345
760	 33.1322
744	 32.5476
728	 31.4564
712	 32.3035
696	 32.1627
680	 31.2989
664	 30.7338
648	 31.0943
632	 30.7702
616	 29.8815
600	 29.5327
584	 29.1864
568	 29.1127
552	 28.0825
536	 28.7363
520	 28.4792
504	 26.3096
488	 25.2931
472	 26.4712
456	 27.3126
440	 25.937
424	 24.9456
408	 30.0808
392	 40.0089
376	 19.6503
370	 -53.4773

File: LPE454_t105.asc
PE IR       SPECTRUM    SPECTRUM    ASCII       PEDS        1.60
  -1
LP9708~1.ASC
17/05/19
22:59:11.00
17/05/19
22:59:37.00
tln
$LPE454_t0105$<tbV0>[0.0,10.4,8.0,0.0,27,1,0]
27.028
64

2002,4.07
MIRTGS : RIGHTBACK : INTERNAL 2
MIR : ON : INTERNAL 2
OPTKBR

0.200000
8
8.000000
FILLER
RATIO
SPECTRUM
UNLOCKED 256

DOUBLE
64
COMBINED
1
0
0

0.002000
RATIO

1
0
TRUE
51149
0
LEFT NOT FITTED RIGHT NOT FITTED 0
NONE
NONE
15600
12
4.427000
51148
TRUE
1 0 8 72 0 0 0 0

15798

#HDR
-1
-1
#GR
µM
%T
2.38419e-05
0.0
2.000000
0.002000
12515
8
37.2227
-1.397159
#DATA
2.000000	 0.302457
2.084000	 0.151464
2.168000	 -0.835854
2.252000	 0.547610
2.336000	 0.125552
2.420000	 0.319780
2.504000	 0.098364
2.588000	 0.078251
2.672000	 -0.002629
2.756000	 -0.053852
2.840000	 0.146623
2.924000	 0.154200
3.008000	 0.056121
3.092000	 0.071790
3.176000	 -0.005790
3.260000	 0.089609
3.344000	 -0.011577
3.428000	 0.097889
3.512000	 0.100104
3.596000	 0.079985
3.680000	 0.101577
3.764000	 0.129752
3.848000	 0.079382
3.932000	 0.124944
4.016000	 0.097773
4.100000	 0.042176
4.184000	 0.123714
4.268000	 0.478563
4.352000	 1.205424
4.436000	 3.000074
4.520000	 6.072954
4.604000	 10.2184
4.688000	 15.1061
4.772000	 20.0401
4.856000	 23.9121
4.940000	 27.3156
5.024000	 30.0391
5.108000	 31.3492
5.192000	 33.2587
5.276000	 33.7725
5.359999	 35.0024
5.444000	 35.0242
5.528000	 35.8272
5.612000	 35.5886
5.696000	 36.5114
5.780000	 35.9192
5.864000	 36.5166
5.948000	 36.4331
6.032000	 36.2955
6.116000	 37.072
6.200000	 36.2075
6.284000	 36.6174
6.368000	 36.9992
6.452000	 36.278
6.536000	 36.6883
6.620000	 37.0782
6.704000	 36.3253
6.788000	 36.5629
6.872000	 37.1675
6.956000	 36.6077
7.040000	 36.3137
7.124000	 36.9492
7.208000	 37.0299
7.292000	 36.326
7.376000	 36.2335
7.460000	 36.9568
7.544000	 37.0538
7.628000	 36.4121
7.712000	 36.0651
7.796000	 36.5694
7.880000	 37.113
7.964000	 36.6792
8.048000	 35.8958
8.132000	 36.2201
8.216000	 36.805
8.300000	 36.9863
8.384000	 36.3804
8.468000	 35.744
8.552000	 35.9289
8.635999	 36.5455
8.719999	 36.81
8.804000	 36.4318
8.888000	 35.7495
8.972000	 35.4283
9.056000	 35.7806
9.140000	 36.3577
9.224000	 36.6662
9.308000	 36.5789
9.391999	 35.5458
9.475999	 35.214
9.560000	 35.3597
9.644000	 35.651
9.728000	 36.171
9.812000	 36.2698
9.896000	 35.7643
9.980000	 35.2502
10.064	34.8678
10.148	34.7055
10.232	35.0555
10.316	35.7232
10.4	36.0115
10.484	35.6392
10.568	35.2058
10.652	34.5895
10.736	34.3129
10.82	34.1526
10.904	34.5029
10.988	35.032
11.072	35.1172
11.156	35.1753
11.24	34.9373
11.324	34.5907
11.408	34.1308
11.492	33.7379
11.576	33.7045
11.66	33.9066
11.744	34.136
11.828	34.4329
11.912	34.6263
11.996	34.5934
12.08	34.4904
12.164	34.2213
12.248	33.5935
12.332	32.9947
12.416	32.877
12.5	32.873
12.584	32.9448
12.668	33.1497
12.752	33.4374
12.836	33.67
12.92	33.8026
13.004	33.7348
13.088	33.5995
13.172	33.3278
13.256	32.8986
13.34	32.5879
13.424	32.1492
13.508	31.7941
13.592	31.7684
13.676	32.061
13.76	32.4132
13.844	32.6358
13.928	32.9037
14.012	33.0829
14.096	32.928
14.18	32.7039
14.264	32.5102
14.348	32.2073
14.432	31.841
14.516	31.5289
14.6	31.2324
14.684	30.9823
14.768	30.9425
14.852	31.0051
14.936	31.0724
15.02	31.22
15.104	31.3608
15.188	31.372
15.272	31.3668
15.356	31.4078
15.44	31.3965
15.524	31.4176
15.608	31.5309
15.692	31.5025
15.776	31.2631
15.86	30.976
15.944	30.7135
16.028	30.4765
16.112	30.2656
16.196	30.0891
16.28	29.9729
16.364	29.8691
16.448	29.7304
16.532	29.6566
16.616	29.8167
16.7	30.1872
16.784	30.5077
16.868	30.621
16.952	30.6669
17.036	30.7455
17.12	30.7121
17.204	30.4942
17.288	30.1985
17.372	29.88
17.456	29.4784
17.54	28.9817
17.624	28.5296
17.708	28.3145
17.792	28.386
17.876	28.601
17.96	28.8207
18.044	29.0088
18.128	29.0964
18.212	29.0662
18.296	29.1572
18.38	29.636
18.464	30.3532
18.548	30.803
18.632	30.6575
18.716	30.033
18.8	29.2588
18.884	28.6541
18.968	28.4796
19.052	28.806
19.136	29.3779
19.22	29.7261
19.304	29.5491
19.388	28.9606
19.472	28.339
19.556	27.9905
19.64	27.9438
19.724	28.0146
19.808	28.0211
19.892	27.9415
19.976	27.8398
20.06	27.6974
20.144	27.428
20.228	27.045
20.312	26.7318
20.396	26.685
20.48	26.9067
20.564	27.1892
20.648	27.3239
20.732	27.2783
20.816	27.1551
20.9	27.0514
20.984	26.9898
21.068	26.9467
21.152	26.8929
21.236	26.8048
21.32	26.6834
21.404	26.5736
21.488	26.5541
21.572	26.6746
21.656	26.8776
21.74	27.0115
21.824	26.9362
21.908	26.6479
21.992	26.2835
22.076	26.0031
22.16	25.8698
22.244	25.8128
22.328	25.7154
22.412	25.5054
22.496	25.1993
22.58	24.8662
22.664	24.5686
22.748	24.3401
22.832	24.2122
22.916	24.2339
23	24.4599
23.084	24.9022
23.168	25.4915
23.252	26.0983
23.336	26.5815
23.42	26.8626
23.504	26.9398
23.588	26.8877
23.672	26.8006
23.756	26.7325
23.84	26.6731
23.924	26.5682
24.008	26.3662
24.092	26.0457
24.176	25.6153
24.26	25.1199
24.344	24.6284
24.428	24.2064
24.512	23.9074
24.596	23.7745
24.68	23.8594
24.764	24.2066
24.848	24.7877
24.932	25.4328
25.016	25.8533
25.1	25.7274
25.184	24.8721
25.268	23.3956
25.352	21.6803
25.436	20.2196
25.52	19.3451
25.604	19.0683
25.688	19.121
25.772	19.1121
25.856	18.7547
25.94	17.9488
26.024	16.8322
26.108	15.7153
26.192	14.9851
26.276	14.911
26.36	15.5322
26.444	16.5109
26.528	17.2506
26.612	17.0445
26.696	15.4811
26.78	12.7046
26.864	9.428205
26.948	6.641942
27.028	5.231332

File: LPE454_t105_cm-1.asc
PE IR       SPECTRUM    SPECTRUM    ASCII       PEDS        1.60
  -1
LP08DC~1.ASC
17/05/19
22:59:11.00
17/05/19
22:59:11.00
tln
$LPE454_t0105$<tbV0>[0.0,10.4,8.0,0.0,27,1,0]
370
64

2002,4.07
MIRTGS : RIGHTBACK : INTERNAL 2
MIR : ON : INTERNAL 2
OPTKBR

0.200000
8
8.000000
FILLER
RATIO
SPECTRUM
UNLOCKED 256

DOUBLE
64
COMBINED
1
0
0

1.000000
RATIO

1
0
TRUE
51149
0
LEFT NOT FITTED RIGHT NOT FITTED 0
NONE
NONE
15600
12
4.427000
51148
TRUE
1 0 8 72 0 0 0 0

15798

#HDR
-1
-1
#GR
CM-1
%T
2.38419e-05
0.0
5000
-1.000000
4631
8
37.2225
-1.558661
#DATA
5000	0.302457
4984	0.357604
4968	0.134897
4952	0.146102
4936	0.169491
4920	-0.256919
4904	0.224137
4888	0.238275
4872	0.402617
4856	-0.033617
4840	0.566983
4824	0.443673
4808	0.338459
4792	-0.101494
4776	0.110220
4760	0.416374
4744	0.548219
4728	1.035213
4712	0.099658
4696	0.377368
4680	0.028896
4664	0.048208
4648	-0.196099
4632	-0.214076
4616	-0.756359
4600	2.498769
4584	13.1342
4568	0.050997
4552	-1.022601
4536	-1.217055
4520	-0.950169
4504	0.140380
4488	0.004458
4472	0.469803
4456	0.919461
4440	0.538349
4424	0.453925
4408	0.138807
4392	0.464177
4376	-0.124430
4360	0.099563
4344	-0.204133
4328	-0.126576
4312	0.135159
4296	0.513601
4280	0.138235
4264	0.396800
4248	0.078201
4232	-0.081467
4216	0.003790
4200	-0.181388
4184	0.070214
4168	0.183987
4152	0.210642
4136	0.023150
4120	0.238943
4104	-0.121784
4088	-0.232243
4072	0.067567
4056	1.521015
4040	-0.082921
4024	0.300455
4008	0.050878
3992	0.027394
3976	0.182938
3960	0.231814
3944	0.212597
3928	-0.111770
3912	0.015282
3896	0.018143
3880	-0.056743
3864	0.077939
3848	0.203394
3832	0.052595
3816	-0.058197
3800	0.120258
3784	0.188446
3768	0.108671
3752	-0.215935
3736	0.082969
3720	0.102353
3704	0.030660
3688	-0.034832
3672	0.106167
3656	0.028014
3640	0.034642
3624	-0.059723
3608	0.045561
3592	-0.071001
3576	0.105690
3560	0.194764
3544	0.076723
3528	0.108718
3512	0.137448
3496	0.105357
3480	0.059270
3464	0.126767
3448	-0.073146
3432	0.180983
3416	0.035643
3400	0.080132
3384	0.041031
3368	0.027465
3352	0.115227
3336	0.089669
3320	0.108337
3304	0.039744
3288	0.047159
3272	0.101780
3256	0.107097
3240	0.115704
3224	0.087523
3208	0.129795
3192	0.082826
3176	0.098657
3160	0.149488
3144	-0.019121
3128	0.027489
3112	-0.010895
3096	0.025343
3080	0.127029
3064	-0.028562
3048	0.025820
3032	0.125336
3016	0.068497
3000	0.110840
2984	0.042104
2968	-0.010490
2952	0.172805
2936	0.048613
2920	0.126600
2904	0.116229
2888	0.046086
2872	0.040745
2856	0.027871
2840	0.143146
2824	-0.045061
2808	0.045561
2792	0.004625
2776	0.041222
2760	0.078392
2744	0.056076
2728	0.075149
2712	0.013160
2696	0.061774
2680	0.095200
2664	-0.044441
2648	0.048995
2632	0.008964
2616	0.049090
2600	0.072598
2584	-0.019526
2568	-0.069570
2552	0.090742
2536	0.081706
2520	0.056982
2504	0.074696
2488	0.074267
2472	0.016856
2456	0.077891
2440	0.052261
2424	0.166559
2408	0.163245
2392	0.116896
2376	0.193119
2360	0.295281
2344	0.475335
2328	0.597763
2312	0.897336
2296	1.252317
2280	1.810836
2264	2.482247
2248	3.379082
2232	4.347896
2216	5.757379
2200	7.197785
2184	8.957028
2168	10.7294
2152	12.7567
2136	14.7893
2120	16.812
2104	18.9484
2088	20.908
2072	22.5549
2056	24.317
2040	25.984
2024	27.3377
2008	28.4111
1992	29.8969
1976	30.7891
1960	31.2507
1944	32.3511
1928	33.2226
1912	33.3822
1896	33.7379
1880	34.5779
1864	34.9927
1848	34.8552
1832	35.261
1816	35.7126
1800	35.6112
1784	35.5541
1768	36.0275
1752	36.4872
1736	36.0233
1720	35.9991
1704	36.5392
1688	36.7036
1672	36.2841
1656	36.3771
1640	37.0599
1624	36.7185
1608	36.1224
1592	36.5873
1576	37.029
1560	36.6423
1544	36.2769
1528	36.7974
1512	37.1069
1496	36.5889
1480	36.2969
1464	36.9894
1448	37.0928
1432	36.3652
1416	36.4032
1400	37.0747
1384	36.9346
1368	36.2087
1352	36.398
1336	37.1546
1320	36.8584
1304	36.1959
1288	36.3424
1272	37.129
1256	36.6989
1240	35.84
1224	36.5022
1208	36.9889
1192	36.3212
1176	35.7028
1160	36.4707
1144	36.7499
1128	35.9483
1112	35.4841
1096	36.2777
1080	36.7801
1064	35.4903
1048	35.307
1032	35.9756
1016	36.196
1000	35.1519
984	 34.6793
968	 35.7869
952	 35.5427
936	 34.4638
920	 34.3027
904	 35.1146
888	 34.8578
872	 33.8267
856	 33.964
840	 34.6208
824	 34.3404
808	 32.8988
792	 33.0258
776	 33.7701
760	 33.3941
744	 32.0568
728	 32.3281
712	 33.0554
696	 32.1214
680	 30.9507
664	 31.3005
648	 31.3991
632	 31.1008
616	 30.0301
600	 30.0294
584	 30.7068
568	 28.6142
552	 29.0932
536	 30.5098
520	 29.7348
504	 27.9958
488	 26.9482
472	 26.8618
456	 26.5533
440	 24.3885
424	 26.8905
408	 23.9132
392	 19.414
376	 17.1899
370	 5.231332

File: LPE454_t106.asc
PE IR       SPECTRUM    SPECTRUM    ASCII       PEDS        1.60
  -1
LP9B08~1.ASC
17/05/19
23:03:48.00
17/05/19
23:04:14.00
tln
$LPE454_t0106$<tbV0>[-2.6,10.4,8.0,0.0,27,1,0]
27.028
64

2002,4.07
MIRTGS : RIGHTBACK : INTERNAL 2
MIR : ON : INTERNAL 2
OPTKBR

0.200000
8
8.000000
FILLER
RATIO
SPECTRUM
UNLOCKED 256

DOUBLE
64
COMBINED
1
0
0

0.002000
RATIO

1
0
TRUE
51149
0
LEFT NOT FITTED RIGHT NOT FITTED 0
NONE
NONE
15600
12
4.427000
51148
TRUE
1 0 8 72 0 0 0 0

15798

#HDR
-1
-1
#GR
µM
%T
2.38419e-05
0.0
2.000000
0.002000
12515
8
42.0549
-14.3803
#DATA
2.000000	 -0.053763
2.084000	 0.290108
2.168000	 2.867924
2.252000	 0.340833
2.336000	 0.164248
2.420000	 -0.224148
2.504000	 0.104704
2.588000	 0.037058
2.672000	 0.230511
2.756000	 0.120227
2.840000	 0.009643
2.924000	 0.125505
3.008000	 0.091653
3.092000	 0.129574
3.176000	 0.065120
3.260000	 -0.028995
3.344000	 0.026102
3.428000	 0.095333
3.512000	 0.045938
3.596000	 -0.053043
3.680000	 -0.053744
3.764000	 -0.068406
3.848000	 0.021239
3.932000	 0.061697
4.016000	 -0.011738
4.100000	 0.097116
4.184000	 0.187801
4.268000	 0.503984
4.352000	 1.581651
4.436000	 3.511626
4.520000	 6.965402
4.604000	 11.6836
4.688000	 16.7401
4.772000	 21.6846
4.856000	 25.9081
4.940000	 29.2569
5.024000	 31.6366
5.108000	 33.4825
5.192000	 34.7353
5.276000	 35.7463
5.359999	 36.3831
5.444000	 36.9352
5.528000	 37.0424
5.612000	 37.6476
5.696000	 37.4831
5.780000	 37.808
5.864000	 37.7971
5.948000	 37.9016
6.032000	 38.1374
6.116000	 37.9271
6.200000	 37.9719
6.284000	 38.1803
6.368000	 37.8424
6.452000	 37.9278
6.536000	 38.2195
6.620000	 37.9632
6.704000	 37.782
6.788000	 38.3384
6.872000	 37.9818
6.956000	 37.7914
7.040000	 37.9616
7.124000	 38.1608
7.208000	 38.0019
7.292000	 37.6768
7.376000	 37.8778
7.460000	 38.1564
7.544000	 38.0492
7.628000	 37.5212
7.712000	 37.5782
7.796000	 37.9626
7.880000	 38.2005
7.964000	 37.7729
8.048000	 37.2671
8.132000	 37.4221
8.216000	 37.9375
8.300000	 37.9985
8.384000	 37.7405
8.468000	 37.209
8.552000	 37.1467
8.635999	 37.5501
8.719999	 37.8667
8.804000	 37.7957
8.888000	 37.3665
8.972000	 37.029
9.056000	 36.9237
9.140000	 37.2955
9.224000	 37.5324
9.308000	 37.58
9.391999	 37.5426
9.475999	 36.9269
9.560000	 36.3346
9.644000	 36.4283
9.728000	 36.9277
9.812000	 37.2841
9.896000	 37.2288
9.980000	 37.127
10.064	36.7269
10.148	36.3652
10.232	36.1316
10.316	36.2027
10.4	36.6043
10.484	36.8027
10.568	37.0053
10.652	36.974
10.736	36.6213
10.82	36.1545
10.904	35.8432
10.988	35.6338
11.072	35.7924
11.156	36.1028
11.24	36.2953
11.324	36.3218
11.408	36.4278
11.492	36.19
11.576	35.7265
11.66	35.4151
11.744	35.0851
11.828	35.0006
11.912	34.9382
11.996	35.043
12.08	35.5379
12.164	36.0261
12.248	35.9287
12.332	35.7095
12.416	35.492
12.5	35.1131
12.584	34.7137
12.668	34.3529
12.752	34.0128
12.836	33.798
12.92	34.0114
13.004	34.3513
13.088	34.7319
13.172	35.1633
13.256	35.3886
13.34	35.0236
13.424	34.7187
13.508	34.7175
13.592	34.4601
13.676	33.9143
13.76	33.5401
13.844	33.3358
13.928	33.237
14.012	33.261
14.096	33.2891
14.18	33.3141
14.264	33.4048
14.348	33.5144
14.432	33.6049
14.516	33.7362
14.6	33.92
14.684	33.9697
14.768	33.8136
14.852	33.5209
14.936	33.2071
15.02	32.904
15.104	32.5144
15.188	32.1269
15.272	31.9201
15.356	31.8667
15.44	31.8714
15.524	31.9094
15.608	31.9512
15.692	32.0238
15.776	32.2178
15.86	32.4625
15.944	32.6497
16.028	32.8044
16.112	32.9056
16.196	32.8918
16.28	32.8124
16.364	32.6984
16.448	32.4843
16.532	32.1634
16.616	31.8432
16.7	31.5964
16.784	31.3552
16.868	31.016
16.952	30.5858
17.036	30.1703
17.12	29.8899
17.204	29.8448
17.288	30.0324
17.372	30.2584
17.456	30.3413
17.54	30.3892
17.624	30.6012
17.708	30.906
17.792	31.0662
17.876	30.9965
17.96	30.7744
18.044	30.4687
18.128	30.1761
18.212	30.0759
18.296	30.2995
18.38	30.7697
18.464	31.2281
18.548	31.4205
18.632	31.2699
18.716	30.9045
18.8	30.5033
18.884	30.1139
18.968	29.7076
19.052	29.3873
19.136	29.3471
19.22	29.6243
19.304	30.0014
19.388	30.2298
19.472	30.256
19.556	30.2018
19.64	30.1708
19.724	30.1457
19.808	30.0373
19.892	29.7612
19.976	29.3048
20.06	28.7693
20.144	28.3667
20.228	28.3022
20.312	28.6046
20.396	29.0542
20.48	29.3358
20.564	29.2641
20.648	28.9039
20.732	28.4796
20.816	28.2053
20.9	28.167
20.984	28.3054
21.068	28.5006
21.152	28.6527
21.236	28.7194
21.32	28.6902
21.404	28.5457
21.488	28.2445
21.572	27.7571
21.656	27.1076
21.74	26.3871
21.824	25.7305
21.908	25.2584
21.992	25.0408
22.076	25.102
22.16	25.4281
22.244	25.9769
22.328	26.6727
22.412	27.3873
22.496	27.9512
22.58	28.2152
22.664	28.1042
22.748	27.6625
22.832	27.0324
22.916	26.4037
23	25.9383
23.084	25.7231
23.168	25.7207
23.252	25.7971
23.336	25.8061
23.42	25.6607
23.504	25.3966
23.588	25.1509
23.672	25.0748
23.756	25.2673
23.84	25.7293
23.924	26.3417
24.008	26.944
24.092	27.3994
24.176	27.5891
24.26	27.475
24.344	27.102
24.428	26.6015
24.512	26.2259
24.596	26.2631
24.68	26.9601
24.764	28.4219
24.848	30.5322
24.932	33.013
25.016	35.5309
25.1	37.7696
25.184	39.5491
25.268	40.8486
25.352	41.7152
25.436	42.0547
25.52	41.565
25.604	39.8533
25.688	36.7074
25.772	32.3234
25.856	27.2835
25.94	22.2749
26.024	17.8915
26.108	14.4385
26.192	12.112
26.276	11.016
26.36	11.25
26.444	12.5292
26.528	14.1284
26.612	14.8491
26.696	13.5973
26.78	9.841820
26.864	4.068074
26.948	-2.454051
27.028	-8.003187

File: LPE454_t106_cm-1.asc
PE IR       SPECTRUM    SPECTRUM    ASCII       PEDS        1.60
  -1
LP09DC~1.ASC
17/05/19
23:03:48.00
17/05/19
23:03:48.00
tln
$LPE454_t0106$<tbV0>[-2.6,10.4,8.0,0.0,27,1,0]
370
64

2002,4.07
MIRTGS : RIGHTBACK : INTERNAL 2
MIR : ON : INTERNAL 2
OPTKBR

0.200000
8
8.000000
FILLER
RATIO
SPECTRUM
UNLOCKED 256

DOUBLE
64
COMBINED
1
0
0

1.000000
RATIO

1
0
TRUE
51149
0
LEFT NOT FITTED RIGHT NOT FITTED 0
NONE
NONE
15600
12
4.427000
51148
TRUE
1 0 8 72 0 0 0 0

15798

#HDR
-1
-1
#GR
CM-1
%T
2.38419e-05
0.0
5000
-1.000000
4631
8
42.0459
-16.0217
#DATA
5000	-0.053763
4984	-0.241494
4968	0.274467
4952	0.115489
4936	0.238800
4920	0.659060
4904	-0.248670
4888	0.619029
4872	0.496459
4856	0.205779
4840	0.044941
4824	0.074720
4808	0.064325
4792	0.252890
4776	0.458407
4760	0.200748
4744	0.256204
4728	0.349116
4712	0.640916
4696	0.372695
4680	1.044273
4664	0.916886
4648	0.781941
4632	1.068496
4616	2.012109
4600	5.578851
4584	-7.012939
4568	0.944757
4552	0.309586
4536	0.214290
4520	1.357436
4504	0.426268
4488	0.196385
4472	0.381803
4456	0.404906
4440	0.320887
4424	-0.006842
4408	0.545454
4392	0.383472
4376	0.103449
4360	0.291776
4344	-0.119876
4328	0.291180
4312	-0.078392
4296	0.275826
4280	0.165629
4264	-0.006222
4248	0.141882
4232	0.022578
4216	0.218009
4200	-0.054812
4184	0.341749
4168	0.315976
4152	0.077247
4136	-0.388884
4120	0.354027
4104	-0.556254
4088	-0.197196
4072	1.650643
4056	-0.247550
4040	1.192879
4024	-0.104546
4008	0.064635
3992	0.054669
3976	0.169301
3960	0.334787
3944	0.011014
3928	0.058102
3912	0.203752
3896	0.205683
3880	0.154376
3864	0.036740
3848	0.047802
3832	0.140428
3816	0.067234
3800	0.096416
3784	-0.038218
3768	0.117468
3752	0.041413
3736	0.072789
3720	0.036358
3704	0.050711
3688	0.079774
3672	0.181841
3656	0.178861
3640	0.171566
3624	0.129675
3608	0.101852
3592	0.147676
3576	0.048303
3560	0.180006
3544	0.232100
3528	-0.041031
3512	0.088739
3496	0.160765
3480	0.118494
3464	0.035309
3448	0.097227
3432	-0.031399
3416	0.165128
3400	0.050640
3384	-0.010895
3368	0.120186
3352	0.041580
3336	0.008130
3320	0.030803
3304	0.217270
3288	0.075840
3272	-0.019907
3256	0.001740
3240	0.103330
3224	0.022387
3208	0.055480
3192	-0.092530
3176	0.090384
3160	0.117659
3144	0.082492
3128	0.084710
3112	0.159144
3096	0.118660
3080	0.165605
3064	0.037169
3048	0.095415
3032	-0.016403
3016	-0.003361
3000	0.063657
2984	0.028085
2968	0.074458
2952	0.014996
2936	-0.016784
2920	0.057625
2904	-0.029063
2888	0.053906
2872	-0.070095
2856	0.005817
2840	0.067543
2824	-0.019168
2808	0.084257
2792	0.028157
2776	-0.026917
2760	0.138878
2744	0.013589
2728	0.127530
2712	-0.027894
2696	-0.090265
2680	0.010776
2664	-0.027561
2648	-0.003218
2632	-0.100207
2616	-0.000643
2600	0.023698
2584	0.020384
2568	0.013327
2552	-0.027799
2536	0.087332
2520	0.062084
2504	-0.056934
2488	-0.042772
2472	0.044083
2456	0.035381
2440	0.108432
2424	0.197434
2408	0.061631
2392	0.180768
2376	0.242614
2360	0.312519
2344	0.484871
2328	0.941181
2312	1.212716
2296	1.640200
2280	2.315592
2264	3.011035
2248	3.948926
2232	5.240678
2216	6.646585
2200	8.266758
2184	10.1549
2168	12.1851
2152	14.2639
2136	16.3413
2120	18.4697
2104	20.6446
2088	22.6313
2072	24.6515
2056	26.2645
2040	27.9378
2024	29.2856
2008	30.3934
1992	31.5348
1976	32.5733
1960	33.38
1944	33.9398
1928	34.6796
1912	35.2256
1896	35.7327
1880	35.9536
1864	36.4381
1848	36.7282
1832	36.9571
1816	36.9988
1800	37.2711
1784	37.6131
1768	37.4613
1752	37.4839
1736	37.711
1720	37.8451
1704	37.781
1688	37.7467
1672	38.0324
1656	38.1361
1640	37.9653
1624	37.9374
1608	38.1086
1592	38.1867
1576	37.9478
1560	37.7983
1544	38.1346
1528	38.226
1512	37.9931
1496	37.6608
1480	38.0502
1464	38.3188
1448	38.1181
1432	37.6547
1416	38.0935
1400	38.2258
1384	37.9724
1368	37.6121
1352	37.9958
1336	38.2228
1320	37.9019
1304	37.4895
1288	37.8285
1272	38.2507
1256	37.7821
1240	37.1994
1224	37.6281
1208	38.0071
1192	37.7061
1176	37.0921
1160	37.4801
1144	37.8906
1128	37.5482
1112	37.0073
1096	37.2063
1080	37.5201
1064	37.5083
1048	36.4329
1032	36.6492
1016	37.3022
1000	37.0228
984	 36.3072
968	 36.2582
952	 36.841
936	 36.8399
920	 35.9409
904	 35.7594
888	 36.2857
872	 36.2892
856	 35.3236
840	 34.9455
824	 35.9065
808	 35.622
792	 34.5211
776	 33.8893
760	 35.0902
744	 34.7095
728	 33.6203
712	 33.2771
696	 33.5373
680	 33.947
664	 32.7295
648	 31.8694
632	 32.358
616	 32.8595
600	 31.6871
584	 29.8832
568	 30.5391
552	 30.2108
536	 31.1756
520	 29.6729
504	 29.9508
488	 29.3485
472	 28.6911
456	 25.1756
440	 27.7959
424	 25.1575
408	 26.2311
392	 41.6809
376	 14.8464
370	 -8.003187