Folder: Masteroppgave/Bakgrunnsmateriale/MATLAB/FTIR/ftir_data/LPE454/Mapping_121 (part 4)

File: LPE454_t01.asc
PE IR       SPECTRUM    SPECTRUM    ASCII       PEDS        1.60
  -1
LPE454~4.ASC
17/05/19
14:29:21.00
17/05/19
14:29:46.00
tln
$LPE454_t0001$<tbV0>[13.0,-13.0,8.0,0.0,27,1,0]
27.028
64

2002,4.07
MIRTGS : RIGHTBACK : INTERNAL 2
MIR : ON : INTERNAL 2
OPTKBR

0.200000
8
8.000000
FILLER
RATIO
SPECTRUM
UNLOCKED 256

DOUBLE
64
COMBINED
1
0
0

0.002000
RATIO

1
0
TRUE
51149
0
LEFT NOT FITTED RIGHT NOT FITTED 0
NONE
NONE
15600
12
4.427000
51148
TRUE
1 0 8 72 0 0 0 0

15798

#HDR
-1
-1
#GR
µM
%T
2.38419e-05
0.0
2.000000
0.002000
12515
8
46.0631
-35.7296
#DATA
2.000000	 0.215363
2.084000	 0.550350
2.168000	 0.383039
2.252000	 0.954859
2.336000	 0.194377
2.420000	 0.222876
2.504000	 0.024423
2.588000	 0.130847
2.672000	 -0.121291
2.756000	 0.042221
2.840000	 -0.164497
2.924000	 0.048183
3.008000	 0.093420
3.092000	 -0.012491
3.176000	 -0.016242
3.260000	 -0.055843
3.344000	 -0.010883
3.428000	 -0.096716
3.512000	 0.197916
3.596000	 0.073536
3.680000	 0.059939
3.764000	 0.089952
3.848000	 0.046658
3.932000	 0.007948
4.016000	 0.198378
4.100000	 0.013924
4.184000	 -0.167810
4.268000	 0.026881
4.352000	 0.043308
4.436000	 0.141496
4.520000	 0.588450
4.604000	 1.094433
4.688000	 1.937388
4.772000	 2.938308
4.856000	 3.820438
4.940000	 4.684300
5.024000	 5.332236
5.108000	 5.854638
5.192000	 6.199741
5.276000	 6.485601
5.359999	 6.685252
5.444000	 6.741998
5.528000	 6.806822
5.612000	 6.974452
5.696000	 7.089581
5.780000	 7.106065
5.864000	 7.340274
5.948000	 7.366661
6.032000	 7.393442
6.116000	 7.297162
6.200000	 7.263325
6.284000	 7.339820
6.368000	 7.411267
6.452000	 7.397601
6.536000	 7.264498
6.620000	 7.439796
6.704000	 7.341780
6.788000	 7.527117
6.872000	 7.530389
6.956000	 7.555674
7.040000	 7.467861
7.124000	 7.502074
7.208000	 7.513731
7.292000	 7.480993
7.376000	 7.495180
7.460000	 7.447661
7.544000	 7.390752
7.628000	 7.418685
7.712000	 7.509363
7.796000	 7.315040
7.880000	 7.444700
7.964000	 7.410705
8.048000	 7.379885
8.132000	 7.363200
8.216000	 7.353702
8.300000	 7.403651
8.384000	 7.699446
8.468000	 7.452875
8.552000	 7.490598
8.635999	 7.335020
8.719999	 7.459493
8.804000	 7.417688
8.888000	 7.413733
8.972000	 7.485605
9.056000	 7.162022
9.140000	 7.273332
9.224000	 7.181950
9.308000	 7.215973
9.391999	 7.402254
9.475999	 7.409181
9.560000	 7.401825
9.644000	 7.233339
9.728000	 7.199409
9.812000	 7.293061
9.896000	 7.234953
9.980000	 7.269544
10.064	7.327710
10.148	7.115263
10.232	7.024833
10.316	7.150534
10.4	7.175704
10.484	7.205296
10.568	6.960001
10.652	7.070061
10.736	7.104188
10.82	7.147994
10.904	7.069607
10.988	6.962741
11.072	6.891850
11.156	6.994538
11.24	7.000295
11.324	6.892867
11.408	7.026536
11.492	7.091355
11.576	6.954370
11.66	6.906882
11.744	6.877822
11.828	6.909877
11.912	6.907561
11.996	6.851825
12.08	6.700481
12.164	6.756231
12.248	6.952833
12.332	6.713221
12.416	6.594084
12.5	6.666874
12.584	6.848104
12.668	6.925486
12.752	6.726862
12.836	6.733652
12.92	6.699692
13.004	6.649520
13.088	6.598505
13.172	6.512931
13.256	6.381369
13.34	6.280386
13.424	6.266723
13.508	6.533010
13.592	6.729209
13.676	6.619052
13.76	6.636778
13.844	6.743880
13.928	6.629350
14.012	6.310383
14.096	6.177387
14.18	6.173391
14.264	6.025564
14.348	5.925244
14.432	6.057946
14.516	6.239967
14.6	6.251633
14.684	6.246184
14.768	6.290356
14.852	6.261640
14.936	6.346077
15.02	6.597099
15.104	6.617737
15.188	6.250798
15.272	5.875422
15.356	5.776992
15.44	5.833022
15.524	5.907404
15.608	5.936730
15.692	5.800289
15.776	5.593371
15.86	5.631263
15.944	5.965098
16.028	6.280355
16.112	6.327731
16.196	6.159262
16.28	5.954784
16.364	5.859846
16.448	5.953605
16.532	6.142165
16.616	6.203973
16.7	6.093810
16.784	5.959911
16.868	5.837842
16.952	5.684392
17.036	5.593128
17.12	5.629035
17.204	5.624555
17.288	5.442146
17.372	5.216134
17.456	5.134869
17.54	5.175205
17.624	5.185576
17.708	5.122284
17.792	5.070253
17.876	5.075756
17.96	5.065124
18.044	4.979451
18.128	4.914923
18.212	5.021972
18.296	5.299424
18.38	5.574494
18.464	5.671381
18.548	5.564986
18.632	5.388113
18.716	5.299212
18.8	5.350287
18.884	5.462695
18.968	5.533613
19.052	5.543464
19.136	5.539102
19.22	5.549683
19.304	5.556619
19.388	5.515039
19.472	5.388639
19.556	5.192861
19.64	5.011599
19.724	4.943636
19.808	5.002144
19.892	5.084279
19.976	5.060031
20.06	4.896779
20.144	4.666478
20.228	4.453800
20.312	4.310063
20.396	4.284426
20.48	4.440036
20.564	4.799335
20.648	5.268212
20.732	5.647898
20.816	5.749409
20.9	5.520002
20.984	5.078427
21.068	4.646470
21.152	4.427120
21.236	4.510616
21.32	4.824044
21.404	5.180662
21.488	5.415305
21.572	5.488845
21.656	5.484137
21.74	5.519132
21.824	5.645427
21.908	5.801955
21.992	5.867440
22.076	5.751571
22.16	5.467216
22.244	5.161041
22.328	5.030367
22.412	5.233186
22.496	5.788369
22.58	6.531504
22.664	7.193311
22.748	7.532355
22.832	7.481669
22.916	7.182969
23	6.855668
23.084	6.675467
23.168	6.687416
23.252	6.786417
23.336	6.796809
23.42	6.629097
23.504	6.263415
23.588	5.767391
23.672	5.239738
23.756	4.745753
23.84	4.380084
23.924	4.273770
24.008	4.494906
24.092	5.007914
24.176	5.798316
24.26	6.923906
24.344	8.602154
24.428	11.0861
24.512	14.4355
24.596	18.2746
24.68	21.8064
24.764	24.0727
24.848	24.2854
24.932	22.0298
25.016	17.4856
25.1	11.3622
25.184	4.467433
25.268	-2.478880
25.352	-8.760547
25.436	-13.5915
25.52	-16.2442
25.604	-16.1854
25.688	-12.9712
25.772	-6.347091
25.856	3.554636
25.94	15.7027
26.024	28.1217
26.108	38.3057
26.192	44.5273
26.276	45.9742
26.36	42.9617
26.444	35.7011
26.528	24.3511
26.612	8.813427
26.696	-9.299203
26.78	-25.994
26.864	-35.2967
26.948	-31.7285
27.028	-14.7108

File: LPE454_t01_cm-1.asc
PE IR       SPECTRUM    SPECTRUM    ASCII       PEDS        1.60
  -1
LPE454~3.ASC
17/05/19
14:29:21.00
17/05/19
14:29:21.00
tln
$LPE454_t0001$<tbV0>[13.0,-13.0,8.0,0.0,27,1,0]
370
64

2002,4.07
MIRTGS : RIGHTBACK : INTERNAL 2
MIR : ON : INTERNAL 2
OPTKBR

0.200000
8
8.000000
FILLER
RATIO
SPECTRUM
UNLOCKED 256

DOUBLE
64
COMBINED
1
0
0

1.000000
RATIO

1
0
TRUE
51149
0
LEFT NOT FITTED RIGHT NOT FITTED 0
NONE
NONE
15600
12
4.427000
51148
TRUE
1 0 8 72 0 0 0 0

15798

#HDR
-1
-1
#GR
CM-1
%T
2.38419e-05
0.0
5000
-1.000000
4631
8
46.0055
-35.7271
#DATA
5000	0.215363
4984	-0.215673
4968	0.686001
4952	-0.095415
4936	0.264692
4920	0.350499
4904	-0.849223
4888	1.139163
4872	-0.472664
4856	2.865767
4840	-0.280904
4824	1.587796
4808	-0.066089
4792	0.444436
4776	0.394177
4760	0.112175
4744	-0.174880
4728	0.159263
4712	0.297212
4696	0.156617
4680	-0.149989
4664	-0.057458
4648	0.243663
4632	0.186014
4616	0.333714
4600	0.255560
4584	-0.093889
4568	-0.054216
4552	-0.211358
4536	-0.049185
4520	0.004124
4504	-0.251483
4488	-0.817275
4472	2.090668
4456	13.9663
4440	0.934624
4424	-0.614070
4408	-0.240325
4392	-0.166249
4376	-0.451135
4360	0.016474
4344	0.369215
4328	0.379991
4312	0.292968
4296	0.055003
4280	0.206661
4264	0.050878
4248	-0.002098
4232	0.016975
4216	0.092506
4200	0.049018
4184	-0.299906
4168	0.252246
4152	0.150728
4136	0.228381
4120	0.165939
4104	0.216317
4088	0.116658
4072	-0.072312
4056	0.065374
4040	0.009274
4024	-0.020003
4008	0.020766
3992	-0.021886
3976	-0.035238
3960	0.204372
3944	0.035405
3928	0.153565
3912	-0.091743
3896	0.217223
3880	-0.023221
3864	0.130915
3848	0.146603
3832	0.013971
3816	-0.108909
3800	0.004625
3784	0.048375
3768	0.155210
3752	-0.026631
3736	-0.087642
3720	0.178909
3704	0.282001
3688	0.076699
3672	-0.035238
3656	0.073194
3640	-0.010085
3624	-0.003194
3608	-0.031590
3592	-0.033283
3576	-0.030493
3560	0.087785
3544	0.026726
3528	-0.042700
3512	0.069403
3496	0.176000
3480	-0.043535
3464	-0.096368
3448	-0.006771
3432	0.176596
3416	0.020599
3400	0.186681
3384	-0.071859
3368	0.065374
3352	0.172400
3336	0.011515
3320	0.114393
3304	0.037884
3288	0.159645
3272	0.001144
3256	-0.029087
3240	-0.058269
3224	-0.035977
3208	0.222420
3192	0.053238
3176	0.083303
3160	0.095343
3144	-0.047230
3128	0.056457
3112	0.117135
3096	0.084400
3080	-0.038433
3064	-0.126886
3048	0.154352
3032	-0.016093
3016	0.071024
3000	0.070142
2984	0.008678
2968	-0.026655
2952	-0.106334
2936	0.129389
2920	-0.084471
2904	0.013518
2888	0.066089
2872	-0.066900
2856	0.125002
2840	0.093030
2824	0.042414
2808	0.058627
2792	0.023508
2776	0.064492
2760	-0.006031
2744	0.026559
2728	0.063848
2712	-0.034499
2696	0.056552
2680	0.001692
2664	0.109362
2648	0.001120
2632	0.080394
2616	0.060462
2600	0.055742
2584	-0.055503
2568	0.034332
2552	-0.040698
2536	0.002837
2520	-0.030755
2504	0.273919
2488	0.226712
2472	0.016427
2456	-0.016498
2440	0.000309
2424	-0.047349
2408	0.152754
2392	-0.165033
2376	0.061321
2360	-0.014448
2344	0.024366
2328	0.078296
2312	0.080990
2296	0.053405
2280	0.170683
2264	0.173783
2248	0.125503
2232	0.309944
2216	0.551509
2200	0.689005
2184	0.937771
2168	1.094412
2152	1.597762
2136	1.862287
2120	2.285385
2104	2.723503
2088	3.353738
2072	3.471326
2056	3.851103
2040	4.242086
2024	4.691529
2008	5.000352
1992	5.305218
1976	5.631923
1960	5.816030
1944	6.024694
1928	6.192612
1912	6.366419
1896	6.485629
1880	6.594777
1864	6.717991
1848	6.764197
1832	6.823110
1816	6.829738
1800	6.869649
1784	6.959652
1768	6.991696
1752	7.164812
1736	7.091569
1720	7.188534
1704	7.349967
1688	7.253980
1672	7.323336
1656	7.404994
1640	7.251286
1624	7.390570
1608	7.244968
1592	7.347130
1576	7.355952
1560	7.428193
1544	7.394123
1528	7.255578
1512	7.408571
1496	7.455039
1480	7.403135
1464	7.325959
1448	7.508802
1432	7.518792
1416	7.474350
1400	7.484054
1384	7.471108
1368	7.507777
1352	7.437086
1336	7.438850
1320	7.357835
1304	7.390403
1288	7.339119
1272	7.447433
1256	7.411313
1240	7.409143
1224	7.270026
1208	7.392740
1192	7.696461
1176	7.465767
1160	7.355952
1144	7.470440
1128	7.395005
1112	7.452750
1096	7.288837
1080	7.176756
1064	7.402467
1048	7.441282
1032	7.246112
1016	7.327485
1000	7.279658
984	 7.094812
968	 7.173204
952	 7.140016
936	 7.115101
920	 7.145547
904	 6.901454
888	 6.933450
872	 7.085990
856	 6.898689
840	 6.910014
824	 6.694912
808	 6.591963
792	 6.946229
776	 6.725645
760	 6.531763
744	 6.296849
728	 6.608676
712	 6.221961
696	 5.936431
680	 6.259679
664	 6.660413
648	 5.826163
632	 5.569720
616	 6.062054
600	 6.149148
584	 5.631041
568	 5.190992
552	 4.916143
536	 5.347514
520	 5.551481
504	 5.040335
488	 4.478716
472	 4.425263
456	 5.832672
440	 7.486915
424	 5.786490
408	 14.34
392	 -16.068
376	 12.0968
370	 -14.7108

File: LPE454_t02.asc
PE IR       SPECTRUM    SPECTRUM    ASCII       PEDS        1.60
  -1
LPC394~1.ASC
17/05/19
14:33:57.00
17/05/19
14:34:23.00
tln
$LPE454_t0002$<tbV0>[10.4,-13.0,8.0,0.0,27,1,0]
27.028
64

2002,4.07
MIRTGS : RIGHTBACK : INTERNAL 2
MIR : ON : INTERNAL 2
OPTKBR

0.200000
8
8.000000
FILLER
RATIO
SPECTRUM
UNLOCKED 256

DOUBLE
64
COMBINED
1
0
0

0.002000
RATIO

1
0
TRUE
51149
0
LEFT NOT FITTED RIGHT NOT FITTED 0
NONE
NONE
15600
12
4.427000
51148
TRUE
1 0 8 72 0 0 0 0

15798

#HDR
-1
-1
#GR
µM
%T
2.38419e-05
0.0
2.000000
0.002000
12515
8
62.0076
-13.2615
#DATA
2.000000	 0.196385
2.084000	 0.666584
2.168000	 0.802563
2.252000	 -0.709784
2.336000	 -0.213622
2.420000	 0.223514
2.504000	 0.093601
2.588000	 0.030164
2.672000	 -0.055528
2.756000	 0.019587
2.840000	 0.085790
2.924000	 -0.122769
3.008000	 -0.083374
3.092000	 0.207977
3.176000	 0.038509
3.260000	 -0.079069
3.344000	 -0.026231
3.428000	 0.045673
3.512000	 0.207710
3.596000	 0.117630
3.680000	 -0.059804
3.764000	 0.016426
3.848000	 0.022875
3.932000	 -0.013950
4.016000	 0.135142
4.100000	 0.050867
4.184000	 0.045105
4.268000	 0.254992
4.352000	 0.909486
4.436000	 2.189129
4.520000	 4.468423
4.604000	 8.039354
4.688000	 12.016
4.772000	 16.1912
4.856000	 19.8007
4.940000	 22.6527
5.024000	 25.0623
5.108000	 26.7749
5.192000	 28.0465
5.276000	 29.2654
5.359999	 30.054
5.444000	 30.6942
5.528000	 31.2443
5.612000	 31.7492
5.696000	 31.907
5.780000	 32.3638
5.864000	 32.5349
5.948000	 32.884
6.032000	 33.012
6.116000	 33.0777
6.200000	 33.2348
6.284000	 33.2622
6.368000	 33.3369
6.452000	 33.5297
6.536000	 33.389
6.620000	 33.5792
6.704000	 33.8279
6.788000	 33.5941
6.872000	 33.7848
6.956000	 33.7286
7.040000	 33.723
7.124000	 33.5509
7.208000	 33.6413
7.292000	 33.8651
7.376000	 33.6172
7.460000	 33.6063
7.544000	 33.6838
7.628000	 33.7412
7.712000	 33.4774
7.796000	 33.476
7.880000	 33.5041
7.964000	 33.5988
8.048000	 33.5722
8.132000	 33.2918
8.216000	 33.3867
8.300000	 33.5254
8.384000	 33.4002
8.468000	 33.3638
8.552000	 33.2504
8.635999	 33.2371
8.719999	 33.3754
8.804000	 33.4018
8.888000	 33.2482
8.972000	 33.0472
9.056000	 32.9361
9.140000	 32.6577
9.224000	 32.9304
9.308000	 32.944
9.391999	 32.9979
9.475999	 32.789
9.560000	 32.6021
9.644000	 32.5086
9.728000	 32.5129
9.812000	 32.9816
9.896000	 32.7555
9.980000	 32.4785
10.064	32.4512
10.148	32.4234
10.232	32.08
10.316	32.2451
10.4	32.2796
10.484	32.1466
10.568	32.0346
10.652	32.1624
10.736	32.162
10.82	31.9869
10.904	31.7836
10.988	31.7385
11.072	31.7201
11.156	31.8743
11.24	31.8895
11.324	31.7642
11.408	31.4865
11.492	31.2898
11.576	31.3894
11.66	31.2425
11.744	31.1388
11.828	30.7858
11.912	30.7921
11.996	30.8194
12.08	31.0443
12.164	30.9614
12.248	30.9805
12.332	30.8827
12.416	30.603
12.5	30.5106
12.584	30.5508
12.668	30.3805
12.752	30.362
12.836	30.3406
12.92	30.3484
13.004	30.3256
13.088	30.3655
13.172	30.7009
13.256	30.8733
13.34	30.8345
13.424	30.6587
13.508	30.3439
13.592	30.0836
13.676	29.7991
13.76	29.5398
13.844	29.5136
13.928	29.5509
14.012	29.6658
14.096	29.7436
14.18	29.6475
14.264	29.539
14.348	29.5155
14.432	29.5624
14.516	29.5428
14.6	29.2859
14.684	28.9552
14.768	28.837
14.852	28.7848
14.936	28.5005
15.02	28.0807
15.104	27.9162
15.188	28.0938
15.272	28.2565
15.356	28.2437
15.44	28.2221
15.524	28.2486
15.608	28.3293
15.692	28.4545
15.776	28.4492
15.86	28.2517
15.944	28.0682
16.028	28.0317
16.112	28.0477
16.196	27.9985
16.28	27.8712
16.364	27.7354
16.448	27.6816
16.532	27.6817
16.616	27.5737
16.7	27.277
16.784	26.9346
16.868	26.761
16.952	26.7844
17.036	26.8475
17.12	26.8547
17.204	26.8897
17.288	27.0386
17.372	27.2292
17.456	27.3064
17.54	27.2019
17.624	27.0154
17.708	26.9199
17.792	26.9636
17.876	26.9921
17.96	26.8055
18.044	26.38
18.128	25.8952
18.212	25.5662
18.296	25.5053
18.38	25.6946
18.464	26.0091
18.548	26.2482
18.632	26.2478
18.716	26.0323
18.8	25.82
18.884	25.8125
18.968	25.9905
19.052	26.1638
19.136	26.2384
19.22	26.3305
19.304	26.5736
19.388	26.8899
19.472	27.0356
19.556	26.8596
19.64	26.4517
19.724	26.0368
19.808	25.7635
19.892	25.6213
19.976	25.508
20.06	25.3363
20.144	25.0902
20.228	24.8241
20.312	24.6269
20.396	24.5525
20.48	24.5582
20.564	24.5068
20.648	24.2875
20.732	23.9204
20.816	23.5509
20.9	23.3346
20.984	23.3174
21.068	23.4342
21.152	23.5993
21.236	23.7968
21.32	24.0915
21.404	24.5279
21.488	25.0326
21.572	25.3943
21.656	25.3732
21.74	24.8551
21.824	23.9602
21.908	23.0267
21.992	22.431
22.076	22.394
22.16	22.8741
22.244	23.5922
22.328	24.21
22.412	24.4747
22.496	24.3064
22.58	23.7676
22.664	22.9676
22.748	21.9882
22.832	20.8663
22.916	19.6553
23	18.4752
23.084	17.5231
23.168	17.0056
23.252	17.0264
23.336	17.5651
23.42	18.4029
23.504	19.2644
23.588	19.9178
23.672	20.2599
23.756	20.3501
23.84	20.2801
23.924	20.1247
24.008	19.9439
24.092	19.8008
24.176	19.7308
24.26	19.7926
24.344	20.0122
24.428	20.3965
24.512	21.0817
24.596	22.2828
24.68	24.2971
24.764	27.4013
24.848	31.6557
24.932	36.7635
25.016	42.1284
25.1	47.1757
25.184	51.457
25.268	54.8066
25.352	57.3161
25.436	59.2101
25.52	60.689
25.604	61.7804
25.688	61.8781
25.772	60.029
25.856	55.4955
25.94	48.3039
26.024	39.182
26.108	29.2083
26.192	19.3868
26.276	10.3901
26.36	2.364383
26.444	-4.615757
26.528	-10.1103
26.612	-13.0602
26.696	-12.0233
26.78	-5.739194
26.864	5.795031
26.948	20.8907
27.028	35.3394

File: LPE454_t02_cm-1.asc
PE IR       SPECTRUM    SPECTRUM    ASCII       PEDS        1.60
  -1
LP57B0~1.ASC
17/05/19
14:33:57.00
17/05/19
14:33:57.00
tln
$LPE454_t0002$<tbV0>[10.4,-13.0,8.0,0.0,27,1,0]
370
64

2002,4.07
MIRTGS : RIGHTBACK : INTERNAL 2
MIR : ON : INTERNAL 2
OPTKBR

0.200000
8
8.000000
FILLER
RATIO
SPECTRUM
UNLOCKED 256

DOUBLE
64
COMBINED
1
0
0

1.000000
RATIO

1
0
TRUE
51149
0
LEFT NOT FITTED RIGHT NOT FITTED 0
NONE
NONE
15600
12
4.427000
51148
TRUE
1 0 8 72 0 0 0 0

15798

#HDR
-1
-1
#GR
CM-1
%T
2.38419e-05
0.0
5000
-1.000000
4631
8
61.9991
-12.9564
#DATA
5000	0.196385
4984	0.505828
4968	0.184750
4952	0.186038
4936	0.504112
4920	0.824213
4904	0.123262
4888	0.871896
4872	1.632332
4856	1.034665
4840	-1.860833
4824	-0.744247
4808	1.086211
4792	0.034689
4776	-0.356984
4760	0.528097
4744	0.391077
4728	0.005102
4712	0.196456
4696	0.001811
4680	0.325655
4664	0.010585
4648	0.090122
4632	-0.018286
4616	0.646567
4600	0.191807
4584	0.104212
4568	0.400042
4552	0.582242
4536	-0.335216
4520	-0.580430
4504	-0.964236
4488	0.298023
4472	0.748753
4456	14.1149
4440	-0.651049
4424	-0.934815
4408	-1.039409
4392	-0.682878
4376	0.052571
4360	-0.174188
4344	0.032806
4328	0.468730
4312	0.070095
4296	0.137567
4280	-0.194573
4264	-0.059652
4248	0.014901
4232	0.293755
4216	0.138425
4200	0.025129
4184	1.102304
4168	-0.293111
4152	0.181460
4136	0.189828
4120	0.139617
4104	-0.028014
4088	0.071549
4072	0.090575
4056	0.200700
4040	0.093674
4024	-0.067138
4008	0.261068
3992	0.112533
3976	0.068116
3960	0.098347
3944	0.020265
3928	-0.067758
3912	-0.065517
3896	0.202608
3880	0.156092
3864	0.030350
3848	0.079298
3832	0.252628
3816	0.048542
3800	-0.029850
3784	0.075840
3768	0.126695
3752	0.031518
3736	0.055575
3720	-0.091028
3704	0.177288
3688	-0.054097
3672	0.065350
3656	0.177216
3640	-0.010752
3624	-0.039291
3608	0.109481
3592	-0.013995
3576	0.064587
3560	0.025486
3544	0.010323
3528	0.083184
3512	0.073075
3496	0.163149
3480	0.140714
3464	-0.077652
3448	0.057959
3432	0.054860
3416	-0.062513
3400	0.125455
3384	0.128388
3368	0.040769
3352	-0.006794
3336	-0.128340
3320	-0.021386
3304	-0.025367
3288	0.130605
3272	-0.097298
3256	0.139689
3240	0.103688
3224	0.122261
3208	0.101947
3192	0.100016
3176	0.108456
3160	-0.046086
3144	-0.060462
3128	-0.013399
3112	0.099396
3096	0.135898
3080	0.092411
3064	-0.053644
3048	0.129699
3032	-0.076985
3016	0.056529
3000	0.132966
2984	-0.045251
2968	0.078797
2952	0.041866
2936	0.017428
2920	0.056886
2904	0.134420
2888	0.063180
2872	0.016188
2856	0.287795
2840	0.034046
2824	-0.005149
2808	-0.014042
2792	-0.076341
2776	0.042295
2760	-0.059723
2744	0.046324
2728	-0.087094
2712	0.082612
2696	0.036311
2680	0.040125
2664	0.125026
2648	-0.039410
2632	0.019907
2616	0.050544
2600	-0.006842
2584	0.093746
2568	0.016856
2552	-0.032639
2536	-0.054311
2520	-0.023317
2504	-0.003314
2488	0.164747
2472	0.060510
2456	0.166416
2440	0.050473
2424	0.059270
2408	0.102567
2392	0.042533
2376	0.063300
2360	0.203680
2344	0.240445
2328	0.433778
2312	0.652122
2296	0.964617
2280	1.364827
2264	1.656937
2248	2.459597
2232	3.258061
2216	4.226374
2200	5.540037
2184	6.818819
2168	8.421111
2152	10.065
2136	11.6775
2120	13.532
2104	15.2758
2088	17.1686
2072	18.4384
2056	20.1679
2040	21.5382
2024	22.6709
2008	23.8759
1992	24.9723
1976	25.8865
1960	26.6723
1944	27.3637
1928	28.0019
1912	28.6324
1896	29.2583
1880	29.6216
1864	30.0819
1848	30.4343
1832	30.8484
1816	31.0885
1800	31.3828
1784	31.7088
1768	31.8824
1752	31.9916
1736	32.2441
1720	32.2756
1704	32.5611
1688	32.8164
1672	32.8514
1656	33.047
1640	33.0149
1624	33.2148
1608	33.138
1592	33.267
1576	33.1739
1560	33.6368
1544	33.537
1528	33.4326
1512	33.5548
1496	33.7729
1480	33.701
1464	33.6436
1448	33.5162
1432	33.7441
1416	33.7424
1400	33.5709
1384	33.7496
1368	33.7783
1352	33.6784
1336	33.6285
1320	33.6459
1304	33.6707
1288	33.4443
1272	33.5294
1256	33.5902
1240	33.4717
1224	33.3239
1208	33.5534
1192	33.3966
1176	33.3758
1160	33.2374
1144	33.4014
1128	33.2433
1112	33.0467
1096	32.689
1080	32.9793
1064	32.986
1048	32.585
1032	32.4608
1016	32.9135
1000	32.3993
984	 32.3354
968	 32.2493
952	 32.0859
936	 32.1725
920	 31.8626
904	 31.723
888	 31.8466
872	 31.3011
856	 31.2184
840	 30.7865
824	 31.0095
808	 30.7377
792	 30.4756
776	 30.3288
760	 30.6443
744	 30.6018
728	 29.5893
712	 29.7159
696	 29.5227
680	 28.9008
664	 27.9506
648	 28.2218
632	 28.3529
616	 27.9484
600	 27.4126
584	 26.8548
568	 27.0537
552	 25.9593
536	 26.1995
520	 26.3521
504	 25.6964
488	 24.5577
472	 23.6736
456	 22.826
440	 22.2444
424	 19.8993
408	 21.0578
392	 60.5321
376	 -12.7665
370	 35.3394

File: LPE454_t03.asc
PE IR       SPECTRUM    SPECTRUM    ASCII       PEDS        1.60
  -1
LPC390~1.ASC
17/05/19
14:38:34.00
17/05/19
14:39:00.00
tln
$LPE454_t0003$<tbV0>[7.8,-13.0,8.0,0.0,27,1,0]
27.028
64

2002,4.07
MIRTGS : RIGHTBACK : INTERNAL 2
MIR : ON : INTERNAL 2
OPTKBR

0.200000
8
8.000000
FILLER
RATIO
SPECTRUM
UNLOCKED 256

DOUBLE
64
COMBINED
1
0
0

0.002000
RATIO

1
0
TRUE
51149
0
LEFT NOT FITTED RIGHT NOT FITTED 0
NONE
NONE
15600
12
4.427000
51148
TRUE
1 0 8 72 0 0 0 0

15798

#HDR
-1
-1
#GR
µM
%T
2.38419e-05
0.0
2.000000
0.002000
12515
8
42.4836
-31.147
#DATA
2.000000	 -0.401926
2.084000	 0.697503
2.168000	 0.307057
2.252000	 -0.597364
2.336000	 -0.036597
2.420000	 0.335334
2.504000	 -0.078474
2.588000	 -0.025189
2.672000	 0.175455
2.756000	 0.107075
2.840000	 -0.174819
2.924000	 -0.038466
3.008000	 0.112578
3.092000	 0.016277
3.176000	 0.019416
3.260000	 0.003513
3.344000	 -0.025257
3.428000	 0.034660
3.512000	 0.113040
3.596000	 0.048440
3.680000	 -0.009778
3.764000	 0.020360
3.848000	 0.086824
3.932000	 0.004055
4.016000	 -0.009405
4.100000	 0.069844
4.184000	 0.237677
4.268000	 0.416344
4.352000	 1.101384
4.436000	 2.763500
4.520000	 5.532261
4.604000	 9.674280
4.688000	 14.3981
4.772000	 18.889
4.856000	 23.0569
4.940000	 26.7041
5.024000	 29.0206
5.108000	 31.2133
5.192000	 32.4603
5.276000	 33.7724
5.359999	 34.4253
5.444000	 35.1509
5.528000	 35.4202
5.612000	 36.1308
5.696000	 35.8543
5.780000	 36.6371
5.864000	 36.0728
5.948000	 36.4479
6.032000	 36.6953
6.116000	 36.2133
6.200000	 36.7198
6.284000	 36.5104
6.368000	 36.2416
6.452000	 36.7928
6.536000	 36.5712
6.620000	 36.1331
6.704000	 36.5803
6.788000	 36.5638
6.872000	 35.7905
6.956000	 35.8837
7.040000	 36.7252
7.124000	 36.2207
7.208000	 35.686
7.292000	 36.0879
7.376000	 36.6055
7.460000	 35.8884
7.544000	 35.4155
7.628000	 35.8619
7.712000	 36.3669
7.796000	 36.1561
7.880000	 35.3186
7.964000	 35.2796
8.048000	 35.9812
8.132000	 36.2908
8.216000	 35.7676
8.300000	 35.0792
8.384000	 35.1936
8.468000	 35.7082
8.552000	 36.2521
8.635999	 35.8012
8.719999	 35.1558
8.804000	 34.6586
8.888000	 35.0858
8.972000	 35.5709
9.056000	 35.9561
9.140000	 35.5649
9.224000	 34.8857
9.308000	 34.5666
9.391999	 34.7103
9.475999	 35.1751
9.560000	 35.6385
9.644000	 35.4715
9.728000	 35.1496
9.812000	 34.7204
9.896000	 34.2774
9.980000	 34.3332
10.064	34.5945
10.148	35.141
10.232	34.9393
10.316	34.7986
10.4	34.2477
10.484	33.6188
10.568	33.6314
10.652	33.9601
10.736	34.3736
10.82	34.7578
10.904	34.7518
10.988	34.6059
11.072	34.1985
11.156	33.8555
11.24	33.336
11.324	32.9248
11.408	33.0682
11.492	33.7593
11.576	33.9441
11.66	34.0127
11.744	34.1899
11.828	34.0484
11.912	33.6863
11.996	33.2923
12.08	32.9837
12.164	32.6576
12.248	32.5225
12.332	32.7219
12.416	32.951
12.5	33.2268
12.584	33.4585
12.668	33.4283
12.752	33.2305
12.836	32.8813
12.92	32.577
13.004	32.3515
13.088	31.9908
13.172	31.6406
13.256	31.2991
13.34	31.6947
13.424	32.1051
13.508	32.0789
13.592	32.3502
13.676	32.5842
13.76	32.4485
13.844	32.272
13.928	32.0902
14.012	31.8946
14.096	31.6846
14.18	31.2853
14.264	30.9099
14.348	30.7672
14.432	30.7364
14.516	30.7685
14.6	30.8928
14.684	30.972
14.768	30.9849
14.852	31.0833
14.936	31.2745
15.02	31.4783
15.104	31.5604
15.188	31.4584
15.272	31.3319
15.356	31.1798
15.44	30.7522
15.524	30.1228
15.608	29.7063
15.692	29.6182
15.776	29.6282
15.86	29.5775
15.944	29.4118
16.028	29.1731
16.112	29.0952
16.196	29.3424
16.28	29.7568
16.364	30.0839
16.448	30.2154
16.532	30.1595
16.616	30.0196
16.7	29.954
16.784	30.0205
16.868	30.1082
16.952	30.0314
17.036	29.6837
17.12	29.1557
17.204	28.6677
17.288	28.3562
17.372	28.1872
17.456	28.0919
17.54	28.0645
17.624	28.0782
17.708	28.0539
17.792	27.973
17.876	27.922
17.96	27.9499
18.044	27.9959
18.128	28.014
18.212	28.074
18.296	28.2821
18.38	28.6508
18.464	29.0721
18.548	29.3699
18.632	29.3831
18.716	29.0617
18.8	28.5188
18.884	27.9693
18.968	27.5948
19.052	27.449
19.136	27.4732
19.22	27.5632
19.304	27.6232
19.388	27.5852
19.472	27.4286
19.556	27.1892
19.64	26.9426
19.724	26.767
19.808	26.6875
19.892	26.6506
19.976	26.5783
20.06	26.4486
20.144	26.3131
20.228	26.2251
20.312	26.2027
20.396	26.2471
20.48	26.3915
20.564	26.6707
20.648	27.0562
20.732	27.4286
20.816	27.6536
20.9	27.7042
20.984	27.6888
21.068	27.7694
21.152	28.0181
21.236	28.3422
21.32	28.5325
21.404	28.3942
21.488	27.8695
21.572	27.053
21.656	26.127
21.74	25.2702
21.824	24.6073
21.908	24.2103
21.992	24.1276
22.076	24.3851
22.16	24.9453
22.244	25.6743
22.328	26.3524
22.412	26.7643
22.496	26.7986
22.58	26.4795
22.664	25.9349
22.748	25.3187
22.832	24.71
22.916	24.1555
23	23.6558
23.084	23.2289
23.168	22.9419
23.252	22.8684
23.336	23.0243
23.42	23.3011
23.504	23.4979
23.588	23.4076
23.672	22.9235
23.756	22.1071
23.84	21.1875
23.924	20.5032
24.008	20.4077
24.092	21.207
24.176	23.0738
24.26	26.0342
24.344	29.8943
24.428	34.2036
24.512	38.2444
24.596	41.1968
24.68	42.4503
24.764	41.9351
24.848	40.1208
24.932	37.815
25.016	35.7777
25.1	34.4289
25.184	33.814
25.268	33.6714
25.352	33.6492
25.436	33.4281
25.52	32.8512
25.604	31.9204
25.688	30.6282
25.772	29.0445
25.856	27.3527
25.94	25.6937
26.024	24.0057
26.108	21.9285
26.192	19.0456
26.276	14.8934
26.36	8.882770
26.444	0.934802
26.528	-8.284451
26.612	-17.524
26.696	-25.2161
26.78	-29.9372
26.864	-31.1008
26.948	-29.1779
27.028	-25.7992