Folder: Masteroppgave/Bakgrunnsmateriale/MATLAB/FTIR/ftir_data/LPE454/Mapping_121 (part 20)

File: LPE454_t117.asc
PE IR       SPECTRUM    SPECTRUM    ASCII       PEDS        1.60
  -1
LP9F0E~1.ASC
17/05/20
00:15:12.00
17/05/20
00:15:38.00
tln
$LPE454_t0117$<tbV0>[-2.6,13.0,8.0,0.0,27,1,0]
27.028
64

2002,4.07
MIRTGS : RIGHTBACK : INTERNAL 2
MIR : ON : INTERNAL 2
OPTKBR

0.200000
8
8.000000
FILLER
RATIO
SPECTRUM
UNLOCKED 256

DOUBLE
64
COMBINED
1
0
0

0.002000
RATIO

1
0
TRUE
51149
0
LEFT NOT FITTED RIGHT NOT FITTED 0
NONE
NONE
15600
12
4.427000
51148
TRUE
1 0 8 72 0 0 0 0

15798

#HDR
-1
-1
#GR
µM
%T
2.38419e-05
0.0
2.000000
0.002000
12515
8
45.1961
-3.195400
#DATA
2.000000	 0.232458
2.084000	 0.115554
2.168000	 -0.286119
2.252000	 0.547155
2.336000	 0.223011
2.420000	 0.397633
2.504000	 0.087913
2.588000	 0.151813
2.672000	 0.115567
2.756000	 0.024033
2.840000	 0.046833
2.924000	 0.186807
3.008000	 0.040135
3.092000	 0.162899
3.176000	 0.016436
3.260000	 0.087544
3.344000	 0.067570
3.428000	 0.011961
3.512000	 0.046417
3.596000	 0.037003
3.680000	 0.085570
3.764000	 0.097152
3.848000	 0.014104
3.932000	 0.053886
4.016000	 0.014221
4.100000	 -0.034770
4.184000	 0.059947
4.268000	 0.418057
4.352000	 0.872284
4.436000	 2.265432
4.520000	 4.521748
4.604000	 7.844230
4.688000	 11.7813
4.772000	 15.497
4.856000	 19.0557
4.940000	 21.5655
5.024000	 23.7659
5.108000	 25.3967
5.192000	 26.6855
5.276000	 27.6599
5.359999	 28.3946
5.444000	 29.119
5.528000	 29.5061
5.612000	 29.9582
5.696000	 30.1141
5.780000	 30.67
5.864000	 30.5551
5.948000	 30.9917
6.032000	 31.1049
6.116000	 31.1604
6.200000	 31.5473
6.284000	 31.2541
6.368000	 31.5291
6.452000	 31.5893
6.536000	 31.3862
6.620000	 31.5562
6.704000	 31.5716
6.788000	 31.3747
6.872000	 31.5286
6.956000	 31.6534
7.040000	 31.5992
7.124000	 31.276
7.208000	 31.655
7.292000	 31.7096
7.376000	 31.3956
7.460000	 31.3445
7.544000	 31.6761
7.628000	 31.6775
7.712000	 31.4439
7.796000	 31.1624
7.880000	 31.348
7.964000	 31.6178
8.048000	 31.4796
8.132000	 31.0898
8.216000	 31.1895
8.300000	 31.296
8.384000	 31.417
8.468000	 31.3152
8.552000	 31.1348
8.635999	 30.9359
8.719999	 31.1048
8.804000	 31.224
8.888000	 31.2081
8.972000	 30.8891
9.056000	 30.8425
9.140000	 30.7771
9.224000	 30.8967
9.308000	 31.0998
9.391999	 31.1957
9.475999	 30.9246
9.560000	 30.499
9.644000	 30.3856
9.728000	 30.5142
9.812000	 30.7773
9.896000	 31.0688
9.980000	 30.903
10.064	30.7923
10.148	30.3794
10.232	30.2413
10.316	30.2652
10.4	30.3204
10.484	30.5646
10.568	30.7159
10.652	30.5834
10.736	30.2598
10.82	29.9805
10.904	29.7896
10.988	29.7828
11.072	30.0665
11.156	30.2939
11.24	30.2893
11.324	30.3269
11.408	30.0912
11.492	29.8539
11.576	29.684
11.66	29.5683
11.744	29.3726
11.828	29.3951
11.912	29.6787
11.996	29.5726
12.08	29.6411
12.164	29.6929
12.248	29.5352
12.332	29.4959
12.416	29.3593
12.5	29.0626
12.584	28.8251
12.668	28.7785
12.752	28.9275
12.836	29.1828
12.92	29.3612
13.004	29.3737
13.088	29.3405
13.172	29.2286
13.256	29.0474
13.34	29.0224
13.424	28.855
13.508	28.5046
13.592	28.2497
13.676	28.0721
13.76	28.1455
13.844	28.4388
13.928	28.5612
14.012	28.4518
14.096	28.3943
14.18	28.3997
14.264	28.3208
14.348	28.1193
14.432	27.9301
14.516	27.9207
14.6	28.0717
14.684	28.0825
14.768	27.8221
14.852	27.6252
14.936	27.6347
15.02	27.6252
15.104	27.5772
15.188	27.6157
15.272	27.6809
15.356	27.6911
15.44	27.7002
15.524	27.8068
15.608	27.9831
15.692	28.083
15.776	28.0262
15.86	27.8028
15.944	27.4375
16.028	27.0496
16.112	26.7667
16.196	26.6262
16.28	26.6415
16.364	26.7483
16.448	26.7273
16.532	26.4853
16.616	26.2562
16.7	26.2143
16.784	26.2139
16.868	26.1583
16.952	26.1771
17.036	26.3354
17.12	26.5435
17.204	26.7459
17.288	26.9204
17.372	27.0128
17.456	27.0151
17.54	26.982
17.624	26.9499
17.708	26.8954
17.792	26.7668
17.876	26.5392
17.96	26.2342
18.044	25.8972
18.128	25.5674
18.212	25.2853
18.296	25.0943
18.38	24.9986
18.464	24.9642
18.548	24.9581
18.632	24.9545
18.716	24.9278
18.8	24.8931
18.884	24.9246
18.968	25.1287
19.052	25.5369
19.136	26.0273
19.22	26.368
19.304	26.3846
19.388	26.0932
19.472	25.6685
19.556	25.3129
19.64	25.1701
19.724	25.3471
19.808	25.8743
19.892	26.5906
19.976	27.1279
20.06	27.1223
20.144	26.5118
20.228	25.5913
20.312	24.7676
20.396	24.2439
20.48	23.9352
20.564	23.6313
20.648	23.1914
20.732	22.6288
20.816	22.0894
20.9	21.7818
20.984	21.8876
21.068	22.4663
21.152	23.3927
21.236	24.3684
21.32	25.0393
21.404	25.1783
21.488	24.8254
21.572	24.2525
21.656	23.7952
21.74	23.6607
21.824	23.838
21.908	24.1608
21.992	24.4616
22.076	24.668
22.16	24.8015
22.244	24.9087
22.328	24.9991
22.412	25.0632
22.496	25.1139
22.58	25.1925
22.664	25.3208
22.748	25.4259
22.832	25.3317
22.916	24.8199
23	23.8007
23.084	22.3907
23.168	20.9049
23.252	19.6911
23.336	19.0047
23.42	18.8606
23.504	19.0836
23.588	19.3682
23.672	19.428
23.756	19.1349
23.84	18.5576
23.924	17.9398
24.008	17.5428
24.092	17.4888
24.176	17.7034
24.26	17.9191
24.344	17.8096
24.428	17.1942
24.512	16.1046
24.596	14.7547
24.68	13.5151
24.764	12.8198
24.848	12.9567
24.932	14.0371
25.016	15.9652
25.1	18.5195
25.184	21.4243
25.268	24.4301
25.352	27.3402
25.436	29.9515
25.52	32.0548
25.604	33.4837
25.688	34.2655
25.772	34.7152
25.856	35.3313
25.94	36.5894
26.024	38.6786
26.108	41.3039
26.192	43.7653
26.276	45.13
26.36	44.5033
26.444	41.4046
26.528	36.0267
26.612	29.195
26.696	22.2322
26.78	16.5978
26.864	13.4678
26.948	13.3709
27.028	15.8589

File: LPE454_t117_cm-1.asc
PE IR       SPECTRUM    SPECTRUM    ASCII       PEDS        1.60
  -1
LP0A58~1.ASC
17/05/20
00:15:12.00
17/05/20
00:15:12.00
tln
$LPE454_t0117$<tbV0>[-2.6,13.0,8.0,0.0,27,1,0]
370
64

2002,4.07
MIRTGS : RIGHTBACK : INTERNAL 2
MIR : ON : INTERNAL 2
OPTKBR

0.200000
8
8.000000
FILLER
RATIO
SPECTRUM
UNLOCKED 256

DOUBLE
64
COMBINED
1
0
0

1.000000
RATIO

1
0
TRUE
51149
0
LEFT NOT FITTED RIGHT NOT FITTED 0
NONE
NONE
15600
12
4.427000
51148
TRUE
1 0 8 72 0 0 0 0

15798

#HDR
-1
-1
#GR
CM-1
%T
2.38419e-05
0.0
5000
-1.000000
4631
8
45.1282
-3.170537
#DATA
5000	0.232458
4984	-0.074839
4968	-0.265192
4952	0.438356
4936	0.359225
4920	0.105047
4904	-0.039386
4888	0.324487
4872	0.689506
4856	0.284266
4840	0.153136
4824	0.125193
4808	0.170969
4792	-0.083589
4776	-0.213336
4760	0.382995
4744	0.523018
4728	0.353455
4712	0.294327
4696	0.549459
4680	0.352764
4664	0.434303
4648	0.392699
4632	-0.396299
4616	-0.565457
4600	-1.745200
4584	19.0313
4568	0.644230
4552	-1.195621
4536	-0.477194
4520	-0.496315
4504	-0.328540
4488	0.048685
4472	0.295543
4456	0.764751
4440	0.549054
4424	0.566029
4408	-0.108766
4392	0.377178
4376	0.173377
4360	-0.038313
4344	-0.152826
4328	0.211501
4312	0.061988
4296	0.152111
4280	0.225758
4264	-0.006604
4248	0.307869
4232	0.208640
4216	0.164961
4200	0.272417
4184	0.213694
4168	0.259184
4152	0.942492
4136	0.290989
4120	0.099372
4104	-0.132441
4088	0.232887
4072	0.376892
4056	0.167083
4040	0.020360
4024	0.100326
4008	0.207948
3992	0.062656
3976	0.303959
3960	-0.058126
3944	0.136399
3928	-0.032782
3912	0.008153
3896	-0.083994
3880	-0.006246
3864	0.151872
3848	0.075411
3832	0.221920
3816	0.130629
3800	0.180745
3784	0.168991
3768	0.111913
3752	0.203466
3736	0.052309
3720	0.069499
3704	0.045514
3688	0.074434
3672	0.291371
3656	-0.125885
3640	0.088453
3624	0.157904
3608	-0.062012
3592	0.114846
3576	0.191974
3560	0.167608
3544	0.070524
3528	-0.012302
3512	0.119304
3496	0.177192
3480	-0.048089
3464	0.061178
3448	-0.013542
3432	0.080657
3416	0.246357
3400	0.074768
3384	0.137019
3368	0.016617
3352	0.041818
3336	-0.113654
3320	0.084686
3304	0.031113
3288	-0.021815
3272	0.058817
3256	0.034642
3240	0.052547
3224	-0.052213
3208	-0.010180
3192	0.207614
3176	0.052881
3160	0.044345
3144	0.001311
3128	0.131511
3112	0.068831
3096	0.047087
3080	0.102496
3064	0.093770
3048	0.075292
3032	0.223612
3016	-0.003981
3000	-0.031685
2984	0.017619
2968	0.049114
2952	0.067782
2936	0.169825
2920	-0.062918
2904	0.162720
2888	0.036406
2872	0.019550
2856	0.021886
2840	0.045037
2824	-0.037217
2808	-0.006008
2792	0.052404
2776	0.030827
2760	0.051093
2744	0.043654
2728	0.114512
2712	0.040769
2696	-0.084924
2680	0.104117
2664	0.011205
2648	0.170683
2632	0.004625
2616	0.123834
2600	0.009226
2584	0.070929
2568	0.104951
2552	0.037312
2536	0.106143
2520	0.013041
2504	0.063848
2488	0.021171
2472	0.065302
2456	0.094985
2440	-0.015974
2424	0.027108
2408	0.174331
2392	0.076079
2376	0.162959
2360	0.258088
2344	0.401377
2328	0.472998
2312	0.751709
2296	0.886964
2280	1.366162
2264	1.855778
2248	2.454400
2232	3.126549
2216	4.272317
2200	5.403637
2184	6.718301
2168	8.216762
2152	9.799814
2136	11.4383
2120	13.2175
2104	14.7402
2088	16.276
2072	17.7979
2056	19.3122
2040	20.4272
2024	21.5924
2008	22.6953
1992	23.6703
1976	24.6243
1960	25.3129
1944	25.9253
1928	26.601
1912	27.2016
1896	27.6509
1880	27.9841
1864	28.4473
1848	28.9302
1832	29.1088
1816	29.3377
1800	29.7171
1784	29.968
1768	30.0255
1752	30.2439
1736	30.6507
1720	30.6351
1704	30.5695
1688	30.833
1672	31.1088
1656	31.0736
1640	31.0875
1624	31.3695
1608	31.4895
1592	31.2468
1576	31.4513
1560	31.6755
1544	31.5103
1528	31.3574
1512	31.5451
1496	31.5284
1480	31.5672
1464	31.2938
1448	31.4115
1432	31.6955
1416	31.4681
1400	31.3368
1384	31.7005
1368	31.6936
1352	31.3565
1336	31.365
1320	31.7805
1304	31.5918
1288	31.1842
1272	31.2971
1256	31.6118
1240	31.4202
1224	31.0647
1208	31.2767
1192	31.4201
1176	31.186
1160	30.9527
1144	31.1515
1128	31.204
1112	30.8437
1096	30.7876
1080	30.9252
1064	31.1849
1048	30.584
1032	30.5034
1016	30.9852
1000	30.9082
984	 30.3346
968	 30.261
952	 30.6102
936	 30.4746
920	 29.8495
904	 30.0166
888	 30.3218
872	 29.9119
856	 29.5256
840	 29.6677
824	 29.7255
808	 29.4449
792	 28.7754
776	 29.3113
760	 29.2589
744	 28.7869
728	 28.0905
712	 28.4138
696	 28.0662
680	 28.0326
664	 27.5964
648	 27.6963
632	 27.9225
616	 26.6136
600	 26.2133
584	 26.5516
568	 26.9572
552	 25.6128
536	 24.9497
520	 26.3901
504	 26.1527
488	 23.8966
472	 23.8085
456	 24.2463
440	 25.4101
424	 19.3609
408	 16.1371
392	 31.8435
376	 30.5602
370	 15.8589

File: LPE454_t118.asc
PE IR       SPECTRUM    SPECTRUM    ASCII       PEDS        1.60
  -1
LP931E~1.ASC
17/05/20
00:19:49.00
17/05/20
00:20:15.00
tln
$LPE454_t0118$<tbV0>[-5.2,13.0,8.0,0.0,27,1,0]
27.028
64

2002,4.07
MIRTGS : RIGHTBACK : INTERNAL 2
MIR : ON : INTERNAL 2
OPTKBR

0.200000
8
8.000000
FILLER
RATIO
SPECTRUM
UNLOCKED 256

DOUBLE
64
COMBINED
1
0
0

0.002000
RATIO

1
0
TRUE
51149
0
LEFT NOT FITTED RIGHT NOT FITTED 0
NONE
NONE
15600
12
4.427000
51148
TRUE
1 0 8 72 0 0 0 0

15798

#HDR
-1
-1
#GR
µM
%T
2.38419e-05
0.0
2.000000
0.002000
12515
8
34.3058
-2.216630
#DATA
2.000000	 -0.100803
2.084000	 0.338481
2.168000	 0.230173
2.252000	 0.510622
2.336000	 0.425324
2.420000	 -0.083107
2.504000	 0.153546
2.588000	 0.204206
2.672000	 -0.004062
2.756000	 0.160106
2.840000	 -0.082754
2.924000	 0.013677
3.008000	 0.024213
3.092000	 0.026532
3.176000	 0.069768
3.260000	 -0.036327
3.344000	 0.059701
3.428000	 -0.042518
3.512000	 0.052582
3.596000	 0.095059
3.680000	 0.038612
3.764000	 0.135553
3.848000	 -0.033539
3.932000	 -0.022682
4.016000	 -0.062385
4.100000	 0.014903
4.184000	 0.147787
4.268000	 0.374183
4.352000	 0.894452
4.436000	 2.335706
4.520000	 4.884942
4.604000	 8.558937
4.688000	 12.85
4.772000	 17.039
4.856000	 20.6799
4.940000	 23.9509
5.024000	 26.2498
5.108000	 28.1106
5.192000	 29.6764
5.276000	 30.6101
5.359999	 31.5676
5.444000	 32.1441
5.528000	 32.7655
5.612000	 33.0414
5.696000	 33.269
5.780000	 33.6428
5.864000	 33.4718
5.948000	 33.8468
6.032000	 33.8757
6.116000	 34.0053
6.200000	 34.0635
6.284000	 33.9989
6.368000	 34.1199
6.452000	 34.1017
6.536000	 33.9582
6.620000	 34.2574
6.704000	 33.9376
6.788000	 33.994
6.872000	 33.8989
6.956000	 34.1703
7.040000	 33.9006
7.124000	 33.7575
7.208000	 34.0818
7.292000	 33.9248
7.376000	 33.8714
7.460000	 33.8814
7.544000	 34.0058
7.628000	 34.007
7.712000	 33.9022
7.796000	 33.7385
7.880000	 33.8077
7.964000	 33.9518
8.048000	 33.8027
8.132000	 33.5015
8.216000	 33.5562
8.300000	 33.8311
8.384000	 33.8007
8.468000	 33.5242
8.552000	 33.3294
8.635999	 33.3788
8.719999	 33.3668
8.804000	 33.5842
8.888000	 33.3905
8.972000	 33.1756
9.056000	 32.9637
9.140000	 33.0829
9.224000	 33.2482
9.308000	 33.4223
9.391999	 33.3038
9.475999	 32.9567
9.560000	 32.8054
9.644000	 32.8204
9.728000	 32.8808
9.812000	 32.8383
9.896000	 32.8878
9.980000	 32.8603
10.064	32.7735
10.148	32.5953
10.232	32.2041
10.316	32.3599
10.4	32.5409
10.484	32.6879
10.568	32.5595
10.652	32.3713
10.736	32.075
10.82	31.8225
10.904	31.7946
10.988	31.8581
11.072	32.1632
11.156	32.2381
11.24	32.0253
11.324	32.0463
11.408	32.0803
11.492	31.5739
11.576	31.4311
11.66	31.5
11.744	31.4968
11.828	31.3763
11.912	31.4044
11.996	31.3268
12.08	31.422
12.164	31.2409
12.248	31.3521
12.332	31.3662
12.416	30.9294
12.5	30.6217
12.584	30.6849
12.668	30.7025
12.752	30.6557
12.836	30.6703
12.92	30.7384
13.004	30.7863
13.088	30.8442
13.172	30.7323
13.256	30.5669
13.34	30.4721
13.424	30.1606
13.508	29.8975
13.592	29.7505
13.676	29.5324
13.76	29.4316
13.844	29.5086
13.928	29.6935
14.012	29.9595
14.096	30.1287
14.18	30.0394
14.264	29.8915
14.348	29.8583
14.432	29.7479
14.516	29.4424
14.6	29.2175
14.684	29.0448
14.768	28.8807
14.852	28.9109
14.936	28.9685
15.02	28.9913
15.104	29.1729
15.188	29.3896
15.272	29.3653
15.356	29.1934
15.44	29.1093
15.524	29.0675
15.608	28.953
15.692	28.7544
15.776	28.4949
15.86	28.3041
15.944	28.2894
16.028	28.3313
16.112	28.272
16.196	28.0905
16.28	27.8066
16.364	27.4899
16.448	27.3255
16.532	27.419
16.616	27.6543
16.7	27.8176
16.784	27.7555
16.868	27.5008
16.952	27.2939
17.036	27.313
17.12	27.4473
17.204	27.4924
17.288	27.4117
17.372	27.3088
17.456	27.2561
17.54	27.2125
17.624	27.097
17.708	26.9136
17.792	26.7497
17.876	26.6437
17.96	26.5478
18.044	26.4371
18.128	26.3438
18.212	26.2784
18.296	26.2055
18.38	26.1198
18.464	26.07
18.548	26.0798
18.632	26.0965
18.716	26.0481
18.8	25.9371
18.884	25.8522
18.968	25.9042
19.052	26.1278
19.136	26.4108
19.22	26.5551
19.304	26.4486
19.388	26.1662
19.472	25.8689
19.556	25.6485
19.64	25.5029
19.724	25.438
19.808	25.469
19.892	25.5062
19.976	25.3442
20.06	24.861
20.144	24.2063
20.228	23.7249
20.312	23.6744
20.396	24.0195
20.48	24.5112
20.564	24.896
20.648	25.0387
20.732	24.9194
20.816	24.6043
20.9	24.2189
20.984	23.9101
21.068	23.7852
21.152	23.8799
21.236	24.1684
21.32	24.572
21.404	24.9759
21.488	25.2244
21.572	25.1769
21.656	24.81
21.74	24.2543
21.824	23.7228
21.908	23.3542
21.992	23.1162
22.076	22.8618
22.16	22.462
22.244	21.925
22.328	21.415
22.412	21.1753
22.496	21.4012
22.58	22.1366
22.664	23.256
22.748	24.4608
22.832	25.3851
22.916	25.6879
23	25.2151
23.084	24.0527
23.168	22.5422
23.252	21.1321
23.336	20.2487
23.42	20.1315
23.504	20.7987
23.588	22.0136
23.672	23.3847
23.756	24.4789
23.84	24.9703
23.924	24.7365
24.008	23.8673
24.092	22.6137
24.176	21.3041
24.26	20.2052
24.344	19.4567
24.428	19.0153
24.512	18.6735
24.596	18.1554
24.68	17.2482
24.764	15.929
24.848	14.3672
24.932	12.9312
25.016	12.0352
25.1	11.9461
25.184	12.7088
25.268	14.1096
25.352	15.7753
25.436	17.3412
25.52	18.6042
25.604	19.5524
25.688	20.3621
25.772	21.2489
25.856	22.3063
25.94	23.5475
26.024	24.8752
26.108	26.0988
26.192	27.0017
26.276	27.4009
26.36	27.2838
26.444	26.5991
26.528	25.2404
26.612	23.2218
26.696	20.6058
26.78	17.5
26.864	14.1137
26.948	10.7183
27.028	7.745909

File: LPE454_t118_cm-1.asc
PE IR       SPECTRUM    SPECTRUM    ASCII       PEDS        1.60
  -1
LP0B58~1.ASC
17/05/20
00:19:49.00
17/05/20
00:19:49.00
tln
$LPE454_t0118$<tbV0>[-5.2,13.0,8.0,0.0,27,1,0]
370
64

2002,4.07
MIRTGS : RIGHTBACK : INTERNAL 2
MIR : ON : INTERNAL 2
OPTKBR

0.200000
8
8.000000
FILLER
RATIO
SPECTRUM
UNLOCKED 256

DOUBLE
64
COMBINED
1
0
0

1.000000
RATIO

1
0
TRUE
51149
0
LEFT NOT FITTED RIGHT NOT FITTED 0
NONE
NONE
15600
12
4.427000
51148
TRUE
1 0 8 72 0 0 0 0

15798

#HDR
-1
-1
#GR
CM-1
%T
2.38419e-05
0.0
5000
-1.000000
4631
8
34.3055
-2.301430
#DATA
5000	-0.100803
4984	0.022888
4968	0.307488
4952	0.616884
4936	0.491476
4920	0.278472
4904	0.519418
4888	0.383210
4872	0.245594
4856	0.107502
4840	-0.001764
4824	-0.173544
4808	0.036287
4792	0.632739
4776	0.358271
4760	0.821375
4744	0.650262
4728	0.704884
4712	0.768327
4696	0.261950
4680	0.788879
4664	0.369596
4648	-0.539183
4632	-0.144338
4616	0.209093
4600	-0.861024
4584	11.4678
4568	9.059977
4552	-1.918315
4536	-0.523138
4520	-1.476907
4504	-0.417685
4488	-0.344920
4472	0.842070
4456	0.464415
4440	0.512313
4424	0.218486
4408	0.327873
4392	0.081062
4376	0.179028
4360	0.038337
4344	0.016403
4328	0.063443
4312	0.191760
4296	0.083661
4280	0.441050
4264	0.137066
4248	0.183391
4232	0.045800
4216	0.415539
4200	0.591635
4184	-0.389099
4168	-0.053834
4152	0.835442
4136	-0.219154
4120	-0.205159
4104	0.905323
4088	-0.379753
4072	0.863552
4056	0.439190
4040	0.184798
4024	0.249552
4008	0.205278
3992	0.124335
3976	-0.177145
3960	0.101208
3944	0.000810
3928	-0.129127
3912	0.081157
3896	0.085163
3880	0.219893
3864	0.204610
3848	0.151443
3832	0.314426
3816	0.189638
3800	-0.098538
3784	-0.190234
3768	0.064754
3752	0.140595
3736	0.142598
3720	-0.002741
3704	-0.028133
3688	0.127387
3672	0.090289
3656	0.052046
3640	-0.000405
3624	0.108957
3608	-0.006699
3592	-0.112652
3576	-0.022578
3560	0.165081
3544	0.082015
3528	-0.085353
3512	-0.041985
3496	0.028944
3480	0.084519
3464	0.230669
3448	0.118684
3432	-0.097084
3416	0.063824
3400	0.137710
3384	0.109004
3368	0.147080
3352	0.112724
3336	0.053477
3320	-0.078845
3304	0.010251
3288	0.014448
3272	0.145030
3256	0.034022
3240	-0.017833
3224	0.009799
3208	0.051307
3192	-0.008559
3176	-0.054240
3160	-0.047183
3144	0.041890
3128	0.133609
3112	0.014495
3096	-0.044488
3080	0.103211
3064	-0.008130
3048	0.105738
3032	0.178790
3016	0.010561
3000	0.099921
2984	-0.034761
2968	0.104188
2952	0.052142
2936	0.206279
2920	-0.014734
2904	-0.039911
2888	0.048255
2872	0.130510
2856	0.124621
2840	-0.015282
2824	-0.029802
2808	-0.040459
2792	0.018572
2776	0.092458
2760	0.075221
2744	0.063514
2728	0.056672
2712	0.090312
2696	0.009274
2680	0.038695
2664	0.064969
2648	-0.019860
2632	0.022649
2616	0.021028
2600	-0.024747
2584	0.053286
2568	0.091934
2552	-0.040125
2536	0.126981
2520	0.020432
2504	-0.144028
2488	-0.036716
2472	0.072145
2456	0.037622
2440	0.008344
2424	-0.068235
2408	0.005531
2392	0.134587
2376	0.077867
2360	0.174450
2344	0.365281
2328	0.520110
2312	0.825691
2296	0.958180
2280	1.490616
2264	1.889109
2248	2.631855
2232	3.603816
2216	4.553747
2200	5.877566
2184	7.336711
2168	9.027910
2152	10.5179
2136	12.5242
2120	14.3585
2104	16.0911
2088	17.9327
2072	19.5786
2056	21.0094
2040	22.6168
2024	23.9739
2008	25.0865
1992	26.1413
1976	27.181
1960	27.9982
1944	28.8129
1928	29.5564
1912	30.3272
1896	30.5914
1880	31.1394
1864	31.6292
1848	32.0182
1832	32.2052
1816	32.6111
1800	32.9248
1784	33.0621
1768	33.2375
1752	33.3173
1736	33.4945
1720	33.4703
1704	33.4916
1688	33.8253
1672	33.9399
1656	33.8272
1640	33.9188
1624	33.9933
1608	34.0087
1592	33.9999
1576	34.0641
1560	34.156
1544	34.0269
1528	33.9862
1512	34.2232
1496	34.0407
1480	34.0644
1464	33.892
1448	34.0324
1432	34.197
1416	33.8795
1400	33.8102
1384	34.046
1368	33.9044
1352	33.8269
1336	33.8641
1320	34.0899
1304	33.9929
1288	33.7727
1272	33.7668
1256	33.9493
1240	33.7308
1224	33.5373
1208	33.7659
1192	33.7964
1176	33.4214
1160	33.3317
1144	33.4301
1128	33.4726
1112	33.0941
1096	33.0084
1080	33.3505
1064	33.2926
1048	32.7758
1032	32.778
1016	32.8087
1000	32.8542
984	 32.5397
968	 32.4172
952	 32.7219
936	 32.3301
920	 31.7882
904	 32.1226
888	 31.9791
872	 31.7044
856	 31.5258
840	 31.4079
824	 31.3212
808	 31.161
792	 30.7064
776	 30.7176
760	 30.7646
744	 30.0898
728	 29.4396
712	 30.0534
696	 29.8511
680	 28.9916
664	 29.0552
648	 29.113
632	 28.3688
616	 27.9743
600	 27.7741
584	 27.4516
568	 27.1302
552	 26.355
536	 26.091
520	 26.5558
504	 25.4935
488	 24.5761
472	 23.9782
456	 23.2844
440	 24.1752
424	 21.9643
408	 18.6841
392	 18.4747
376	 23.661
370	 7.745909

File: LPE454_t119.asc
PE IR       SPECTRUM    SPECTRUM    ASCII       PEDS        1.60
  -1
LP971E~1.ASC
17/05/20
00:24:25.00
17/05/20
00:24:52.00
tln
$LPE454_t0119$<tbV0>[-7.8,13.0,8.0,0.0,27,1,0]
27.028
64

2002,4.07
MIRTGS : RIGHTBACK : INTERNAL 2
MIR : ON : INTERNAL 2
OPTKBR

0.200000
8
8.000000
FILLER
RATIO
SPECTRUM
UNLOCKED 256

DOUBLE
64
COMBINED
1
0
0

0.002000
RATIO

1
0
TRUE
51149
0
LEFT NOT FITTED RIGHT NOT FITTED 0
NONE
NONE
15600
12
4.427000
51148
TRUE
1 0 8 72 0 0 0 0

15798

#HDR
-1
-1
#GR
µM
%T
2.38419e-05
0.0
2.000000
0.002000
12515
8
40.3521
-3.555420
#DATA
2.000000	 0.004339
2.084000	 -0.058911
2.168000	 -2.731546
2.252000	 1.003712
2.336000	 0.187059
2.420000	 -0.067635
2.504000	 0.332688
2.588000	 0.203393
2.672000	 0.188875
2.756000	 0.002222
2.840000	 0.121674
2.924000	 0.056314
3.008000	 -0.005803
3.092000	 0.016748
3.176000	 -0.007839
3.260000	 0.110088
3.344000	 -0.063046
3.428000	 -0.001566
3.512000	 0.185613
3.596000	 -0.026867
3.680000	 0.130867
3.764000	 0.035640
3.848000	 0.055363
3.932000	 -0.033594
4.016000	 0.017875
4.100000	 -0.024202
4.184000	 0.013848
4.268000	 0.303651
4.352000	 0.797795
4.436000	 2.174556
4.520000	 4.431766
4.604000	 7.455757
4.688000	 11.3477
4.772000	 15.2156
4.856000	 18.7742
4.940000	 21.5499
5.024000	 23.6504
5.108000	 25.4048
5.192000	 26.8195
5.276000	 27.7941
5.359999	 28.5783
5.444000	 29.1861
5.528000	 29.6545
5.612000	 29.9311
5.696000	 30.1497
5.780000	 30.3755
5.864000	 30.4881
5.948000	 30.7827
6.032000	 30.6369
6.116000	 30.8019
6.200000	 30.8972
6.284000	 30.7249
6.368000	 31.0001
6.452000	 31.012
6.536000	 30.8554
6.620000	 31.1088
6.704000	 31.1892
6.788000	 31.0474
6.872000	 30.9899
6.956000	 31.2239
7.040000	 31.1765
7.124000	 30.886
7.208000	 31.2004
7.292000	 31.2751
7.376000	 31.1272
7.460000	 30.8976
7.544000	 31.2835
7.628000	 31.3721
7.712000	 31.0554
7.796000	 31.0517
7.880000	 31.2739
7.964000	 31.3337
8.048000	 31.1482
8.132000	 30.8426
8.216000	 31.0464
8.300000	 31.2009
8.384000	 31.3258
8.468000	 31.0801
8.552000	 30.8981
8.635999	 30.8608
8.719999	 31.1554
8.804000	 31.3431
8.888000	 31.2505
8.972000	 30.8953
9.056000	 30.542
9.140000	 30.5872
9.224000	 30.8864
9.308000	 31.2559
9.391999	 31.0655
9.475999	 30.9511
9.560000	 30.5082
9.644000	 30.4817
9.728000	 30.7155
9.812000	 31.08
9.896000	 31.0077
9.980000	 31.0828
10.064	30.7155
10.148	30.5257
10.232	30.2412
10.316	30.4855
10.4	30.7248
10.484	30.6542
10.568	30.6383
10.652	30.5153
10.736	30.4195
10.82	30.138
10.904	29.7599
10.988	29.8691
11.072	30.2126
11.156	30.3085
11.24	30.4857
11.324	30.2823
11.408	30.1613
11.492	29.9919
11.576	29.775
11.66	29.7454
11.744	29.631
11.828	29.3961
11.912	29.5914
11.996	29.9591
12.08	29.9559
12.164	29.9015
12.248	29.8955
12.332	29.7049
12.416	29.4617
12.5	29.17
12.584	29.035
12.668	29.1292
12.752	29.045
12.836	29.0882
12.92	29.3346
13.004	29.5074
13.088	29.3539
13.172	29.0944
13.256	29.217
13.34	29.3775
13.424	29.1478
13.508	28.8271
13.592	28.5154
13.676	28.1922
13.76	28.2066
13.844	28.4562
13.928	28.6482
14.012	28.7319
14.096	28.7531
14.18	28.827
14.264	28.8704
14.348	28.7426
14.432	28.4142
14.516	28.1329
14.6	28.0031
14.684	27.8186
14.768	27.5908
14.852	27.5378
14.936	27.6239
15.02	27.6677
15.104	27.69
15.188	27.759
15.272	27.8591
15.356	27.9478
15.44	28.012
15.524	28.0725
15.608	28.1105
15.692	28.0706
15.776	27.9171
15.86	27.7468
15.944	27.6616
16.028	27.5484
16.112	27.2919
16.196	27.0087
16.28	26.8546
16.364	26.8029
16.448	26.7092
16.532	26.5745
16.616	26.5875
16.7	26.8172
16.784	27.0474
16.868	27.0443
16.952	26.8497
17.036	26.6984
17.12	26.7236
17.204	26.8361
17.288	26.8838
17.372	26.8131
17.456	26.6649
17.54	26.5112
17.624	26.3963
17.708	26.3003
17.792	26.1733
17.876	26.0246
17.96	25.9386
18.044	25.9788
18.128	26.0995
18.212	26.1721
18.296	26.0931
18.38	25.8777
18.464	25.6455
18.548	25.5136
18.632	25.493
18.716	25.5027
18.8	25.4658
18.884	25.367
18.968	25.2366
19.052	25.1045
19.136	24.9871
19.22	24.8893
19.304	24.8143
19.388	24.7804
19.472	24.8251
19.556	24.9728
19.64	25.2082
19.724	25.4952
19.808	25.8025
19.892	26.0768
19.976	26.1973
20.06	26.0279
20.144	25.5579
20.228	24.9876
20.312	24.5985
20.396	24.5291
20.48	24.6671
20.564	24.7938
20.648	24.7855
20.732	24.6879
20.816	24.6036
20.9	24.5273
20.984	24.3178
21.068	23.8231
21.152	23.0484
21.236	22.1806
21.32	21.4606
21.404	21.0602
21.488	21.0503
21.572	21.4526
21.656	22.2527
21.74	23.3473
21.824	24.4996
21.908	25.3945
21.992	25.7804
22.076	25.5733
22.16	24.8856
22.244	23.9439
22.328	22.9803
22.412	22.2076
22.496	21.8164
22.58	21.9588
22.664	22.6918
22.748	23.8705
22.832	25.1537
22.916	26.1129
23	26.4283
23.084	26.0837
23.168	25.3758
23.252	24.7196
23.336	24.478
23.42	24.736
23.504	25.314
23.588	25.8495
23.672	25.9938
23.756	25.5613
23.84	24.5837
23.924	23.2821
24.008	21.9279
24.092	20.7288
24.176	19.7882
24.26	19.2074
24.344	19.1274
24.428	19.7037
24.512	21.1159
24.596	23.4064
24.68	26.4355
24.764	29.8828
24.848	33.3419
24.932	36.3707
25.016	38.6303
25.1	39.9446
25.184	40.3508
25.268	40.0895
25.352	39.5006
25.436	38.9822
25.52	38.8143
25.604	39.0263
25.688	39.3404
25.772	39.2219
25.856	38.0726
25.94	35.3955
26.024	30.9904
26.108	25.1197
26.192	18.4843
26.276	12.0635
26.36	6.917493
26.444	3.782489
26.528	2.844142
26.612	3.685335
26.696	5.525917
26.78	7.523367
26.864	8.981590
26.948	9.429388
27.028	8.616161