Folder: Masteroppgave/Bakgrunnsmateriale/MATLAB/FTIR/ftir_data/LPE454/Mapping_121 (part 18)

File: LPE454_t112.asc
PE IR       SPECTRUM    SPECTRUM    ASCII       PEDS        1.60
  -1
LP9BFD~1.ASC
17/05/19
23:37:40.00
17/05/19
23:38:06.00
tln
$LPE454_t0112$<tbV0>[10.4,13.0,8.0,0.0,27,1,0]
27.028
64

2002,4.07
MIRTGS : RIGHTBACK : INTERNAL 2
MIR : ON : INTERNAL 2
OPTKBR

0.200000
8
8.000000
FILLER
RATIO
SPECTRUM
UNLOCKED 256

DOUBLE
64
COMBINED
1
0
0

0.002000
RATIO

1
0
TRUE
51149
0
LEFT NOT FITTED RIGHT NOT FITTED 0
NONE
NONE
15600
12
4.427000
51148
TRUE
1 0 8 72 0 0 0 0

15798

#HDR
-1
-1
#GR
µM
%T
2.38419e-05
0.0
2.000000
0.002000
12515
8
38.8807
-4.534870
#DATA
2.000000	 -0.135278
2.084000	 0.391150
2.168000	 0.886032
2.252000	 -0.337795
2.336000	 0.170607
2.420000	 0.321229
2.504000	 -0.016268
2.588000	 0.071536
2.672000	 0.119818
2.756000	 0.060327
2.840000	 -0.088899
2.924000	 -0.007858
3.008000	 0.075642
3.092000	 0.029481
3.176000	 0.094797
3.260000	 0.029096
3.344000	 0.030281
3.428000	 -0.043351
3.512000	 0.048817
3.596000	 0.118018
3.680000	 0.005389
3.764000	 -0.038503
3.848000	 0.002801
3.932000	 0.063581
4.016000	 -0.055202
4.100000	 0.103688
4.184000	 0.250362
4.268000	 0.640875
4.352000	 1.664418
4.436000	 3.748420
4.520000	 7.064136
4.604000	 11.6469
4.688000	 16.5314
4.772000	 21.1529
4.856000	 25.2571
4.940000	 28.321
5.024000	 30.7958
5.108000	 32.659
5.192000	 34.1894
5.276000	 35.3722
5.359999	 36.1081
5.444000	 36.8229
5.528000	 37.2383
5.612000	 37.6628
5.696000	 37.843
5.780000	 38.1708
5.864000	 38.279
5.948000	 38.5642
6.032000	 38.7933
6.116000	 38.7331
6.200000	 38.8807
6.284000	 38.7546
6.368000	 38.7369
6.452000	 38.6813
6.536000	 38.5719
6.620000	 38.441
6.704000	 38.5268
6.788000	 38.4505
6.872000	 38.3214
6.956000	 38.2639
7.040000	 38.285
7.124000	 38.1087
7.208000	 38.0819
7.292000	 38.0293
7.376000	 37.9566
7.460000	 38.0486
7.544000	 37.8631
7.628000	 37.6594
7.712000	 37.6934
7.796000	 37.5211
7.880000	 37.4716
7.964000	 37.386
8.048000	 37.3249
8.132000	 37.2268
8.216000	 37.2652
8.300000	 37.1961
8.384000	 37.1435
8.468000	 37.0508
8.552000	 36.9767
8.635999	 36.9657
8.719999	 36.9049
8.804000	 36.9443
8.888000	 36.9222
8.972000	 36.705
9.056000	 36.7463
9.140000	 36.6225
9.224000	 36.64
9.308000	 36.689
9.391999	 36.5121
9.475999	 36.4726
9.560000	 36.3442
9.644000	 36.1908
9.728000	 36.2851
9.812000	 36.2297
9.896000	 35.8816
9.980000	 35.9254
10.064	35.9185
10.148	35.9594
10.232	35.8606
10.316	35.7131
10.4	35.6991
10.484	35.5296
10.568	35.3891
10.652	35.5489
10.736	35.4609
10.82	35.3815
10.904	35.3524
10.988	35.3347
11.072	35.4088
11.156	35.2488
11.24	35.033
11.324	35.0293
11.408	35.0997
11.492	34.7568
11.576	34.6399
11.66	34.9773
11.744	34.9229
11.828	34.6751
11.912	34.6156
11.996	34.5704
12.08	34.3671
12.164	34.2549
12.248	34.2192
12.332	34.2481
12.416	34.354
12.5	34.1729
12.584	34.0756
12.668	33.929
12.752	33.7145
12.836	33.6834
12.92	33.8595
13.004	33.9156
13.088	33.6999
13.172	33.4258
13.256	33.1811
13.34	33.2697
13.424	33.6006
13.508	33.5931
13.592	33.4201
13.676	33.2986
13.76	33.2885
13.844	33.3529
13.928	33.2776
14.012	33.0926
14.096	32.8817
14.18	32.9607
14.264	33.1681
14.348	33.0223
14.432	32.8151
14.516	32.856
14.6	32.8711
14.684	32.7669
14.768	32.7843
14.852	32.8709
14.936	32.8636
15.02	32.8612
15.104	32.8564
15.188	32.6826
15.272	32.4589
15.356	32.3683
15.44	32.3266
15.524	32.2334
15.608	32.1436
15.692	32.1367
15.776	32.139
15.86	31.9954
15.944	31.7192
16.028	31.5153
16.112	31.5265
16.196	31.6854
16.28	31.8031
16.364	31.7608
16.448	31.6457
16.532	31.6676
16.616	31.8767
16.7	32.06
16.784	32.0182
16.868	31.8035
16.952	31.5801
17.036	31.3818
17.12	31.1586
17.204	30.9374
17.288	30.7697
17.372	30.6476
17.456	30.5673
17.54	30.5408
17.624	30.5273
17.708	30.4871
17.792	30.4837
17.876	30.5969
17.96	30.764
18.044	30.8226
18.128	30.7001
18.212	30.4919
18.296	30.3442
18.38	30.2931
18.464	30.2667
18.548	30.1996
18.632	30.0958
18.716	29.9904
18.8	29.8752
18.884	29.703
18.968	29.4802
19.052	29.3268
19.136	29.3851
19.22	29.6481
19.304	29.9256
19.388	30.0427
19.472	30.0354
19.556	30.0747
19.64	30.2263
19.724	30.3682
19.808	30.3508
19.892	30.1671
19.976	29.921
20.06	29.6757
20.144	29.4103
20.228	29.0987
20.312	28.7731
20.396	28.4823
20.48	28.2563
20.564	28.1024
20.648	28.0299
20.732	28.014
20.816	27.9831
20.9	27.8726
20.984	27.7329
21.068	27.7519
21.152	28.1256
21.236	28.8683
21.32	29.7363
21.404	30.3721
21.488	30.5382
21.572	30.2437
21.656	29.6596
21.74	28.9561
21.824	28.2095
21.908	27.4444
21.992	26.729
22.076	26.1885
22.16	25.9405
22.244	25.996
22.328	26.2475
22.412	26.551
22.496	26.8223
22.58	27.0797
22.664	27.3815
22.748	27.7391
22.832	28.0766
22.916	28.2551
23	28.1871
23.084	27.9022
23.168	27.5359
23.252	27.2475
23.336	27.1626
23.42	27.2968
23.504	27.5826
23.588	27.9064
23.672	28.1651
23.756	28.3023
23.84	28.3208
23.924	28.2613
24.008	28.1621
24.092	28.0137
24.176	27.7255
24.26	27.1739
24.344	26.28
24.428	25.1001
24.512	23.8566
24.596	22.8939
24.68	22.5815
24.764	23.1517
24.848	24.5383
24.932	26.388
25.016	28.1886
25.1	29.4285
25.184	29.8252
25.268	29.419
25.352	28.4263
25.436	27.2138
25.52	26.1008
25.604	25.2058
25.688	24.373
25.772	23.2681
25.856	21.6381
25.94	19.6388
26.024	17.9085
26.108	17.3471
26.192	18.4519
26.276	21.0715
26.36	24.3555
26.444	27.2041
26.528	28.6585
26.612	28.4173
26.696	26.4438
26.78	22.7739
26.864	17.2651
26.948	9.683787
27.028	0.591802

File: LPE454_t112_cm-1.asc
PE IR       SPECTRUM    SPECTRUM    ASCII       PEDS        1.60
  -1
LP0558~1.ASC
17/05/19
23:37:40.00
17/05/19
23:37:40.00
tln
$LPE454_t0112$<tbV0>[10.4,13.0,8.0,0.0,27,1,0]
370
64

2002,4.07
MIRTGS : RIGHTBACK : INTERNAL 2
MIR : ON : INTERNAL 2
OPTKBR

0.200000
8
8.000000
FILLER
RATIO
SPECTRUM
UNLOCKED 256

DOUBLE
64
COMBINED
1
0
0

1.000000
RATIO

1
0
TRUE
51149
0
LEFT NOT FITTED RIGHT NOT FITTED 0
NONE
NONE
15600
12
4.427000
51148
TRUE
1 0 8 72 0 0 0 0

15798

#HDR
-1
-1
#GR
CM-1
%T
2.38419e-05
0.0
5000
-1.000000
4631
8
38.8806
-4.651737
#DATA
5000	-0.135278
4984	0.285840
4968	0.221347
4952	0.031256
4936	0.366330
4920	-0.098562
4904	0.041985
4888	0.205612
4872	0.425243
4856	0.120115
4840	0.062131
4824	0.294923
4808	0.401854
4792	0.461363
4776	0.438237
4760	0.593137
4744	0.232863
4728	0.208830
4712	0.236821
4696	-0.555992
4680	-0.280833
4664	-0.171709
4648	0.406217
4632	0.712299
4616	0.693535
4600	3.236103
4584	16.6978
4568	0.899219
4552	-0.754213
4536	-0.080895
4520	-1.058173
4504	-0.131750
4488	0.236606
4472	0.214600
4456	-0.056934
4440	-0.336194
4424	-0.061202
4408	0.341296
4392	-0.044226
4376	0.537824
4360	0.254726
4344	0.027370
4328	0.276517
4312	0.010442
4296	0.246500
4280	0.170612
4264	-0.050306
4248	0.088572
4232	0.167918
4216	0.196123
4200	-0.045824
4184	0.382924
4168	0.182318
4152	-0.405931
4136	0.318074
4120	0.572991
4104	0.288057
4088	0.236201
4072	0.427341
4056	0.613737
4040	0.256919
4024	-0.052881
4008	0.016665
3992	-0.018095
3976	0.049853
3960	0.092506
3944	-0.010967
3928	0.056672
3912	0.036478
3896	0.057411
3880	0.086712
3864	0.071787
3848	0.188469
3832	-0.002932
3816	0.093746
3800	-0.100350
3784	0.099635
3768	-0.056910
3752	0.125765
3736	0.144100
3720	0.051188
3704	0.036239
3688	-0.024366
3672	0.076270
3656	0.011658
3640	0.119233
3624	-0.018835
3608	0.179886
3592	0.103592
3576	0.027394
3560	0.113534
3544	-0.092172
3528	0.044298
3512	0.115227
3496	0.063562
3480	-0.012946
3464	-0.055027
3448	0.016593
3432	0.071191
3416	0.117468
3400	0.038886
3384	0.134205
3368	0.089406
3352	0.081443
3336	0.033664
3320	0.007748
3304	-0.074052
3288	-0.084590
3272	0.077247
3256	0.053548
3240	0.116801
3224	0.086021
3208	0.020909
3192	-0.034213
3176	0.045084
3160	-0.034451
3144	0.175642
3128	0.090217
3112	-0.030541
3096	-0.032567
3080	0.076842
3064	0.006246
3048	-0.081896
3032	0.014567
3016	0.001287
3000	0.047230
2984	0.080752
2968	-0.045418
2952	0.074553
2936	0.099945
2920	-0.047659
2904	0.017428
2888	0.049495
2872	0.142765
2856	0.071382
2840	0.086808
2824	0.039911
2808	-0.069999
2792	0.039720
2776	0.032448
2760	0.064992
2744	0.009870
2728	0.065875
2712	0.008940
2696	-0.055575
2680	-0.020813
2664	0.135016
2648	-0.008130
2632	0.059103
2616	0.038290
2600	0.018143
2584	-0.041770
2568	0.106406
2552	0.002598
2536	0.039839
2520	0.119233
2504	0.049400
2488	-0.087571
2472	0.011706
2456	0.142049
2440	0.082039
2424	0.147938
2408	0.158166
2392	0.241374
2376	0.360751
2360	0.621485
2344	0.624227
2328	0.989151
2312	1.319909
2296	1.734089
2280	2.376365
2264	3.119301
2248	4.201626
2232	5.370259
2216	6.687784
2200	8.371090
2184	10.1643
2168	12.1533
2152	14.086
2136	16.2109
2120	18.2159
2104	20.3222
2088	22.0581
2072	23.8537
2056	25.61
2040	27.1434
2024	28.3488
2008	29.5921
1992	30.7112
1976	31.6412
1960	32.5435
1944	33.3646
1928	34.0804
1912	34.7177
1896	35.3532
1880	35.7569
1864	36.1342
1848	36.6235
1832	36.8885
1816	37.1696
1800	37.4661
1784	37.6426
1768	37.767
1752	37.9333
1736	38.0849
1720	38.3101
1704	38.287
1688	38.4071
1672	38.5976
1656	38.781
1640	38.7609
1624	38.7117
1608	38.8383
1592	38.7644
1576	38.6571
1560	38.7297
1544	38.6407
1528	38.57
1512	38.4472
1496	38.4931
1480	38.5263
1464	38.3422
1448	38.3457
1432	38.183
1416	38.2981
1400	38.1508
1384	38.0558
1368	38.0022
1352	37.9978
1336	37.9268
1320	37.8251
1304	37.6751
1288	37.5656
1272	37.5272
1256	37.3846
1240	37.2735
1224	37.2785
1208	37.2305
1192	37.1437
1176	37.0232
1160	36.9669
1144	36.9148
1128	36.9246
1112	36.7712
1096	36.6168
1080	36.6772
1064	36.4867
1048	36.4253
1032	36.2211
1016	36.0624
1000	35.9256
984	 35.9556
968	 35.7044
952	 35.4605
936	 35.527
920	 35.3461
904	 35.3987
888	 35.0133
872	 34.8894
856	 35.0151
840	 34.615
824	 34.2737
808	 34.3337
792	 34.0227
776	 33.7801
760	 33.4725
744	 33.6332
728	 33.2745
712	 32.9991
696	 32.9573
680	 32.7541
664	 32.8719
648	 32.3324
632	 32.0824
616	 31.7543
600	 32.0079
584	 31.1495
568	 30.5326
552	 30.7266
536	 30.0641
520	 29.6876
504	 30.2925
488	 28.2302
472	 28.3944
456	 27.2495
440	 27.6481
424	 27.8953
408	 23.8865
392	 26.2186
376	 28.6011
370	 0.591802

File: LPE454_t113.asc
PE IR       SPECTRUM    SPECTRUM    ASCII       PEDS        1.60
  -1
LP9FFD~1.ASC
17/05/19
23:42:17.00
17/05/19
23:42:43.00
tln
$LPE454_t0113$<tbV0>[7.8,13.0,8.0,0.0,27,1,0]
27.028
64

2002,4.07
MIRTGS : RIGHTBACK : INTERNAL 2
MIR : ON : INTERNAL 2
OPTKBR

0.200000
8
8.000000
FILLER
RATIO
SPECTRUM
UNLOCKED 256

DOUBLE
64
COMBINED
1
0
0

0.002000
RATIO

1
0
TRUE
51149
0
LEFT NOT FITTED RIGHT NOT FITTED 0
NONE
NONE
15600
12
4.427000
51148
TRUE
1 0 8 72 0 0 0 0

15798

#HDR
-1
-1
#GR
µM
%T
2.38419e-05
0.0
2.000000
0.002000
12515
8
42.0909
-15.193
#DATA
2.000000	 0.025653
2.084000	 0.146673
2.168000	 -0.219093
2.252000	 0.365201
2.336000	 0.114577
2.420000	 0.861160
2.504000	 0.280963
2.588000	 0.273917
2.672000	 0.023942
2.756000	 0.059651
2.840000	 0.001917
2.924000	 0.082671
3.008000	 0.035253
3.092000	 -0.112356
3.176000	 0.033185
3.260000	 -0.073302
3.344000	 0.090847
3.428000	 0.054167
3.512000	 0.036433
3.596000	 0.144032
3.680000	 0.149809
3.764000	 0.166872
3.848000	 -0.032312
3.932000	 0.115843
4.016000	 -0.065264
4.100000	 0.285574
4.184000	 0.468294
4.268000	 1.303687
4.352000	 2.804494
4.436000	 5.366207
4.520000	 9.342866
4.604000	 14.3974
4.688000	 19.7472
4.772000	 24.6786
4.856000	 28.9454
4.940000	 32.0791
5.024000	 34.3933
5.108000	 36.4286
5.192000	 37.9004
5.276000	 38.9069
5.359999	 39.6472
5.444000	 40.3937
5.528000	 40.8736
5.612000	 41.3386
5.696000	 41.4336
5.780000	 41.7522
5.864000	 41.7381
5.948000	 41.9022
6.032000	 42.0074
6.116000	 42.0481
6.200000	 41.927
6.284000	 42.0398
6.368000	 42.0728
6.452000	 41.6978
6.536000	 41.7128
6.620000	 41.7734
6.704000	 41.7715
6.788000	 41.7373
6.872000	 41.5217
6.956000	 41.5548
7.040000	 41.4767
7.124000	 41.4537
7.208000	 41.2326
7.292000	 41.279
7.376000	 41.3135
7.460000	 41.2125
7.544000	 41.2148
7.628000	 41.0137
7.712000	 41.0634
7.796000	 41.0697
7.880000	 41.0692
7.964000	 40.8604
8.048000	 40.9371
8.132000	 40.8006
8.216000	 40.6681
8.300000	 40.7567
8.384000	 40.7983
8.468000	 40.6994
8.552000	 40.662
8.635999	 40.4693
8.719999	 40.5213
8.804000	 40.4445
8.888000	 40.3832
8.972000	 40.2972
9.056000	 40.3573
9.140000	 40.411
9.224000	 40.2139
9.308000	 39.9175
9.391999	 39.929
9.475999	 40.0377
9.560000	 40.0211
9.644000	 40.0112
9.728000	 39.9031
9.812000	 39.9276
9.896000	 39.7467
9.980000	 39.7436
10.064	39.6499
10.148	39.5859
10.232	39.6928
10.316	39.6194
10.4	39.3853
10.484	39.4341
10.568	39.4673
10.652	39.5816
10.736	39.4715
10.82	39.3635
10.904	39.2076
10.988	39.0984
11.072	39.1125
11.156	38.9988
11.24	39.0611
11.324	39.1331
11.408	39.3063
11.492	39.1955
11.576	39.1867
11.66	39.1081
11.744	39.0175
11.828	38.6529
11.912	38.3955
11.996	38.1933
12.08	38.3604
12.164	38.3137
12.248	38.1539
12.332	38.4231
12.416	38.644
12.5	38.6127
12.584	38.7367
12.668	38.6494
12.752	38.4764
12.836	38.426
12.92	38.3968
13.004	38.367
13.088	38.0615
13.172	37.7193
13.256	37.6051
13.34	37.747
13.424	37.6903
13.508	37.3915
13.592	37.4067
13.676	37.6466
13.76	37.7752
13.844	37.8301
13.928	37.9878
14.012	38.1273
14.096	37.9514
14.18	37.6787
14.264	37.6509
14.348	37.571
14.432	37.3312
14.516	37.0725
14.6	36.9061
14.684	36.9516
14.768	36.9535
14.852	36.8235
14.936	36.7737
15.02	36.8077
15.104	36.7891
15.188	36.7179
15.272	36.7281
15.356	36.8459
15.44	36.9781
15.524	37.0475
15.608	37.0504
15.692	37.0391
15.776	37.0275
15.86	37.0481
15.944	37.0668
16.028	36.9181
16.112	36.6214
16.196	36.3572
16.28	36.1088
16.364	35.791
16.448	35.4699
16.532	35.2268
16.616	35.1075
16.7	35.1472
16.784	35.2686
16.868	35.3473
16.952	35.3821
17.036	35.4266
17.12	35.4875
17.204	35.5787
17.288	35.6747
17.372	35.6807
17.456	35.6088
17.54	35.6412
17.624	35.8739
17.708	36.1432
17.792	36.2542
17.876	36.2603
17.96	36.3555
18.044	36.5395
18.128	36.552
18.212	36.2435
18.296	35.8072
18.38	35.5136
18.464	35.3617
18.548	35.1341
18.632	34.6886
18.716	34.1045
18.8	33.5923
18.884	33.33
18.968	33.39
19.052	33.6728
19.136	33.9371
19.22	33.951
19.304	33.7062
19.388	33.4268
19.472	33.3357
19.556	33.4467
19.64	33.6521
19.724	33.9981
19.808	34.7054
19.892	35.8491
19.976	37.0731
20.06	37.7573
20.144	37.5571
20.228	36.7154
20.312	35.8212
20.396	35.2833
20.48	35.1029
20.564	35.0496
20.648	34.9548
20.732	34.8074
20.816	34.657
20.9	34.5197
20.984	34.4077
21.068	34.3702
21.152	34.4683
21.236	34.6828
21.32	34.8767
21.404	34.8548
21.488	34.4686
21.572	33.6994
21.656	32.6664
21.74	31.6028
21.824	30.7906
21.908	30.4485
21.992	30.6222
22.076	31.1483
22.16	31.7074
22.244	32.0018
22.328	31.9291
22.412	31.6134
22.496	31.3286
22.58	31.3064
22.664	31.6267
22.748	32.1894
22.832	32.8201
22.916	33.3668
23	33.7558
23.084	33.9722
23.168	34.0071
23.252	33.8322
23.336	33.4219
23.42	32.8155
23.504	32.1368
23.588	31.5731
23.672	31.2963
23.756	31.3867
23.84	31.7841
23.924	32.287
24.008	32.6643
24.092	32.7655
24.176	32.5664
24.26	32.1686
24.344	31.7548
24.428	31.4913
24.512	31.4812
24.596	31.6998
24.68	31.9805
24.764	32.0719
24.848	31.7003
24.932	30.7493
25.016	29.3764
25.1	27.9094
25.184	26.8235
25.268	26.4885
25.352	26.9648
25.436	27.9367
25.52	28.8719
25.604	29.313
25.688	28.9151
25.772	27.6197
25.856	25.6954
25.94	23.6861
26.024	22.2668
26.108	21.968
26.192	22.821
26.276	24.3009
26.36	25.3836
26.444	25.2191
26.528	23.4085
26.612	20.2357
26.696	16.0084
26.78	10.6882
26.864	3.769172
26.948	-5.195046
27.028	-15.193

File: LPE454_t113_cm-1.asc
PE IR       SPECTRUM    SPECTRUM    ASCII       PEDS        1.60
  -1
LP0658~1.ASC
17/05/19
23:42:17.00
17/05/19
23:42:17.00
tln
$LPE454_t0113$<tbV0>[7.8,13.0,8.0,0.0,27,1,0]
370
64

2002,4.07
MIRTGS : RIGHTBACK : INTERNAL 2
MIR : ON : INTERNAL 2
OPTKBR

0.200000
8
8.000000
FILLER
RATIO
SPECTRUM
UNLOCKED 256

DOUBLE
64
COMBINED
1
0
0

1.000000
RATIO

1
0
TRUE
51149
0
LEFT NOT FITTED RIGHT NOT FITTED 0
NONE
NONE
15600
12
4.427000
51148
TRUE
1 0 8 72 0 0 0 0

15798

#HDR
-1
-1
#GR
CM-1
%T
2.38419e-05
0.0
5000
-1.000000
4631
8
42.0906
-15.193
#DATA
5000	0.025653
4984	0.315761
4968	0.298142
4952	-0.191736
4936	-0.189256
4920	0.689888
4904	0.675368
4888	0.729274
4872	0.694155
4856	0.041246
4840	-0.518202
4824	0.362777
4808	0.168132
4792	0.171923
4776	0.180172
4760	0.484323
4744	0.356292
4728	0.556421
4712	0.275874
4696	0.851058
4680	0.693297
4664	0.541710
4648	0.617790
4632	0.298428
4616	0.467324
4600	-1.561903
4584	31.2934
4568	-1.107025
4552	-0.612401
4536	-0.162291
4520	-0.022745
4504	0.405883
4488	0.522041
4472	0.665783
4456	0.641155
4440	0.358128
4424	0.269794
4408	0.462603
4392	0.051641
4376	-0.056147
4360	-0.118327
4344	0.175976
4328	0.130987
4312	0.496554
4296	-0.125098
4280	0.093078
4264	0.424146
4248	-0.163793
4232	0.434255
4216	0.088143
4200	-0.019907
4184	0.100374
4168	-0.249838
4152	0.614976
4136	0.883984
4120	0.663614
4104	0.370311
4088	-0.141239
4072	-0.570178
4056	0.244283
4040	0.159263
4024	-0.054335
4008	0.199294
3992	0.268912
3976	0.110340
3960	0.009822
3944	0.129532
3928	-0.103449
3912	0.185298
3896	0.020694
3880	0.049591
3864	0.274085
3848	0.192117
3832	-0.039172
3816	0.088071
3800	0.081253
3784	-0.022292
3768	0.173306
3752	0.065851
3736	0.011754
3720	0.129675
3704	-0.016856
3688	-0.140786
3672	0.125098
3656	0.122594
3640	0.119304
3624	0.022864
3608	0.235676
3592	0.106215
3576	-0.148868
3560	0.050401
3544	0.191831
3528	0.062060
3512	0.066399
3496	0.033640
3480	0.125765
3464	0.176262
3448	0.005578
3432	-0.101947
3416	0.091648
3400	0.009083
3384	0.013208
3368	-0.005984
3352	0.060582
3336	0.079107
3320	0.131893
3304	0.095033
3288	0.082540
3272	0.084447
3256	0.142526
3240	-0.165247
3224	-0.031900
3208	0.069212
3192	-0.003290
3176	0.113987
3160	0.156569
3144	0.121855
3128	-0.063300
3112	-0.009512
3096	0.020217
3080	0.115537
3064	-0.084209
3048	0.178027
3032	-0.137639
3016	0.011730
3000	0.027394
2984	0.121402
2968	0.086951
2952	-0.058317
2936	0.144290
2920	0.110721
2904	0.045061
2888	0.049352
2872	0.050950
2856	0.008130
2840	-0.026416
2824	0.042057
2808	0.076842
2792	0.064516
2776	0.093269
2760	0.094866
2744	-0.032258
2728	0.036239
2712	0.176525
2696	0.118803
2680	0.013279
2664	0.149679
2648	0.180053
2632	0.075340
2616	-0.069594
2600	-0.039219
2584	0.032997
2568	0.108909
2552	0.011205
2536	0.018453
2520	0.088381
2504	0.075912
2488	-0.043368
2472	0.169491
2456	0.112295
2440	0.286579
2424	0.235247
2408	0.596332
2392	0.431418
2376	0.747847
2360	1.035094
2344	1.286101
2328	1.657962
2312	2.097797
2296	2.881217
2280	3.691864
2264	4.561948
2248	5.893731
2232	7.338428
2216	8.928942
2200	10.9051
2184	12.9487
2168	14.994
2152	17.157
2136	19.3536
2120	21.7057
2104	23.7274
2088	25.5747
2072	27.5988
2056	29.2595
2040	30.6882
2024	32.103
2008	33.2753
1992	34.2906
1976	35.4015
1960	36.3088
1944	37.1333
1928	37.8131
1912	38.3296
1896	38.886
1880	39.3221
1864	39.7135
1848	40.2291
1832	40.4026
1816	40.7904
1800	41.0135
1784	41.3044
1768	41.3368
1752	41.4366
1736	41.6117
1720	41.7269
1704	41.7561
1688	41.7418
1672	41.8639
1656	42.0117
1640	42.0904
1624	41.9479
1608	41.8702
1592	42.0317
1576	42.0523
1560	41.9148
1544	41.6603
1528	41.7167
1512	41.7571
1496	41.7371
1480	41.8119
1464	41.5876
1448	41.6866
1432	41.5282
1416	41.4366
1400	41.3971
1384	41.2284
1368	41.2873
1352	41.2612
1336	41.1198
1320	41.143
1304	41.0173
1288	40.9798
1272	41.1557
1256	40.8664
1240	40.9097
1224	40.731
1208	40.7352
1192	40.8102
1176	40.7154
1160	40.5243
1144	40.5816
1128	40.4011
1112	40.3025
1096	40.3857
1080	40.0524
1064	39.9219
1048	40.0337
1032	39.9432
1016	39.8169
1000	39.7187
984	 39.6449
968	 39.6101
952	 39.4281
936	 39.5614
920	 39.2372
904	 39.1071
888	 39.0648
872	 39.2104
856	 39.1129
840	 38.419
824	 38.3783
808	 38.5898
792	 38.7406
776	 38.3938
760	 37.7662
744	 37.6316
728	 37.7543
712	 38.1003
696	 37.5217
680	 36.9694
664	 36.8108
648	 36.9675
632	 37.0327
616	 36.2515
600	 35.114
584	 35.4904
568	 35.8112
552	 36.5703
536	 34.5226
520	 33.9314
504	 35.1155
488	 35.0931
472	 34.5477
456	 30.4463
440	 32.0375
424	 31.5893
408	 31.4783
392	 28.7828
376	 20.9328
370	 -15.193

File: LPE454_t114.asc
PE IR       SPECTRUM    SPECTRUM    ASCII       PEDS        1.60
  -1
LP930E~1.ASC
17/05/19
23:46:54.00
17/05/19
23:47:20.00
tln
$LPE454_t0114$<tbV0>[5.2,13.0,8.0,0.0,27,1,0]
27.028
64

2002,4.07
MIRTGS : RIGHTBACK : INTERNAL 2
MIR : ON : INTERNAL 2
OPTKBR

0.200000
8
8.000000
FILLER
RATIO
SPECTRUM
UNLOCKED 256

DOUBLE
64
COMBINED
1
0
0

0.002000
RATIO

1
0
TRUE
51149
0
LEFT NOT FITTED RIGHT NOT FITTED 0
NONE
NONE
15600
12
4.427000
51148
TRUE
1 0 8 72 0 0 0 0

15798

#HDR
-1
-1
#GR
µM
%T
2.38419e-05
0.0
2.000000
0.002000
12515
8
40.483
-4.775338
#DATA
2.000000	 -0.021624
2.084000	 0.339498
2.168000	 -1.227805
2.252000	 0.467917
2.336000	 0.048587
2.420000	 0.501036
2.504000	 -0.061537
2.588000	 0.085928
2.672000	 0.038366
2.756000	 0.104601
2.840000	 0.014064
2.924000	 0.117297
3.008000	 0.105754
3.092000	 0.105509
3.176000	 0.075407
3.260000	 0.077841
3.344000	 -0.053333
3.428000	 0.082398
3.512000	 0.038643
3.596000	 0.071469
3.680000	 0.082487
3.764000	 0.090138
3.848000	 -0.055771
3.932000	 0.048446
4.016000	 0.043040
4.100000	 0.100609
4.184000	 0.354329
4.268000	 0.826284
4.352000	 2.118643
4.436000	 4.255918
4.520000	 8.006367
4.604000	 12.8167
4.688000	 18.0638
4.772000	 23.218
4.856000	 27.3751
4.940000	 30.9162
5.024000	 33.5734
5.108000	 35.4547
5.192000	 37.0638
5.276000	 38.0057
5.359999	 38.7584
5.444000	 39.3971
5.528000	 39.8051
5.612000	 39.9511
5.696000	 40.1097
5.780000	 40.2765
5.864000	 40.2235
5.948000	 40.4099
6.032000	 40.4719
6.116000	 40.2741
6.200000	 40.4049
6.284000	 40.394
6.368000	 40.2012
6.452000	 40.2621
6.536000	 40.2323
6.620000	 40.1122
6.704000	 40.1218
6.788000	 40.0562
6.872000	 39.855
6.956000	 40.0502
7.040000	 39.7923
7.124000	 39.6722
7.208000	 39.6964
7.292000	 39.6695
7.376000	 39.4922
7.460000	 39.5185
7.544000	 39.69
7.628000	 39.5483
7.712000	 39.4952
7.796000	 39.2369
7.880000	 39.2826
7.964000	 39.2611
8.048000	 39.3377
8.132000	 39.1716
8.216000	 38.9908
8.300000	 38.8954
8.384000	 38.8464
8.468000	 38.9493
8.552000	 39.139
8.635999	 38.9272
8.719999	 38.7979
8.804000	 38.5233
8.888000	 38.5338
8.972000	 38.7599
9.056000	 39.0362
9.140000	 38.8582
9.224000	 38.4679
9.308000	 38.2337
9.391999	 38.3396
9.475999	 38.4066
9.560000	 38.4024
9.644000	 38.4062
9.728000	 38.4596
9.812000	 38.2478
9.896000	 37.8681
9.980000	 37.8826
10.064	37.8901
10.148	38.0153
10.232	38.1211
10.316	37.9959
10.4	38.0517
10.484	38.1086
10.568	37.9479
10.652	37.6086
10.736	37.393
10.82	37.463
10.904	37.466
10.988	37.5007
11.072	37.564
11.156	37.5908
11.24	37.5816
11.324	37.3873
11.408	37.4415
11.492	37.2801
11.576	36.8459
11.66	36.7441
11.744	36.6819
11.828	36.7604
11.912	36.6357
11.996	36.5874
12.08	36.8272
12.164	36.8286
12.248	36.9361
12.332	37.0254
12.416	36.8888
12.5	36.6074
12.584	36.3189
12.668	36.1727
12.752	36.1148
12.836	36.1149
12.92	36.1186
13.004	36.0509
13.088	36.015
13.172	36.149
13.256	36.387
13.34	36.5652
13.424	36.3519
13.508	35.9422
13.592	35.7785
13.676	35.7082
13.76	35.5765
13.844	35.4915
13.928	35.3779
14.012	35.1392
14.096	34.8658
14.18	34.7175
14.264	34.6831
14.348	34.6096
14.432	34.7052
14.516	35.0385
14.6	35.223
14.684	35.2672
14.768	35.4156
14.852	35.5413
14.936	35.4658
15.02	35.2598
15.104	35.0389
15.188	34.8224
15.272	34.6808
15.356	34.6743
15.44	34.7234
15.524	34.7046
15.608	34.5178
15.692	34.14
15.776	33.737
15.86	33.5683
15.944	33.7057
16.028	33.957
16.112	34.127
16.196	34.1815
16.28	34.1454
16.364	34.0566
16.448	33.9889
16.532	33.9743
16.616	33.9934
16.7	34.0633
16.784	34.1925
16.868	34.2752
16.952	34.1838
17.036	33.942
17.12	33.6957
17.204	33.5345
17.288	33.4356
17.372	33.369
17.456	33.3605
17.54	33.4217
17.624	33.4853
17.708	33.4573
17.792	33.3146
17.876	33.1297
17.96	32.9905
18.044	32.933
18.128	32.9505
18.212	33.0071
18.296	33.0414
18.38	33.0035
18.464	32.9182
18.548	32.8481
18.632	32.7733
18.716	32.594
18.8	32.2636
18.884	31.8747
18.968	31.601
19.052	31.596
19.136	31.8951
19.22	32.365
19.304	32.7427
19.388	32.8381
19.472	32.7107
19.556	32.5904
19.64	32.6119
19.724	32.6657
19.808	32.5216
19.892	32.0518
19.976	31.3417
20.06	30.6344
20.144	30.1892
20.228	30.1443
20.312	30.4358
20.396	30.819
20.48	31.0311
20.564	30.9678
20.648	30.7397
20.732	30.5338
20.816	30.4372
20.9	30.3867
20.984	30.28
21.068	30.1225
21.152	30.0503
21.236	30.2082
21.32	30.5984
21.404	31.0685
21.488	31.4287
21.572	31.5859
21.656	31.5519
21.74	31.3688
21.824	31.057
21.908	30.6247
21.992	30.1163
22.076	29.6317
22.16	29.2838
22.244	29.1282
22.328	29.1485
22.412	29.3015
22.496	29.5466
22.58	29.864
22.664	30.223
22.748	30.5638
22.832	30.8314
22.916	30.9827
23	30.9957
23.084	30.8273
23.168	30.4393
23.252	29.8402
23.336	29.0928
23.42	28.3589
23.504	27.8424
23.588	27.6899
23.672	27.9086
23.756	28.3264
23.84	28.6364
23.924	28.5149
24.008	27.7793
24.092	26.4773
24.176	24.8636
24.26	23.3104
24.344	22.1361
24.428	21.3939
24.512	20.8384
24.596	20.0282
24.68	18.4992
24.764	15.9983
24.848	12.6442
24.932	8.943703
25.016	5.617463
25.1	3.343227
25.184	2.576720
25.268	3.352921
25.352	5.328721
25.436	7.976344
25.52	10.7484
25.604	13.1787
25.688	14.8211
25.772	15.3271
25.856	14.5178
25.94	12.3678
26.024	9.066050
26.108	5.030106
26.192	0.970063
26.276	-2.332929
26.36	-4.321518
26.444	-4.726284
26.528	-3.569296
26.612	-1.072460
26.696	2.423887
26.78	6.517118
26.864	10.8128
26.948	14.8328
27.028	17.7553