Folder: Masteroppgave/Bakgrunnsmateriale/MATLAB/FTIR/ftir_data/LPE454/Mapping_121 (part 16)

File: LPE454_t107.asc
PE IR       SPECTRUM    SPECTRUM    ASCII       PEDS        1.60
  -1
LP9F08~1.ASC
17/05/19
23:08:24.00
17/05/19
23:08:50.00
tln
$LPE454_t0107$<tbV0>[-5.2,10.4,8.0,0.0,27,1,0]
27.028
64

2002,4.07
MIRTGS : RIGHTBACK : INTERNAL 2
MIR : ON : INTERNAL 2
OPTKBR

0.200000
8
8.000000
FILLER
RATIO
SPECTRUM
UNLOCKED 256

DOUBLE
64
COMBINED
1
0
0

0.002000
RATIO

1
0
TRUE
51149
0
LEFT NOT FITTED RIGHT NOT FITTED 0
NONE
NONE
15600
12
4.427000
51148
TRUE
1 0 8 72 0 0 0 0

15798

#HDR
-1
-1
#GR
µM
%T
2.38419e-05
0.0
2.000000
0.002000
12515
8
38.6064
-23.4814
#DATA
2.000000	 -0.081825
2.084000	 -0.059263
2.168000	 0.178275
2.252000	 -0.015178
2.336000	 -0.038494
2.420000	 -0.144969
2.504000	 0.084112
2.588000	 -0.095156
2.672000	 -0.003687
2.756000	 0.054525
2.840000	 0.125315
2.924000	 -0.006218
3.008000	 0.075309
3.092000	 0.121382
3.176000	 0.108017
3.260000	 -0.074023
3.344000	 -0.087924
3.428000	 0.079681
3.512000	 0.007313
3.596000	 0.015759
3.680000	 0.088156
3.764000	 0.060842
3.848000	 0.042946
3.932000	 -0.025228
4.016000	 0.108731
4.100000	 0.140562
4.184000	 0.139053
4.268000	 0.673137
4.352000	 1.672810
4.436000	 3.677694
4.520000	 7.072062
4.604000	 11.6626
4.688000	 16.7842
4.772000	 21.7495
4.856000	 25.9085
4.940000	 29.0465
5.024000	 31.361
5.108000	 33.3472
5.192000	 34.4674
5.276000	 35.6261
5.359999	 36.0037
5.444000	 36.7315
5.528000	 36.9494
5.612000	 37.2471
5.696000	 37.6031
5.780000	 37.2408
5.864000	 37.9318
5.948000	 37.7603
6.032000	 37.8019
6.116000	 38.2859
6.200000	 37.7842
6.284000	 37.9055
6.368000	 38.2609
6.452000	 38.0201
6.536000	 37.7439
6.620000	 38.3448
6.704000	 38.1669
6.788000	 37.8042
6.872000	 38.0967
6.956000	 38.5123
7.040000	 38.0861
7.124000	 37.6666
7.208000	 38.0995
7.292000	 38.5835
7.376000	 38.2089
7.460000	 37.775
7.544000	 37.8408
7.628000	 38.4693
7.712000	 38.4695
7.796000	 37.964
7.880000	 37.595
7.964000	 37.8578
8.048000	 38.4347
8.132000	 38.3869
8.216000	 37.8217
8.300000	 37.4176
8.384000	 37.5965
8.468000	 38.0648
8.552000	 38.3183
8.635999	 38.2167
8.719999	 37.5722
8.804000	 37.1949
8.888000	 37.4439
8.972000	 37.8361
9.056000	 38.1396
9.140000	 37.9421
9.224000	 37.2885
9.308000	 37.0025
9.391999	 36.9768
9.475999	 37.3251
9.560000	 37.6712
9.644000	 37.8432
9.728000	 37.8929
9.812000	 37.2378
9.896000	 36.8119
9.980000	 36.6302
10.064	36.638
10.148	37.0666
10.232	37.5311
10.316	37.6097
10.4	37.4254
10.484	36.9945
10.568	36.5244
10.652	36.1623
10.736	36.1508
10.82	36.2193
10.904	36.5809
10.988	36.8781
11.072	37.0062
11.156	36.938
11.24	36.6662
11.324	36.1613
11.408	35.7509
11.492	35.3324
11.576	35.3707
11.66	35.6567
11.744	35.882
11.828	35.9849
11.912	36.149
11.996	36.1644
12.08	36.2671
12.164	35.9037
12.248	35.4497
12.332	35.0422
12.416	34.7686
12.5	34.5474
12.584	34.6325
12.668	34.813
12.752	35.0175
12.836	35.3111
12.92	35.5149
13.004	35.4862
13.088	35.4332
13.172	35.4444
13.256	35.1921
13.34	34.7205
13.424	34.1949
13.508	34.0195
13.592	34.0473
13.676	33.9193
13.76	33.9438
13.844	34.0642
13.928	34.1267
14.012	34.2684
14.096	34.5056
14.18	34.7134
14.264	34.7145
14.348	34.5742
14.432	34.4044
14.516	34.2006
14.6	34.0116
14.684	33.7279
14.768	33.2946
14.852	32.8803
14.936	32.7749
15.02	33.0004
15.104	33.118
15.188	33.0076
15.272	32.9489
15.356	32.9663
15.44	33.0375
15.524	33.2783
15.608	33.5485
15.692	33.6016
15.776	33.5148
15.86	33.4379
15.944	33.345
16.028	33.2738
16.112	33.2654
16.196	33.1123
16.28	32.6797
16.364	32.1936
16.448	31.8337
16.532	31.5134
16.616	31.203
16.7	31.0349
16.784	31.084
16.868	31.2892
16.952	31.5346
17.036	31.7854
17.12	32.0872
17.204	32.3344
17.288	32.2679
17.372	31.8483
17.456	31.4122
17.54	31.2929
17.624	31.4405
17.708	31.5985
17.792	31.6769
17.876	31.7417
17.96	31.7645
18.044	31.6202
18.128	31.289
18.212	30.9264
18.296	30.6705
18.38	30.4522
18.464	30.0679
18.548	29.4462
18.632	28.7907
18.716	28.4318
18.8	28.5484
18.884	29.0277
18.968	29.5583
19.052	29.8327
19.136	29.7159
19.22	29.2849
19.304	28.7516
19.388	28.3273
19.472	28.1328
19.556	28.2125
19.64	28.5495
19.724	29.0456
19.808	29.5378
19.892	29.9079
19.976	30.1605
20.06	30.3611
20.144	30.5116
20.228	30.5354
20.312	30.4119
20.396	30.264
20.48	30.2424
20.564	30.3491
20.648	30.4149
20.732	30.2623
20.816	29.8618
20.9	29.3451
20.984	28.8954
21.068	28.6183
21.152	28.5045
21.236	28.466
21.32	28.4104
21.404	28.2845
21.488	28.0927
21.572	27.8795
21.656	27.6958
21.74	27.5737
21.824	27.5198
21.908	27.5216
21.992	27.5633
22.076	27.6292
22.16	27.6898
22.244	27.7151
22.328	27.6825
22.412	27.5831
22.496	27.4379
22.58	27.2779
22.664	27.129
22.748	27.0113
22.832	26.9436
22.916	26.9566
23	27.0571
23.084	27.2242
23.168	27.3697
23.252	27.35
23.336	27.0143
23.42	26.2904
23.504	25.226
23.588	24.0313
23.672	23.0067
23.756	22.434
23.84	22.4819
23.924	23.1154
24.008	24.1193
24.092	25.1945
24.176	26.0807
24.26	26.7125
24.344	27.2217
24.428	27.8396
24.512	28.8247
24.596	30.2463
24.68	31.9423
24.764	33.583
24.848	34.7921
24.932	35.2402
25.016	34.7895
25.1	33.5323
25.184	31.6726
25.268	29.4192
25.352	26.9197
25.436	24.3526
25.52	21.9494
25.604	19.9527
25.688	18.5214
25.772	17.5969
25.856	16.8809
25.94	16.0477
26.024	14.8151
26.108	13.007
26.192	10.391
26.276	6.684081
26.36	1.485145
26.444	-5.078777
26.528	-12.1973
26.612	-18.4607
26.696	-22.4629
26.78	-23.4121
26.864	-21.5023
26.948	-17.7777
27.028	-13.8284

File: LPE454_t107_cm-1.asc
PE IR       SPECTRUM    SPECTRUM    ASCII       PEDS        1.60
  -1
LP0ADC~1.ASC
17/05/19
23:08:24.00
17/05/19
23:08:24.00
tln
$LPE454_t0107$<tbV0>[-5.2,10.4,8.0,0.0,27,1,0]
370
64

2002,4.07
MIRTGS : RIGHTBACK : INTERNAL 2
MIR : ON : INTERNAL 2
OPTKBR

0.200000
8
8.000000
FILLER
RATIO
SPECTRUM
UNLOCKED 256

DOUBLE
64
COMBINED
1
0
0

1.000000
RATIO

1
0
TRUE
51149
0
LEFT NOT FITTED RIGHT NOT FITTED 0
NONE
NONE
15600
12
4.427000
51148
TRUE
1 0 8 72 0 0 0 0

15798

#HDR
-1
-1
#GR
CM-1
%T
2.38419e-05
0.0
5000
-1.000000
4631
8
38.6063
-23.3485
#DATA
5000	-0.081825
4984	0.060439
4968	0.219368
4952	0.544953
4936	0.224709
4920	-0.442051
4904	0.185132
4888	0.123643
4872	-0.232934
4856	0.207519
4840	0.250768
4824	0.084757
4808	0.231575
4792	0.097799
4776	-0.062298
4760	0.218415
4744	0.433993
4728	0.949788
4712	0.545668
4696	0.177669
4680	0.580334
4664	-0.176239
4648	0.015926
4632	-0.489854
4616	0.106382
4600	-0.585293
4584	10.6273
4568	-0.677561
4552	-0.056385
4536	-0.247073
4520	-0.134396
4504	0.538682
4488	0.103306
4472	0.631475
4456	0.537419
4440	-0.018239
4424	0.429892
4408	0.566768
4392	0.443243
4376	0.653338
4360	-0.043654
4344	0.069928
4328	-0.155997
4312	-0.244617
4296	0.212311
4280	-0.050854
4264	-0.046038
4248	-0.097966
4232	0.299978
4216	0.095629
4200	0.217103
4184	0.106382
4168	0.231695
4152	0.146842
4136	0.101685
4120	0.017571
4104	-0.154733
4088	0.730252
4072	0.543570
4056	0.855159
4040	0.242400
4024	-0.029087
4008	0.052237
3992	0.091385
3976	0.425362
3960	-0.087833
3944	0.106120
3928	0.019502
3912	0.022006
3896	0.117301
3880	0.027608
3864	-0.095391
3848	0.027894
3832	-0.023961
3816	0.216603
3800	0.033211
3784	0.143432
3768	0.104475
3752	-0.021505
3736	0.037574
3720	-0.076246
3704	0.056219
3688	-0.116801
3672	-0.110363
3656	0.141239
3640	0.034308
3624	-0.014138
3608	0.144195
3592	0.186753
3576	-0.066566
3560	0.103735
3544	0.052189
3528	0.116848
3512	0.018835
3496	0.074696
3480	0.180912
3464	-0.055956
3448	0.054168
3432	-0.059890
3416	0.023317
3400	0.046920
3384	0.196266
3368	0.086092
3352	-0.005507
3336	0.047492
3320	0.046682
3304	0.073266
3288	-0.031566
3272	0.180983
3256	-0.028753
3240	0.088429
3224	-0.037145
3208	0.025486
3192	-0.015950
3176	-0.027370
3160	0.130915
3144	0.068163
3128	0.003480
3112	0.100350
3096	-0.081968
3080	-0.027704
3064	0.044345
3048	-0.050783
3032	0.040769
3016	-0.017237
3000	0.020098
2984	-0.044751
2968	0.154876
2952	-0.004768
2936	0.127911
2920	0.084924
2904	0.125622
2888	0.049114
2872	-0.008678
2856	0.051403
2840	-0.003767
2824	0.028300
2808	0.028705
2792	0.041222
2776	-0.020718
2760	0.042700
2744	0.060534
2728	0.021743
2712	0.039482
2696	0.179982
2680	0.024914
2664	0.043416
2648	0.088858
2632	-0.001859
2616	0.005459
2600	0.032663
2584	-0.030899
2568	0.052905
2552	-0.063180
2536	0.027394
2520	0.060772
2504	-0.082039
2488	0.110387
2472	0.020360
2456	0.024366
2440	0.123810
2424	0.208449
2408	0.033378
2392	0.127744
2376	0.380945
2360	0.544857
2344	0.674247
2328	0.877428
2312	1.304650
2296	1.752305
2280	2.410030
2264	3.111982
2248	4.138088
2232	5.347251
2216	6.744623
2200	8.341836
2184	10.1447
2168	12.202
2152	14.3993
2136	16.3985
2120	18.4732
2104	20.6111
2088	22.6552
2072	24.2413
2056	26.222
2040	27.7449
2024	29.0726
2008	30.3334
1992	31.2881
1976	32.1419
1960	33.2474
1944	34.0548
1928	34.4127
1912	34.924
1896	35.6001
1880	35.9792
1864	36.0513
1848	36.3504
1832	36.8625
1816	37.0422
1800	36.8908
1784	37.2105
1768	37.5951
1752	37.6009
1736	37.2299
1720	37.545
1704	37.9484
1688	37.8758
1672	37.6434
1656	37.8245
1640	38.2432
1624	38.0606
1608	37.7148
1592	37.8996
1576	38.1987
1560	38.3
1544	37.8817
1528	37.7783
1512	38.2983
1496	38.2699
1480	37.8422
1464	37.806
1448	38.2825
1432	38.5133
1416	37.9773
1400	37.6662
1384	38.2862
1368	38.6041
1352	38.1296
1336	37.6302
1320	38.1159
1304	38.56
1288	38.1988
1272	37.609
1256	37.8365
1240	38.4586
1224	38.1372
1208	37.5037
1192	37.6361
1176	38.3103
1160	38.2871
1144	37.4339
1128	37.3682
1112	37.9487
1096	38.0129
1080	37.0618
1064	36.9928
1048	37.5821
1032	37.9263
1016	37.082
1000	36.5907
984	 37.1799
968	 37.6035
952	 36.8864
936	 36.1459
920	 36.4097
904	 36.9951
888	 36.5538
872	 35.4511
856	 35.7182
840	 36.1415
824	 36.0678
808	 34.897
792	 34.7242
776	 35.4599
760	 35.455
744	 34.1208
728	 33.9129
712	 34.3542
696	 34.5375
680	 33.6257
664	 33.0945
648	 33.0245
632	 33.4703
616	 32.9451
600	 31.0763
584	 32.0993
568	 31.3994
552	 31.3431
536	 28.6407
520	 29.2175
504	 29.7016
488	 30.2517
472	 28.4858
456	 27.529
440	 27.0368
424	 24.0735
408	 28.7932
392	 22.2114
376	 -17.4029
370	 -13.8284

File: LPE454_t108.asc
PE IR       SPECTRUM    SPECTRUM    ASCII       PEDS        1.60
  -1
LP9318~1.ASC
17/05/19
23:13:01.00
17/05/19
23:13:27.00
tln
$LPE454_t0108$<tbV0>[-7.8,10.4,8.0,0.0,27,1,0]
27.028
64

2002,4.07
MIRTGS : RIGHTBACK : INTERNAL 2
MIR : ON : INTERNAL 2
OPTKBR

0.200000
8
8.000000
FILLER
RATIO
SPECTRUM
UNLOCKED 256

DOUBLE
64
COMBINED
1
0
0

0.002000
RATIO

1
0
TRUE
51149
0
LEFT NOT FITTED RIGHT NOT FITTED 0
NONE
NONE
15600
12
4.427000
51148
TRUE
1 0 8 72 0 0 0 0

15798

#HDR
-1
-1
#GR
µM
%T
2.38419e-05
0.0
2.000000
0.002000
12515
8
40.1328
-2.043300
#DATA
2.000000	 0.046753
2.084000	 0.135157
2.168000	 -0.254646
2.252000	 0.033113
2.336000	 -0.181874
2.420000	 -0.087542
2.504000	 -0.352358
2.588000	 0.137406
2.672000	 0.141629
2.756000	 0.126651
2.840000	 0.031472
2.924000	 -0.010408
3.008000	 0.066911
3.092000	 -0.073293
3.176000	 0.022220
3.260000	 0.029405
3.344000	 0.070581
3.428000	 -0.011702
3.512000	 0.024546
3.596000	 0.005960
3.680000	 -0.069133
3.764000	 0.024895
3.848000	 -0.012975
3.932000	 -0.050588
4.016000	 0.016834
4.100000	 0.138123
4.184000	 0.258846
4.268000	 0.494367
4.352000	 1.386860
4.436000	 3.060958
4.520000	 5.870800
4.604000	 9.628558
4.688000	 14.0955
4.772000	 18.096
4.856000	 21.5793
4.940000	 24.3725
5.024000	 26.1511
5.108000	 27.9238
5.192000	 28.608
5.276000	 29.728
5.359999	 29.8535
5.444000	 30.5166
5.528000	 30.4886
5.612000	 30.8249
5.696000	 31.0051
5.780000	 30.8508
5.864000	 31.3066
5.948000	 30.9426
6.032000	 30.8529
6.116000	 31.3881
6.200000	 30.7653
6.284000	 30.8923
6.368000	 31.2608
6.452000	 30.9061
6.536000	 30.7159
6.620000	 31.2638
6.704000	 30.9342
6.788000	 30.4086
6.872000	 30.7379
6.956000	 31.1128
7.040000	 30.8812
7.124000	 30.2441
7.208000	 30.6959
7.292000	 30.9507
7.376000	 30.5435
7.460000	 30.0813
7.544000	 30.444
7.628000	 30.8298
7.712000	 30.6785
7.796000	 30.1987
7.880000	 29.9386
7.964000	 30.2714
8.048000	 30.605
8.132000	 30.452
8.216000	 29.8994
8.300000	 29.546
8.384000	 29.7857
8.468000	 30.2053
8.552000	 30.4363
8.635999	 29.9562
8.719999	 29.545
8.804000	 29.0765
8.888000	 29.3614
8.972000	 29.7393
9.056000	 29.9246
9.140000	 29.73
9.224000	 29.3146
9.308000	 28.819
9.391999	 28.8896
9.475999	 29.3439
9.560000	 29.5772
9.644000	 29.5761
9.728000	 29.369
9.812000	 28.8763
9.896000	 28.5183
9.980000	 28.3509
10.064	28.631
10.148	29.0168
10.232	29.1633
10.316	29.094
10.4	29.015
10.484	28.6236
10.568	28.2126
10.652	27.8653
10.736	27.727
10.82	27.889
10.904	28.1872
10.988	28.4058
11.072	28.4369
11.156	28.3742
11.24	27.9417
11.324	27.4467
11.408	27.1199
11.492	27.1928
11.576	27.2046
11.66	27.1482
11.744	27.3244
11.828	27.3764
11.912	27.5174
11.996	27.6836
12.08	27.6338
12.164	27.2349
12.248	26.7657
12.332	26.441
12.416	26.1435
12.5	25.9036
12.584	25.9251
12.668	26.1297
12.752	26.3507
12.836	26.5822
12.92	26.8404
13.004	26.8562
13.088	26.611
13.172	26.3538
13.256	26.0279
13.34	25.6238
13.424	25.2734
13.508	24.9743
13.592	24.9173
13.676	25.1104
13.76	25.1047
13.844	25.0977
13.928	25.3941
14.012	25.6115
14.096	25.5046
14.18	25.5003
14.264	25.8192
14.348	25.8677
14.432	25.5147
14.516	25.1026
14.6	24.8065
14.684	24.6519
14.768	24.4861
14.852	24.2142
14.936	23.9249
15.02	23.7589
15.104	23.7318
15.188	23.8021
15.272	23.9392
15.356	24.1319
15.44	24.3687
15.524	24.5032
15.608	24.4677
15.692	24.3471
15.776	24.1714
15.86	24.0511
15.944	24.0387
16.028	23.9347
16.112	23.6095
16.196	23.1633
16.28	22.7985
16.364	22.6263
16.448	22.4475
16.532	22.1278
16.616	21.9863
16.7	22.2364
16.784	22.5463
16.868	22.6193
16.952	22.5845
17.036	22.6538
17.12	22.8291
17.204	22.9746
17.288	23.0052
17.372	22.964
17.456	22.9081
17.54	22.8054
17.624	22.6585
17.708	22.5564
17.792	22.462
17.876	22.1836
17.96	21.7078
18.044	21.3479
18.128	21.3766
18.212	21.6805
18.296	21.9259
18.38	21.9538
18.464	21.869
18.548	21.8125
18.632	21.8162
18.716	21.9332
18.8	22.321
18.884	22.9973
18.968	23.5902
19.052	23.5761
19.136	22.8316
19.22	21.7916
19.304	20.9759
19.388	20.5182
19.472	20.2543
19.556	20.0911
19.64	20.0961
19.724	20.2452
19.808	20.2852
19.892	19.9703
19.976	19.3626
20.06	18.8023
20.144	18.5995
20.228	18.7857
20.312	19.1357
20.396	19.3903
20.48	19.4468
20.564	19.3761
20.648	19.2764
20.732	19.1791
20.816	19.0848
20.9	19.0331
20.984	19.0902
21.068	19.2669
21.152	19.4601
21.236	19.5093
21.32	19.2992
21.404	18.8524
21.488	18.3148
21.572	17.8607
21.656	17.6088
21.74	17.5704
21.824	17.6574
21.908	17.7314
21.992	17.6804
22.076	17.4801
22.16	17.2062
22.244	17.0074
22.328	17.0329
22.412	17.3743
22.496	18.0136
22.58	18.819
22.664	19.5738
22.748	20.0338
22.832	20.0402
22.916	19.5563
23	18.7066
23.084	17.7145
23.168	16.8015
23.252	16.0774
23.336	15.5592
23.42	15.1907
23.504	14.9312
23.588	14.7988
23.672	14.8448
23.756	15.094
23.84	15.491
23.924	15.8815
24.008	16.0616
24.092	15.8414
24.176	15.1086
24.26	13.8822
24.344	12.3208
24.428	10.6952
24.512	9.388766
24.596	8.778639
24.68	9.139434
24.764	10.5242
24.848	12.779
24.932	15.5017
25.016	18.1491
25.1	20.211
25.184	21.388
25.268	21.7035
25.352	21.414
25.436	20.8435
25.52	20.2092
25.604	19.5584
25.688	18.9251
25.772	18.3472
25.856	17.8423
25.94	17.3837
26.024	16.8623
26.108	16.1219
26.192	15.1535
26.276	14.2415
26.36	13.9725
26.444	15.0458
26.528	17.9219
26.612	22.6413
26.696	28.5608
26.78	34.3885
26.864	38.6293
26.948	40.1328
27.028	38.7368

File: LPE454_t108_cm-1.asc
PE IR       SPECTRUM    SPECTRUM    ASCII       PEDS        1.60
  -1
LP0BDC~1.ASC
17/05/19
23:13:01.00
17/05/19
23:13:01.00
tln
$LPE454_t0108$<tbV0>[-7.8,10.4,8.0,0.0,27,1,0]
370
64

2002,4.07
MIRTGS : RIGHTBACK : INTERNAL 2
MIR : ON : INTERNAL 2
OPTKBR

0.200000
8
8.000000
FILLER
RATIO
SPECTRUM
UNLOCKED 256

DOUBLE
64
COMBINED
1
0
0

1.000000
RATIO

1
0
TRUE
51149
0
LEFT NOT FITTED RIGHT NOT FITTED 0
NONE
NONE
15600
12
4.427000
51148
TRUE
1 0 8 72 0 0 0 0

15798

#HDR
-1
-1
#GR
CM-1
%T
2.38419e-05
0.0
5000
-1.000000
4631
8
40.1222
-2.060389
#DATA
5000	0.046753
4984	-0.130867
4968	0.289773
4952	0.312018
4936	-0.027370
4920	0.026607
4904	0.334453
4888	-0.026988
4872	-0.257658
4856	0.017046
4840	0.190782
4824	0.067782
4808	0.143480
4792	0.327730
4776	0.297927
4760	0.200533
4744	0.210499
4728	0.213980
4712	-0.085926
4696	0.457477
4680	0.678348
4664	0.015735
4648	0.347304
4632	-0.020670
4616	-0.563406
4600	-1.556587
4584	1.913475
4568	2.345871
4552	0.803112
4536	1.189255
4520	0.766730
4504	0.158524
4488	0.407075
4472	-0.027704
4456	0.051021
4440	0.035095
4424	-0.167989
4408	0.140428
4392	0.211524
4376	-0.029969
4360	0.304222
4344	0.062823
4328	0.243520
4312	0.139212
4296	0.177383
4280	-0.231623
4264	-0.002694
4248	0.268816
4232	0.022935
4216	0.055599
4200	0.358939
4184	0.113272
4168	-0.094699
4152	-0.003743
4136	-0.136017
4120	0.533342
4104	0.520229
4088	1.921105
4072	-0.364732
4056	0.164723
4040	0.108981
4024	-0.135493
4008	0.208187
3992	-0.302624
3976	0.088810
3960	-0.026059
3944	0.004649
3928	-0.032019
3912	0.008368
3896	0.091648
3880	0.124907
3864	0.137233
3848	0.059080
3832	0.086593
3816	-0.064635
3800	-0.039863
3784	0.137996
3768	0.080728
3752	-0.043606
3736	0.116133
3720	-0.003266
3704	-0.046229
3688	0.024747
3672	0.055122
3656	-0.027036
3640	0.174999
3624	0.000143
3608	-0.134873
3592	0.102519
3576	-0.003504
3560	0.027084
3544	0.247836
3528	-0.169992
3512	0.027441
3496	-0.092291
3480	0.132083
3464	0.018405
3448	0.092196
3432	0.058436
3416	-0.022506
3400	0.095176
3384	0.129032
3368	-0.011205
3352	-0.003862
3336	-0.031733
3320	-0.048065
3304	0.013232
3288	-0.032186
3272	-0.050830
3256	0.073909
3240	-0.031852
3224	-0.016450
3208	-0.155138
3192	0.042033
3176	0.105667
3160	0.096392
3144	-0.009202
3128	0.158786
3112	0.041460
3096	0.041222
3080	0.125980
3064	0.060081
3048	0.009369
3032	-0.086092
3016	0.030517
3000	0.136780
2984	0.005054
2968	0.131058
2952	-0.020194
2936	-0.011420
2920	-0.053977
2904	0.118875
2888	-0.078511
2872	0.043344
2856	0.005960
2840	0.059795
2824	0.116729
2808	-0.072908
2792	0.007462
2776	-0.033545
2760	0.015020
2744	0.028395
2728	-0.051927
2712	-0.076723
2696	0.064969
2680	0.068545
2664	0.129437
2648	0.023484
2632	0.079727
2616	-0.045204
2600	0.026774
2584	-0.084710
2568	0.049257
2552	-0.059151
2536	0.002956
2520	0.030970
2504	-0.067663
2488	-0.023722
2472	0.029134
2456	0.151705
2440	0.133275
2424	-0.116682
2408	0.047302
2392	0.236177
2376	0.241780
2360	0.395774
2344	0.485038
2328	0.751209
2312	1.137089
2296	1.404571
2280	2.065467
2264	2.528786
2248	3.485679
2232	4.344320
2216	5.575752
2200	6.882905
2184	8.386993
2168	10.0426
2152	11.7778
2136	13.742
2120	15.329
2104	17.1484
2088	18.8944
2072	20.3699
2056	21.8267
2040	23.1044
2024	24.4047
2008	25.4142
1992	26.07
1976	27.0274
1960	27.7979
1944	28.3683
1928	28.5897
1912	29.1187
1896	29.7125
1880	29.8559
1864	29.879
1848	30.2011
1832	30.6245
1816	30.6727
1800	30.3625
1784	30.7703
1768	31.1333
1752	30.9267
1736	30.7289
1720	30.9333
1704	31.3202
1688	31.1329
1672	30.7951
1656	30.8957
1640	31.2965
1624	31.1754
1608	30.7278
1592	30.8729
1576	31.27
1560	31.1849
1544	30.6888
1528	30.769
1512	31.219
1496	31.1189
1480	30.6239
1464	30.6104
1448	30.93
1432	30.99
1416	30.6468
1400	30.3352
1384	30.8417
1368	30.82
1352	30.4586
1336	30.0489
1320	30.6823
1304	30.8416
1288	30.382
1272	29.9354
1256	30.2633
1240	30.6407
1224	30.1419
1208	29.5952
1192	29.8152
1176	30.3176
1160	30.0326
1144	29.4019
1128	29.24
1112	29.806
1096	29.801
1080	29.0905
1064	28.9186
1048	29.5575
1032	29.5068
1016	28.7611
1000	28.3755
984	 29.0691
968	 29.0689
952	 28.5053
936	 27.7621
920	 28.0614
904	 28.4398
888	 27.8019
872	 27.1472
856	 27.1793
840	 27.4981
824	 27.4
808	 26.2895
792	 26.0178
776	 26.747
760	 26.3976
744	 25.2082
728	 25.1317
712	 25.598
696	 25.8076
680	 24.617
664	 23.732
648	 24.348
632	 24.0877
616	 22.9766
600	 22.1033
584	 22.8362
568	 22.6896
552	 21.3488
536	 21.8328
520	 21.6672
504	 20.2082
488	 19.442
472	 19.5068
456	 17.7333
440	 19.9585
424	 14.8007
408	 9.414911
392	 20.2844
376	 21.6081
370	 38.7368

File: LPE454_t109.asc
PE IR       SPECTRUM    SPECTRUM    ASCII       PEDS        1.60
  -1
LP9718~1.ASC
17/05/19
23:17:37.00
17/05/19
23:18:03.00
tln
$LPE454_t0109$<tbV0>[-10.4,10.4,8.0,0.0,27,1,0]
27.028
64

2002,4.07
MIRTGS : RIGHTBACK : INTERNAL 2
MIR : ON : INTERNAL 2
OPTKBR

0.200000
8
8.000000
FILLER
RATIO
SPECTRUM
UNLOCKED 256

DOUBLE
64
COMBINED
1
0
0

0.002000
RATIO

1
0
TRUE
51149
0
LEFT NOT FITTED RIGHT NOT FITTED 0
NONE
NONE
15600
12
4.427000
51148
TRUE
1 0 8 72 0 0 0 0

15798

#HDR
-1
-1
#GR
µM
%T
2.38419e-05
0.0
2.000000
0.002000
12515
8
56.8183
-20.7091
#DATA
2.000000	 0.645756
2.084000	 -0.150512
2.168000	 -0.096456
2.252000	 0.573963
2.336000	 0.271993
2.420000	 0.352511
2.504000	 0.246557
2.588000	 0.036747
2.672000	 -0.085312
2.756000	 0.120510
2.840000	 -0.066051
2.924000	 -0.011821
3.008000	 -0.043956
3.092000	 0.020043
3.176000	 0.163154
3.260000	 -0.000376
3.344000	 -0.067528
3.428000	 0.113305
3.512000	 -0.056101
3.596000	 0.010267
3.680000	 0.022090
3.764000	 0.039111
3.848000	 0.056110
3.932000	 -0.088495
4.016000	 0.017479
4.100000	 0.031386
4.184000	 0.070754
4.268000	 0.435754
4.352000	 0.995982
4.436000	 2.444518
4.520000	 4.689260
4.604000	 8.190989
4.688000	 12.1315
4.772000	 15.8877
4.856000	 19.6244
4.940000	 22.0691
5.024000	 24.1559
5.108000	 25.6839
5.192000	 26.6372
5.276000	 27.6403
5.359999	 27.865
5.444000	 28.4417
5.528000	 28.6062
5.612000	 28.8603
5.696000	 29.1055
5.780000	 28.8652
5.864000	 29.2044
5.948000	 28.9955
6.032000	 29.0406
6.116000	 29.2015
6.200000	 28.778
6.284000	 28.9868
6.368000	 29.3339
6.452000	 28.8042
6.536000	 29.0686
6.620000	 29.2983
6.704000	 28.788
6.788000	 28.7827
6.872000	 29.3447
6.956000	 28.8712
7.040000	 28.4778
7.124000	 28.7905
7.208000	 29.0999
7.292000	 28.6193
7.376000	 28.0987
7.460000	 28.5969
7.544000	 29.0141
7.628000	 28.6195
7.712000	 28.2614
7.796000	 28.0871
7.880000	 28.6483
7.964000	 28.7859
8.048000	 28.3668
8.132000	 28.0059
8.216000	 28.1278
8.300000	 28.3947
8.384000	 28.4663
8.468000	 28.1548
8.552000	 27.6733
8.635999	 27.5928
8.719999	 27.8581
8.804000	 28.1581
8.888000	 28.1302
8.972000	 27.8378
9.056000	 27.3622
9.140000	 27.3406
9.224000	 27.472
9.308000	 27.9908
9.391999	 27.9442
9.475999	 27.7253
9.560000	 27.4366
9.644000	 26.9012
9.728000	 26.8249
9.812000	 26.897
9.896000	 27.61
9.980000	 27.6543
10.064	27.3263
10.148	27.272
10.232	26.5505
10.316	26.1287
10.4	26.2451
10.484	26.5271
10.568	26.8413
10.652	26.8716
10.736	26.7734
10.82	26.6687
10.904	26.3193
10.988	25.9188
11.072	25.8736
11.156	25.5716
11.24	25.7553
11.324	26.0424
11.408	26.0583
11.492	26.1587
11.576	26.0941
11.66	25.8692
11.744	25.3511
11.828	25.0224
11.912	24.8915
11.996	24.7892
12.08	24.9576
12.164	25.2207
12.248	25.5236
12.332	25.418
12.416	25.2616
12.5	25.3338
12.584	25.1025
12.668	24.8418
12.752	24.4503
12.836	23.9936
12.92	23.9517
13.004	24.0263
13.088	23.958
13.172	24.2198
13.256	24.4099
13.34	24.1951
13.424	24.1736
13.508	24.4874
13.592	24.3761
13.676	23.9221
13.76	23.6524
13.844	23.5048
13.928	23.2415
14.012	22.9977
14.096	22.8825
14.18	22.8781
14.264	23.0272
14.348	23.1597
14.432	23.188
14.516	23.1913
14.6	23.251
14.684	23.2884
14.768	23.1979
14.852	23.0342
14.936	22.8367
15.02	22.6172
15.104	22.4485
15.188	22.3132
15.272	22.1581
15.356	22.0112
15.44	21.8992
15.524	21.8166
15.608	21.7228
15.692	21.5924
15.776	21.469
15.86	21.4311
15.944	21.5122
16.028	21.6637
16.112	21.8115
16.196	21.9058
16.28	21.9299
16.364	21.8918
16.448	21.7744
16.532	21.5944
16.616	21.4502
16.7	21.3989
16.784	21.3843
16.868	21.3158
16.952	21.1054
17.036	20.7459
17.12	20.3705
17.204	20.1068
17.288	19.9626
17.372	19.916
17.456	19.9541
17.54	20.041
17.624	20.1877
17.708	20.4522
17.792	20.7622
17.876	20.922
17.96	20.9234
18.044	20.9834
18.128	21.1773
18.212	21.2801
18.296	21.1126
18.38	20.8317
18.464	20.792
18.548	21.1492
18.632	21.6265
18.716	21.6722
18.8	20.8901
18.884	19.3918
18.968	17.7534
19.052	16.6245
19.136	16.3101
19.22	16.6449
19.304	17.1535
19.388	17.3844
19.472	17.1802
19.556	16.7224
19.64	16.3565
19.724	16.3265
19.808	16.6318
19.892	17.0813
19.976	17.4782
20.06	17.7685
20.144	18.0262
20.228	18.3268
20.312	18.6349
20.396	18.8207
20.48	18.7951
20.564	18.5939
20.648	18.352
20.732	18.1956
20.816	18.1777
20.9	18.2708
20.984	18.386
21.068	18.4181
21.152	18.2971
21.236	18.0278
21.32	17.6731
21.404	17.2918
21.488	16.8878
21.572	16.4149
21.656	15.8557
21.74	15.2698
21.824	14.7778
21.908	14.4789
21.992	14.3793
22.076	14.4098
22.16	14.4896
22.244	14.5994
22.328	14.7952
22.412	15.1449
22.496	15.6609
22.58	16.2553
22.664	16.7594
22.748	16.9875
22.832	16.8333
22.916	16.2877
23	15.4593
23.084	14.5254
23.168	13.6757
23.252	13.0419
23.336	12.7016
23.42	12.6341
23.504	12.7927
23.588	13.139
23.672	13.6655
23.756	14.4011
23.84	15.3462
23.924	16.3952
24.008	17.3267
24.092	17.8305
24.176	17.5772
24.26	16.4121
24.344	14.423
24.428	11.9468
24.512	9.580608
24.596	7.905439
24.68	7.379638
24.764	8.231766
24.848	10.3816
24.932	13.4791
25.016	17.0396
25.1	20.6479
25.184	23.9804
25.268	26.8295
25.352	29.0493
25.436	30.4973
25.52	31.0402
25.604	30.5752
25.688	28.9326
25.772	25.9598
25.856	21.6482
25.94	16.3238
26.024	10.634
26.108	5.375231
26.192	0.843299
26.276	-3.177572
26.36	-7.355180
26.444	-11.9809
26.528	-16.5975
26.612	-19.9177
26.696	-20.5332
26.78	-17.6621
26.864	-11.8215
26.948	-4.599138
27.028	1.837730