Folder: Masteroppgave/Bakgrunnsmateriale/MATLAB/FTIR/ftir_data/subCa/Mapping_25 (part 12)

File: BZ12041010-4_t25.asc
PE IR       SPECTRUM    SPECTRUM    ASCII       PEDS        1.60
  -1
BZ3EB2~1.ASC
17/04/10
11:03:01.00
17/04/10
11:03:27.00
tln
$BZ12041010-4_t0025$<tbV0>[-5.2,-2.0,9.0,0.0,22,1,0]
27.028
64

2002,4.07
MIRTGS : RIGHTBACK : INTERNAL 2
MIR : ON : INTERNAL 2
OPTKBR

0.200000
8
8.000000
FILLER
RATIO
SPECTRUM
UNLOCKED 256

DOUBLE
64
COMBINED
1
0
0

0.002000
RATIO

1
0
TRUE
51149
0
LEFT NOT FITTED RIGHT NOT FITTED 0
NONE
NONE
15600
12
4.427000
51148
TRUE
1 0 8 72 0 0 0 0

15798

#HDR
-1
-1
#GR
µM
%T
2.38419e-05
0.0
2.000000
0.002000
12515
8
83.4708
28.6169
#DATA
2.000000	 60.4513
2.084000	 60.6366
2.168000	 60.2534
2.252000	 62.0566
2.336000	 60.3041
2.420000	 60.2334
2.504000	 60.3845
2.588000	 60.4602
2.672000	 60.6956
2.756000	 60.5225
2.840000	 60.4749
2.924000	 60.5121
3.008000	 60.6873
3.092000	 60.5941
3.176000	 60.6737
3.260000	 60.5288
3.344000	 60.5014
3.428000	 60.468
3.512000	 60.5106
3.596000	 60.6487
3.680000	 60.5173
3.764000	 60.4739
3.848000	 60.6467
3.932000	 60.7668
4.016000	 60.5621
4.100000	 60.6093
4.184000	 60.702
4.268000	 60.7134
4.352000	 60.8658
4.436000	 60.692
4.520000	 60.6632
4.604000	 60.6329
4.688000	 60.7702
4.772000	 60.688
4.856000	 60.6633
4.940000	 60.669
5.024000	 60.5693
5.108000	 60.6318
5.192000	 60.6471
5.276000	 60.6682
5.359999	 60.6475
5.444000	 60.5915
5.528000	 60.6707
5.612000	 60.6288
5.696000	 60.4502
5.780000	 60.429
5.864000	 60.4104
5.948000	 60.5407
6.032000	 60.6324
6.116000	 60.6272
6.200000	 60.6368
6.284000	 60.6897
6.368000	 60.7247
6.452000	 60.5821
6.536000	 60.6029
6.620000	 60.5827
6.704000	 60.7778
6.788000	 60.633
6.872000	 60.6081
6.956000	 60.6213
7.040000	 60.6039
7.124000	 60.5771
7.208000	 60.526
7.292000	 60.5912
7.376000	 60.8666
7.460000	 60.6074
7.544000	 60.5089
7.628000	 60.5703
7.712000	 60.5318
7.796000	 60.4934
7.880000	 60.6637
7.964000	 60.3229
8.048000	 60.3661
8.132000	 60.4237
8.216000	 60.4437
8.300000	 60.4158
8.384000	 60.5877
8.468000	 60.4866
8.552000	 60.4177
8.635999	 60.4357
8.719999	 60.5375
8.804000	 60.5126
8.888000	 60.7022
8.972000	 60.6348
9.056000	 60.7136
9.140000	 60.7271
9.224000	 60.5727
9.308000	 60.5369
9.391999	 60.5036
9.475999	 60.6129
9.560000	 60.3723
9.644000	 60.5205
9.728000	 60.6423
9.812000	 60.5808
9.896000	 60.6553
9.980000	 60.8537
10.064	60.8721
10.148	60.6522
10.232	60.7895
10.316	60.6941
10.4	60.8129
10.484	60.8215
10.568	60.7873
10.652	60.7466
10.736	60.6518
10.82	60.8284
10.904	60.8209
10.988	60.677
11.072	60.5442
11.156	60.5874
11.24	60.6271
11.324	60.5236
11.408	60.7628
11.492	60.8187
11.576	60.7856
11.66	60.6107
11.744	60.5288
11.828	60.5742
11.912	60.573
11.996	60.5579
12.08	60.6006
12.164	60.9252
12.248	61.0046
12.332	60.9454
12.416	60.9022
12.5	60.6488
12.584	60.6045
12.668	60.7393
12.752	60.7645
12.836	60.8156
12.92	60.8677
13.004	60.6419
13.088	60.6203
13.172	60.8207
13.256	60.7099
13.34	60.5834
13.424	60.6815
13.508	60.8581
13.592	60.8653
13.676	60.7865
13.76	60.8569
13.844	60.8998
13.928	60.8639
14.012	60.8734
14.096	60.813
14.18	60.5863
14.264	60.5408
14.348	60.7698
14.432	60.8433
14.516	60.8287
14.6	60.9308
14.684	60.9001
14.768	60.6314
14.852	60.5011
14.936	60.6351
15.02	60.7514
15.104	60.8006
15.188	60.887
15.272	60.9866
15.356	61.061
15.44	61.132
15.524	61.1409
15.608	60.9582
15.692	60.6874
15.776	60.5625
15.86	60.6051
15.944	60.6834
16.028	60.7614
16.112	60.8389
16.196	60.822
16.28	60.7273
16.364	60.7622
16.448	60.9612
16.532	61.116
16.616	61.1062
16.7	60.9832
16.784	60.841
16.868	60.7624
16.952	60.7348
17.036	60.7128
17.12	60.7833
17.204	61.0294
17.288	61.3159
17.372	61.4455
17.456	61.4017
17.54	61.2901
17.624	61.1826
17.708	61.0796
17.792	60.9367
17.876	60.7249
17.96	60.5143
18.044	60.4382
18.128	60.5473
18.212	60.7445
18.296	60.8819
18.38	60.8848
18.464	60.796
18.548	60.7354
18.632	60.7949
18.716	60.9584
18.8	61.1244
18.884	61.2013
18.968	61.1941
19.052	61.2052
19.136	61.2937
19.22	61.3959
19.304	61.4044
19.388	61.2781
19.472	61.0413
19.556	60.7468
19.64	60.4641
19.724	60.2441
19.808	60.0677
19.892	59.842
19.976	59.5221
20.06	59.2362
20.144	59.1981
20.228	59.4884
20.312	59.9627
20.396	60.3746
20.48	60.5636
20.564	60.5523
20.648	60.495
20.732	60.5561
20.816	60.7999
20.9	61.1241
20.984	61.3145
21.068	61.2046
21.152	60.8314
21.236	60.4276
21.32	60.2261
21.404	60.262
21.488	60.3666
21.572	60.3911
21.656	60.39
21.74	60.5623
21.824	61.0007
21.908	61.4712
21.992	61.5312
22.076	60.8715
22.16	59.5917
22.244	58.1937
22.328	57.2111
22.412	56.9
22.496	57.105
22.58	57.5026
22.664	57.8833
22.748	58.2845
22.832	58.8636
22.916	59.6809
23	60.5477
23.084	61.1582
23.168	61.2278
23.252	60.6945
23.336	59.7651
23.42	58.7501
23.504	57.9386
23.588	57.4525
23.672	57.222
23.756	57.0502
23.84	56.7577
23.924	56.2382
24.008	55.4852
24.092	54.5753
24.176	53.607
24.26	52.7457
24.344	52.1998
24.428	52.1593
24.512	52.8301
24.596	54.3341
24.68	56.7342
24.764	60.0206
24.848	64.069
24.932	68.587
25.016	73.1008
25.1	77.0137
25.184	79.6626
25.268	80.5527
25.352	79.5061
25.436	76.7354
25.52	72.8065
25.604	68.4001
25.688	64.0511
25.772	59.976
25.856	56.1036
25.94	52.2143
26.024	48.1324
26.108	43.9012
26.192	39.7972
26.276	36.2276
26.36	33.5495
26.444	31.9171
26.528	31.2215
26.612	31.1613
26.696	31.3432
26.78	31.4054
26.864	31.0646
26.948	30.1368
27.028	28.6169

File: BZ12041010-4_t25_cm-1.asc
PE IR       SPECTRUM    SPECTRUM    ASCII       PEDS        1.60
  -1
BZAC7E~1.ASC
17/04/10
11:03:01.00
17/04/10
11:03:01.00
tln
$BZ12041010-4_t0025$<tbV0>[-5.2,-2.0,9.0,0.0,22,1,0]
370
64

2002,4.07
MIRTGS : RIGHTBACK : INTERNAL 2
MIR : ON : INTERNAL 2
OPTKBR

0.200000
8
8.000000
FILLER
RATIO
SPECTRUM
UNLOCKED 256

DOUBLE
64
COMBINED
1
0
0

1.000000
RATIO

1
0
TRUE
51149
0
LEFT NOT FITTED RIGHT NOT FITTED 0
NONE
NONE
15600
12
4.427000
51148
TRUE
1 0 8 72 0 0 0 0

15798

#HDR
-1
-1
#GR
CM-1
%T
2.38419e-05
0.0
5000
-1.000000
4631
8
85.1379
28.6169
#DATA
5000	60.4513
4984	60.2384
4968	59.7153
4952	59.353
4936	60.525
4920	60.233
4904	59.591
4888	59.6936
4872	58.4151
4856	62.2183
4840	61.224
4824	60.9671
4808	60.9915
4792	61.3869
4776	60.1855
4760	60.1629
4744	60.4939
4728	60.8771
4712	60.7184
4696	60.5709
4680	60.7401
4664	60.0055
4648	60.2095
4632	59.6654
4616	60.2046
4600	60.0391
4584	60.4614
4568	59.8911
4552	59.9948
4536	58.9207
4520	59.6546
4504	60.2482
4488	59.8666
4472	59.1674
4456	65.9427
4440	61.6972
4424	59.8188
4408	59.8332
4392	60.3284
4376	60.2986
4360	60.3503
4344	60.1439
4328	60.2026
4312	60.1315
4296	60.4607
4280	60.3228
4264	60.4573
4248	60.4357
4232	60.4239
4216	60.3565
4200	60.2938
4184	60.6439
4168	60.3319
4152	60.3535
4136	60.0339
4120	60.7182
4104	60.7289
4088	60.8328
4072	60.6991
4056	60.8201
4040	60.6449
4024	60.6433
4008	60.0635
3992	60.4333
3976	60.4944
3960	60.4062
3944	60.4878
3928	60.4972
3912	60.4536
3896	60.3989
3880	60.5385
3864	60.46
3848	60.5061
3832	60.5375
3816	60.3359
3800	60.559
3784	60.7394
3768	60.7182
3752	60.4352
3736	60.6
3720	60.3405
3704	60.4215
3688	60.5826
3672	60.4113
3656	60.5723
3640	60.5768
3624	60.5859
3608	60.6414
3592	60.7614
3576	60.6292
3560	60.6431
3544	60.5621
3528	60.4729
3512	60.4919
3496	60.4738
3480	60.3427
3464	60.3711
3448	60.4538
3432	60.4318
3416	60.5117
3400	60.5335
3384	60.6453
3368	60.5892
3352	60.6061
3336	60.6126
3320	60.7093
3304	60.6606
3288	60.5427
3272	60.6926
3256	60.6038
3240	60.5471
3224	60.5234
3208	60.5336
3192	60.4247
3176	60.5048
3160	60.4647
3144	60.6519
3128	60.5459
3112	60.5465
3096	60.5208
3080	60.768
3064	60.5525
3048	60.6178
3032	60.5279
3016	60.5846
3000	60.562
2984	60.4485
2968	60.3828
2952	60.4955
2936	60.3123
2920	60.4313
2904	60.6063
2888	60.6868
2872	60.6641
2856	60.7378
2840	60.6338
2824	60.729
2808	60.6112
2792	60.6132
2776	60.5738
2760	60.5901
2744	60.601
2728	60.5957
2712	60.4341
2696	60.4837
2680	60.6614
2664	60.4177
2648	60.6295
2632	60.6276
2616	60.6209
2600	60.6474
2584	60.7168
2568	60.6107
2552	60.6552
2536	60.6928
2520	60.6088
2504	60.6308
2488	60.5651
2472	60.5848
2456	60.6093
2440	60.6182
2424	60.6339
2408	60.6896
2392	60.706
2376	60.7952
2360	60.6961
2344	60.6977
2328	60.7349
2312	60.7222
2296	60.8492
2280	60.7261
2264	60.6814
2248	60.7117
2232	60.6468
2216	60.701
2200	60.6096
2184	60.6115
2168	60.7224
2152	60.684
2136	60.7264
2120	60.838
2104	60.6869
2088	60.7342
2072	60.8507
2056	60.6532
2040	60.7258
2024	60.6687
2008	60.6185
1992	60.5567
1976	60.7091
1960	60.6614
1944	60.5696
1928	60.6277
1912	60.514
1896	60.6727
1880	60.7044
1864	60.6499
1848	60.6874
1832	60.6298
1816	60.6485
1800	60.6428
1784	60.6254
1768	60.5785
1752	60.442
1736	60.4117
1720	60.3978
1704	60.4016
1688	60.5109
1672	60.4698
1656	60.6209
1640	60.5462
1624	60.6842
1608	60.7203
1592	60.678
1576	60.8005
1560	60.7078
1544	60.5579
1528	60.6033
1512	60.5896
1496	60.8103
1480	60.6071
1464	60.6483
1448	60.5757
1432	60.655
1416	60.6468
1400	60.5419
1384	60.5626
1368	60.6225
1352	60.8521
1336	60.5676
1320	60.4785
1304	60.5101
1288	60.482
1272	60.6571
1256	60.3273
1240	60.3945
1224	60.4769
1208	60.3338
1192	60.5751
1176	60.4073
1160	60.3984
1144	60.5316
1128	60.6688
1112	60.6148
1096	60.7605
1080	60.5291
1064	60.5008
1048	60.4152
1032	60.6337
1016	60.6099
1000	60.8959
984	 60.665
968	 60.7044
952	 60.8255
936	 60.6763
920	 60.8304
904	 60.5486
888	 60.5969
872	 60.8354
856	 60.5601
840	 60.5716
824	 60.8011
808	 60.9592
792	 60.6708
776	 60.8784
760	 60.8024
744	 60.7182
728	 60.8277
712	 60.8709
696	 60.8109
680	 60.8432
664	 60.775
648	 61.1258
632	 60.5742
616	 60.7779
600	 61.0398
584	 60.7897
568	 61.2047
552	 60.5228
536	 60.8358
520	 61.4039
504	 59.9902
488	 60.5717
472	 60.6529
456	 61.5445
440	 58.1745
424	 57.4652
408	 52.8021
392	 73.2977
376	 31.1458
370	 28.6169