Folder: Masteroppgave/Bakgrunnsmateriale/MATLAB/FTIR/ftir_data/subCa/Mapping_25 (part 9)

File: BZ12041010-4_t17_cm-1.asc
PE IR       SPECTRUM    SPECTRUM    ASCII       PEDS        1.60
  -1
BZ2C75~1.ASC
17/04/10
10:18:33.00
17/04/10
10:18:33.00
tln
$BZ12041010-4_t0017$<tbV0>[2.6,-4.6,9.0,0.0,22,1,0]
370
64

2002,4.07
MIRTGS : RIGHTBACK : INTERNAL 2
MIR : ON : INTERNAL 2
OPTKBR

0.200000
8
8.000000
FILLER
RATIO
SPECTRUM
UNLOCKED 256

DOUBLE
64
COMBINED
1
0
0

1.000000
RATIO

1
0
TRUE
51149
0
LEFT NOT FITTED RIGHT NOT FITTED 0
NONE
NONE
15600
12
4.427000
51148
TRUE
1 0 8 72 0 0 0 0

15798

#HDR
-1
-1
#GR
CM-1
%T
2.38419e-05
0.0
5000
-1.000000
4631
8
112.152
32.6557
#DATA
5000	64.9986
4984	64.619
4968	64.2402
4952	64.6421
4936	64.149
4920	65.0738
4904	65.3681
4888	64.6784
4872	65.4332
4856	67.0394
4840	64.4349
4824	65.6689
4808	63.3472
4792	65.5244
4776	66.2849
4760	64.9373
4744	65.0374
4728	65.6961
4712	65.5136
4696	64.9839
4680	65.0668
4664	64.739
4648	64.1665
4632	64.3154
4616	64.5559
4600	63.9735
4584	64.1777
4568	63.9102
4552	64.1515
4536	63.3085
4520	63.8991
4504	64.2323
4488	64.2021
4472	68.2389
4456	104.021
4440	63.6849
4424	62.6809
4408	63.6423
4392	64.106
4376	63.4387
4360	64.1655
4344	64.0227
4328	64.5278
4312	64.5391
4296	64.4827
4280	64.7592
4264	64.9117
4248	65.1469
4232	65.4592
4216	65.3901
4200	65.3363
4184	65.6005
4168	65.7883
4152	65.3435
4136	65.6114
4120	65.4045
4104	65.5972
4088	65.701
4072	65.4008
4056	65.3534
4040	65.1475
4024	65.0321
4008	65.1298
3992	65.0597
3976	65.2257
3960	65.0423
3944	64.9204
3928	65.4197
3912	65.1552
3896	64.8072
3880	65.2462
3864	65.2458
3848	65.2366
3832	65.0493
3816	65.2791
3800	65.4127
3784	65.4521
3768	65.1801
3752	65.3369
3736	65.4169
3720	65.5372
3704	65.5025
3688	65.3986
3672	65.4489
3656	65.3411
3640	65.4061
3624	65.4419
3608	65.5071
3592	65.5178
3576	65.4443
3560	65.2527
3544	65.2802
3528	65.3641
3512	65.188
3496	65.2783
3480	64.9759
3464	65.1986
3448	65.2334
3432	65.2264
3416	65.3082
3400	65.1939
3384	65.1191
3368	65.4136
3352	65.2869
3336	65.5027
3320	65.2731
3304	65.3
3288	65.5002
3272	65.277
3256	65.3079
3240	65.3122
3224	65.3364
3208	65.2945
3192	65.3557
3176	65.3671
3160	65.1759
3144	65.3836
3128	65.2069
3112	65.2932
3096	65.1581
3080	65.2814
3064	65.2382
3048	65.3953
3032	65.3279
3016	65.2081
3000	65.2649
2984	65.4157
2968	65.2453
2952	65.2167
2936	65.2588
2920	65.1817
2904	65.381
2888	65.401
2872	65.231
2856	65.0894
2840	65.2614
2824	65.3513
2808	65.4364
2792	65.3032
2776	65.4586
2760	65.3929
2744	65.3452
2728	65.2939
2712	65.3556
2696	65.3526
2680	65.2371
2664	65.4144
2648	65.4133
2632	65.2467
2616	65.3757
2600	65.3243
2584	65.2291
2568	65.3561
2552	65.2038
2536	65.265
2520	65.3414
2504	65.3718
2488	65.4099
2472	65.2597
2456	65.3917
2440	65.4067
2424	65.3908
2408	65.3952
2392	65.3161
2376	65.2811
2360	65.2517
2344	65.3224
2328	65.4161
2312	65.4268
2296	65.3259
2280	65.2463
2264	65.3449
2248	65.2918
2232	65.3287
2216	65.2802
2200	65.2403
2184	65.2847
2168	65.359
2152	65.2977
2136	65.2635
2120	65.2697
2104	65.3082
2088	65.3269
2072	65.4241
2056	65.2614
2040	65.2591
2024	65.3719
2008	65.3239
1992	65.3488
1976	65.4124
1960	65.393
1944	65.3132
1928	65.461
1912	65.3654
1896	65.3726
1880	65.3623
1864	65.2822
1848	65.3769
1832	65.2862
1816	65.2752
1800	65.2984
1784	65.1797
1768	65.2292
1752	65.1876
1736	65.145
1720	64.9728
1704	65.0114
1688	65.1423
1672	65.1048
1656	65.3711
1640	65.2321
1624	65.2654
1608	65.2764
1592	65.2514
1576	65.373
1560	65.4514
1544	65.2196
1528	65.2749
1512	65.3349
1496	65.5172
1480	65.1887
1464	65.3458
1448	65.3632
1432	65.2554
1416	65.2167
1400	65.2738
1384	65.2574
1368	65.275
1352	65.1455
1336	65.2348
1320	65.0778
1304	65.1668
1288	65.2411
1272	65.0798
1256	65.0518
1240	65.1402
1224	65.1619
1208	65.2806
1192	65.0098
1176	65.265
1160	65.2548
1144	65.1462
1128	65.285
1112	65.1361
1096	65.1826
1080	65.119
1064	65.2925
1048	65.0839
1032	65.0882
1016	65.1759
1000	65.0467
984	 65.2601
968	 65.2755
952	 65.407
936	 65.0949
920	 65.199
904	 65.2512
888	 65.3351
872	 65.1889
856	 65.2055
840	 65.3423
824	 65.4983
808	 65.4016
792	 65.1978
776	 65.4893
760	 65.4819
744	 65.5114
728	 65.5145
712	 65.3171
696	 65.3861
680	 65.4944
664	 65.5427
648	 65.3401
632	 65.4444
616	 65.5097
600	 65.7434
584	 65.7441
568	 65.7525
552	 65.5472
536	 65.6657
520	 65.5006
504	 66.5229
488	 66.1056
472	 65.591
456	 65.2166
440	 66.6025
424	 65.1922
408	 81.6141
392	 56.582
376	 45.928
370	 63.1111

File: BZ12041010-4_t18.asc
PE IR       SPECTRUM    SPECTRUM    ASCII       PEDS        1.60
  -1
BZ4ABE~1.ASC
17/04/10
10:23:10.00
17/04/10
10:23:36.00
tln
$BZ12041010-4_t0018$<tbV0>[0.0,-4.6,9.0,0.0,22,1,0]
27.028
64

2002,4.07
MIRTGS : RIGHTBACK : INTERNAL 2
MIR : ON : INTERNAL 2
OPTKBR

0.200000
8
8.000000
FILLER
RATIO
SPECTRUM
UNLOCKED 256

DOUBLE
64
COMBINED
1
0
0

0.002000
RATIO

1
0
TRUE
51149
0
LEFT NOT FITTED RIGHT NOT FITTED 0
NONE
NONE
15600
12
4.427000
51148
TRUE
1 0 8 72 0 0 0 0

15798

#HDR
-1
-1
#GR
µM
%T
2.38419e-05
0.0
2.000000
0.002000
12515
8
78.6644
3.681367
#DATA
2.000000	 64.9023
2.084000	 65.3794
2.168000	 65.3068
2.252000	 64.7701
2.336000	 65.3455
2.420000	 65.0017
2.504000	 65.0255
2.588000	 65.2577
2.672000	 65.3247
2.756000	 65.3316
2.840000	 65.381
2.924000	 65.2947
3.008000	 65.2267
3.092000	 65.4364
3.176000	 65.2581
3.260000	 65.3872
3.344000	 65.4618
3.428000	 65.1013
3.512000	 65.2537
3.596000	 65.2698
3.680000	 65.3939
3.764000	 65.4457
3.848000	 65.345
3.932000	 65.3486
4.016000	 65.3321
4.100000	 65.3916
4.184000	 65.31
4.268000	 65.2549
4.352000	 65.3553
4.436000	 65.2716
4.520000	 65.2621
4.604000	 65.3123
4.688000	 65.315
4.772000	 65.2527
4.856000	 65.4319
4.940000	 65.359
5.024000	 65.3281
5.108000	 65.3612
5.192000	 65.3227
5.276000	 65.2151
5.359999	 65.2516
5.444000	 65.3299
5.528000	 65.2144
5.612000	 65.3212
5.696000	 65.2684
5.780000	 65.1036
5.864000	 65.266
5.948000	 65.1777
6.032000	 65.2379
6.116000	 65.2867
6.200000	 65.3163
6.284000	 65.3458
6.368000	 65.2108
6.452000	 65.3026
6.536000	 65.249
6.620000	 65.3599
6.704000	 65.2666
6.788000	 65.3099
6.872000	 65.3078
6.956000	 65.246
7.040000	 65.2197
7.124000	 65.2623
7.208000	 65.2452
7.292000	 65.2674
7.376000	 65.1945
7.460000	 65.1807
7.544000	 65.1703
7.628000	 65.2094
7.712000	 65.2085
7.796000	 65.1825
7.880000	 65.0482
7.964000	 65.1758
8.048000	 65.2008
8.132000	 65.3049
8.216000	 65.1654
8.300000	 65.2151
8.384000	 65.0856
8.468000	 65.1222
8.552000	 65.1456
8.635999	 65.1608
8.719999	 65.1356
8.804000	 65.0323
8.888000	 65.1275
8.972000	 64.9983
9.056000	 64.9908
9.140000	 65.0938
9.224000	 65.1301
9.308000	 64.8224
9.391999	 65.1251
9.475999	 65.1126
9.560000	 65.0662
9.644000	 65.2267
9.728000	 64.9905
9.812000	 65.087
9.896000	 65.096
9.980000	 65.138
10.064	65.1441
10.148	65.251
10.232	65.3922
10.316	65.2563
10.4	65.1615
10.484	65.0489
10.568	65.0441
10.652	65.151
10.736	65.1149
10.82	65.2156
10.904	65.1922
10.988	65.224
11.072	65.2814
11.156	65.3614
11.24	65.383
11.324	65.2075
11.408	65.2339
11.492	65.293
11.576	65.3401
11.66	65.3347
11.744	65.2694
11.828	65.3924
11.912	65.4926
11.996	65.6065
12.08	65.6698
12.164	65.5179
12.248	65.4109
12.332	65.3588
12.416	65.3207
12.5	65.3262
12.584	65.2865
12.668	65.4509
12.752	65.4939
12.836	65.4174
12.92	65.6489
13.004	65.6214
13.088	65.5309
13.172	65.5315
13.256	65.4873
13.34	65.3406
13.424	65.2905
13.508	65.5439
13.592	65.6035
13.676	65.4884
13.76	65.4037
13.844	65.4177
13.928	65.5656
14.012	65.5245
14.096	65.4252
14.18	65.4287
14.264	65.3216
14.348	65.2786
14.432	65.4131
14.516	65.5144
14.6	65.5287
14.684	65.5678
14.768	65.6085
14.852	65.5156
14.936	65.3785
15.02	65.3761
15.104	65.4522
15.188	65.5002
15.272	65.4838
15.356	65.4342
15.44	65.4366
15.524	65.4094
15.608	65.3001
15.692	65.2791
15.776	65.3485
15.86	65.3482
15.944	65.3157
16.028	65.3747
16.112	65.5292
16.196	65.6943
16.28	65.7426
16.364	65.646
16.448	65.5649
16.532	65.5955
16.616	65.5838
16.7	65.4245
16.784	65.3086
16.868	65.4165
16.952	65.5789
17.036	65.5253
17.12	65.295
17.204	65.1662
17.288	65.2746
17.372	65.4856
17.456	65.5896
17.54	65.5166
17.624	65.384
17.708	65.3275
17.792	65.3517
17.876	65.3911
17.96	65.4452
18.044	65.547
18.128	65.6688
18.212	65.7437
18.296	65.7362
18.38	65.6357
18.464	65.4625
18.548	65.3036
18.632	65.2642
18.716	65.357
18.8	65.4853
18.884	65.5591
18.968	65.5855
19.052	65.6419
19.136	65.7737
19.22	65.9516
19.304	66.1146
19.388	66.2268
19.472	66.2911
19.556	66.3395
19.64	66.3937
19.724	66.4109
19.808	66.3153
19.892	66.1114
19.976	65.9138
20.06	65.8297
20.144	65.8614
20.228	65.9356
20.312	65.984
20.396	65.9807
20.48	65.9335
20.564	65.8533
20.648	65.7349
20.732	65.5734
20.816	65.4005
20.9	65.2895
20.984	65.2967
21.068	65.4112
21.152	65.5585
21.236	65.6479
21.32	65.6251
21.404	65.5012
21.488	65.3365
21.572	65.2015
21.656	65.1389
21.74	65.146
21.824	65.1894
21.908	65.2518
21.992	65.3632
22.076	65.5856
22.16	65.9581
22.244	66.3987
22.328	66.7478
22.412	66.855
22.496	66.6996
22.58	66.4166
22.664	66.2002
22.748	66.1828
22.832	66.3582
22.916	66.5958
23	66.732
23.084	66.6844
23.168	66.5126
23.252	66.3973
23.336	66.5786
23.42	67.2384
23.504	68.437
23.588	70.0666
23.672	71.8896
23.756	73.5869
23.84	74.8726
23.924	75.5313
24.008	75.4735
24.092	74.7459
24.176	73.4756
24.26	71.8978
24.344	70.3097
24.428	68.9745
24.512	68.1598
24.596	68.0018
24.68	68.496
24.764	69.5111
24.848	70.8024
24.932	72.0875
25.016	73.1384
25.1	73.8084
25.184	74.0097
25.268	73.7393
25.352	73.1171
25.436	72.0661
25.52	70.4977
25.604	68.5008
25.688	66.5016
25.772	64.2518
25.856	60.4921
25.94	54.1148
26.024	46.0488
26.108	40.114
26.192	38.2559
26.276	39.1333
26.36	35.9015
26.444	25.5216
26.528	10.8272
26.612	3.706670
26.696	12.0691
26.78	31.9731
26.864	45.8739
26.948	35.5882
27.028	5.106735

File: BZ12041010-4_t18_cm-1.asc
PE IR       SPECTRUM    SPECTRUM    ASCII       PEDS        1.60
  -1
BZ2CF0~1.ASC
17/04/10
10:23:10.00
17/04/10
10:23:10.00
tln
$BZ12041010-4_t0018$<tbV0>[0.0,-4.6,9.0,0.0,22,1,0]
370
64

2002,4.07
MIRTGS : RIGHTBACK : INTERNAL 2
MIR : ON : INTERNAL 2
OPTKBR

0.200000
8
8.000000
FILLER
RATIO
SPECTRUM
UNLOCKED 256

DOUBLE
64
COMBINED
1
0
0

1.000000
RATIO

1
0
TRUE
51149
0
LEFT NOT FITTED RIGHT NOT FITTED 0
NONE
NONE
15600
12
4.427000
51148
TRUE
1 0 8 72 0 0 0 0

15798

#HDR
-1
-1
#GR
CM-1
%T
2.38419e-05
0.0
5000
-1.000000
4631
8
78.748
3.834056
#DATA
5000	64.9023
4984	65.2642
4968	65.5082
4952	65.041
4936	64.2867
4920	65.23
4904	65.9041
4888	64.7287
4872	65.1762
4856	65.2115
4840	66.5622
4824	65.7973
4808	66.9572
4792	64.8015
4776	64.7963
4760	64.8878
4744	65.5048
4728	65.1611
4712	65.0067
4696	65.2604
4680	65.2595
4664	65.3705
4648	65.2657
4632	65.0474
4616	65.4186
4600	65.2291
4584	65.1507
4568	65.3623
4552	64.9447
4536	65.1178
4520	65.5651
4504	65.7557
4488	66.4639
4472	60.5102
4456	78.748
4440	64.7112
4424	64.697
4408	65.0814
4392	65.6933
4376	65.3891
4360	65.4093
4344	65.2469
4328	65.3888
4312	65.5691
4296	64.9989
4280	65.3589
4264	65.192
4248	65.0156
4232	65.1874
4216	65.1669
4200	65.0228
4184	65.0158
4168	65.3749
4152	65.1471
4136	64.9412
4120	65.0492
4104	65.3233
4088	65.1989
4072	65.2985
4056	65.1272
4040	65.3517
4024	65.0881
4008	65.3104
3992	65.0594
3976	64.9462
3960	65.1214
3944	65.2528
3928	65.5145
3912	65.3741
3896	65.169
3880	65.3354
3864	65.2579
3848	65.2642
3832	65.2865
3816	65.2709
3800	65.3752
3784	65.3298
3768	65.1513
3752	65.1894
3736	65.3378
3720	65.2948
3704	65.417
3688	65.326
3672	65.3809
3656	65.3791
3640	65.3927
3624	65.3384
3608	65.4775
3592	65.3844
3576	65.4275
3560	65.3342
3544	65.3127
3528	65.5933
3512	65.3036
3496	65.3375
3480	65.1947
3464	65.0746
3448	65.3808
3432	65.3085
3416	65.2422
3400	65.2625
3384	65.2943
3368	65.2828
3352	65.412
3336	65.5394
3320	65.3278
3304	65.1381
3288	65.3397
3272	65.2249
3256	65.3774
3240	65.3203
3224	65.4617
3208	65.3815
3192	65.2608
3176	65.276
3160	65.3738
3144	65.3051
3128	65.0707
3112	65.3258
3096	65.3229
3080	65.2308
3064	65.3549
3048	65.2689
3032	65.2755
3016	65.3689
3000	65.3261
2984	65.3488
2968	65.3446
2952	65.1597
2936	65.1788
2920	65.1347
2904	65.26
2888	65.2902
2872	65.2693
2856	65.1811
2840	65.3202
2824	65.422
2808	65.2909
2792	65.2812
2776	65.2914
2760	65.4501
2744	65.3923
2728	65.3864
2712	65.3468
2696	65.2201
2680	65.2459
2664	65.3337
2648	65.3883
2632	65.2638
2616	65.3319
2600	65.3294
2584	65.3621
2568	65.2532
2552	65.3117
2536	65.2979
2520	65.3278
2504	65.3099
2488	65.3209
2472	65.2332
2456	65.4062
2440	65.3812
2424	65.3378
2408	65.4435
2392	65.3384
2376	65.2146
2360	65.2827
2344	65.2644
2328	65.3074
2312	65.3286
2296	65.3587
2280	65.264
2264	65.3677
2248	65.297
2232	65.3159
2216	65.3041
2200	65.4305
2184	65.4264
2168	65.3332
2152	65.1409
2136	65.3457
2120	65.4009
2104	65.3849
2088	65.2903
2072	65.3987
2056	65.4275
2040	65.2819
2024	65.3614
2008	65.3337
1992	65.2732
1976	65.3923
1960	65.3184
1944	65.3016
1928	65.3473
1912	65.3439
1896	65.2136
1880	65.3285
1864	65.2646
1848	65.2685
1832	65.2441
1816	65.3532
1800	65.1996
1784	65.321
1768	65.2368
1752	65.338
1736	65.114
1720	65.107
1704	65.2757
1688	65.1826
1672	65.1594
1656	65.3028
1640	65.1988
1624	65.2613
1608	65.2793
1592	65.339
1576	65.3036
1560	65.5309
1544	65.1519
1528	65.2399
1512	65.3513
1496	65.3127
1480	65.2188
1464	65.2804
1448	65.1953
1432	65.2059
1416	65.1682
1400	65.3573
1384	65.194
1368	65.2345
1352	65.1618
1336	65.2007
1320	65.1649
1304	65.1814
1288	65.21
1272	65.039
1256	65.1732
1240	65.217
1224	65.2167
1208	65.2853
1192	65.0999
1176	65.1377
1160	65.1737
1144	65.1323
1128	65.0662
1112	64.9312
1096	65.0814
1080	64.9723
1064	65.1131
1048	65.0553
1032	65.0577
1016	65.0641
1000	65.14
984	 65.2866
968	 65.238
952	 65.0094
936	 65.1147
920	 65.1946
904	 65.2749
888	 65.3191
872	 65.272
856	 65.3054
840	 65.4856
824	 65.5743
808	 65.337
792	 65.3349
776	 65.5585
760	 65.5328
744	 65.3271
728	 65.425
712	 65.4697
696	 65.3005
680	 65.5845
664	 65.4117
648	 65.4351
632	 65.3603
616	 65.7369
600	 65.4984
584	 65.2864
568	 65.4095
552	 65.6529
536	 65.2807
520	 65.9745
504	 66.2426
488	 65.9241
472	 65.6067
456	 65.274
440	 66.1662
424	 70.0019
408	 68.1729
392	 70.7062
376	 3.834056
370	 5.106735

File: BZ12041010-4_t19.asc
PE IR       SPECTRUM    SPECTRUM    ASCII       PEDS        1.60
  -1
BZ4AB2~1.ASC
17/04/10
10:27:47.00
17/04/10
10:28:13.00
tln
$BZ12041010-4_t0019$<tbV0>[-2.6,-4.6,9.0,0.0,22,1,0]
27.028
64

2002,4.07
MIRTGS : RIGHTBACK : INTERNAL 2
MIR : ON : INTERNAL 2
OPTKBR

0.200000
8
8.000000
FILLER
RATIO
SPECTRUM
UNLOCKED 256

DOUBLE
64
COMBINED
1
0
0

0.002000
RATIO

1
0
TRUE
51149
0
LEFT NOT FITTED RIGHT NOT FITTED 0
NONE
NONE
15600
12
4.427000
51148
TRUE
1 0 8 72 0 0 0 0

15798

#HDR
-1
-1
#GR
µM
%T
2.38419e-05
0.0
2.000000
0.002000
12515
8
76.4426
9.308828
#DATA
2.000000	 65.1032
2.084000	 64.4196
2.168000	 64.0359
2.252000	 63.2401
2.336000	 64.2545
2.420000	 65.0926
2.504000	 64.2183
2.588000	 64.5867
2.672000	 64.7643
2.756000	 64.615
2.840000	 64.3678
2.924000	 64.1629
3.008000	 64.1913
3.092000	 64.2395
3.176000	 64.53
3.260000	 64.4499
3.344000	 64.5397
3.428000	 64.348
3.512000	 64.3708
3.596000	 64.5723
3.680000	 64.5706
3.764000	 64.456
3.848000	 64.4518
3.932000	 64.6034
4.016000	 64.4483
4.100000	 64.5578
4.184000	 64.3953
4.268000	 64.4294
4.352000	 64.3752
4.436000	 64.1909
4.520000	 64.341
4.604000	 64.3681
4.688000	 64.3817
4.772000	 64.241
4.856000	 64.3141
4.940000	 64.2178
5.024000	 64.2459
5.108000	 64.2987
5.192000	 64.1962
5.276000	 64.1581
5.359999	 64.1644
5.444000	 64.1446
5.528000	 64.0718
5.612000	 64.0379
5.696000	 64.0373
5.780000	 63.8716
5.864000	 63.9182
5.948000	 63.9436
6.032000	 63.9675
6.116000	 64.0366
6.200000	 64.006
6.284000	 63.9533
6.368000	 64.1207
6.452000	 64.0084
6.536000	 64.0137
6.620000	 64.0501
6.704000	 64.1158
6.788000	 63.9249
6.872000	 64.0763
6.956000	 63.9358
7.040000	 63.869
7.124000	 63.841
7.208000	 63.8385
7.292000	 63.9994
7.376000	 63.8355
7.460000	 63.8693
7.544000	 63.8512
7.628000	 63.7055
7.712000	 63.9145
7.796000	 63.9226
7.880000	 63.775
7.964000	 63.9015
8.048000	 63.8943
8.132000	 63.9447
8.216000	 64.028
8.300000	 64.0881
8.384000	 64.1649
8.468000	 64.1731
8.552000	 63.919
8.635999	 63.899
8.719999	 63.8314
8.804000	 63.9737
8.888000	 63.9585
8.972000	 63.897
9.056000	 63.8859
9.140000	 63.7395
9.224000	 63.8212
9.308000	 63.579
9.391999	 63.772
9.475999	 63.6242
9.560000	 63.5786
9.644000	 63.753
9.728000	 63.5814
9.812000	 63.4979
9.896000	 63.5191
9.980000	 63.5603
10.064	63.4855
10.148	63.4002
10.232	63.4761
10.316	63.4345
10.4	63.528
10.484	63.5533
10.568	63.6479
10.652	63.4795
10.736	63.4282
10.82	63.6495
10.904	63.8515
10.988	63.7974
11.072	63.767
11.156	63.7052
11.24	63.7241
11.324	63.8563
11.408	63.8453
11.492	63.8746
11.576	63.8062
11.66	63.9077
11.744	63.8613
11.828	63.751
11.912	63.8234
11.996	63.9217
12.08	64.0385
12.164	63.9124
12.248	63.7637
12.332	63.8463
12.416	63.9726
12.5	63.9345
12.584	63.8194
12.668	63.9395
12.752	63.9919
12.836	63.9773
12.92	64.1262
13.004	64.223
13.088	64.2079
13.172	64.0792
13.256	63.9921
13.34	63.9806
13.424	64.0002
13.508	64.1055
13.592	64.3047
13.676	64.3459
13.76	64.2641
13.844	64.3448
13.928	64.3816
14.012	64.1586
14.096	63.9742
14.18	64.0667
14.264	64.2637
14.348	64.3016
14.432	64.2621
14.516	64.2366
14.6	64.1488
14.684	64.0755
14.768	64.1531
14.852	64.2306
14.936	64.0726
15.02	63.8795
15.104	63.9045
15.188	64.0921
15.272	64.2105
15.356	64.1112
15.44	64.0491
15.524	64.1665
15.608	64.2105
15.692	64.1449
15.776	64.1317
15.86	64.1417
15.944	64.1302
16.028	64.158
16.112	64.162
16.196	64.0277
16.28	63.8527
16.364	63.8148
16.448	63.911
16.532	63.983
16.616	63.9267
16.7	63.8024
16.784	63.7369
16.868	63.7769
16.952	63.8566
17.036	63.8615
17.12	63.7427
17.204	63.6139
17.288	63.6568
17.372	63.8593
17.456	63.9955
17.54	63.9288
17.624	63.7753
17.708	63.7159
17.792	63.8073
17.876	63.9937
17.96	64.1748
18.044	64.2586
18.128	64.2586
18.212	64.2876
18.296	64.418
18.38	64.6042
18.464	64.7696
18.548	64.9018
18.632	65.0192
18.716	65.0858
18.8	65.0183
18.884	64.797
18.968	64.5185
19.052	64.325
19.136	64.2783
19.22	64.3257
19.304	64.3817
19.388	64.4353
19.472	64.5569
19.556	64.7952
19.64	65.0766
19.724	65.229
19.808	65.1258
19.892	64.8011
19.976	64.433
20.06	64.2063
20.144	64.1911
20.228	64.3317
20.312	64.5074
20.396	64.6107
20.48	64.5923
20.564	64.4707
20.648	64.3164
20.732	64.2191
20.816	64.2463
20.9	64.4077
20.984	64.6294
21.068	64.7804
21.152	64.7553
21.236	64.5466
21.32	64.2571
21.404	64.0489
21.488	64.0501
21.572	64.2747
21.656	64.6228
21.74	64.9384
21.824	65.1179
21.908	65.1933
21.992	65.2931
22.076	65.5281
22.16	65.8895
22.244	66.2091
22.328	66.2954
22.412	66.0642
22.496	65.6397
22.58	65.257
22.664	65.1053
22.748	65.1866
22.832	65.3059
22.916	65.2021
23	64.7338
23.084	63.9664
23.168	63.1721
23.252	62.6687
23.336	62.6871
23.42	63.2636
23.504	64.2573
23.588	65.4312
23.672	66.5762
23.756	67.5828
23.84	68.477
23.924	69.3434
24.008	70.2743
24.092	71.3212
24.176	72.4036
24.26	73.3651
24.344	73.9915
24.428	74.1091
24.512	73.6843
24.596	72.8434
24.68	71.8065
24.764	70.7942
24.848	69.9358
24.932	69.3034
25.016	68.9259
25.1	68.8004
25.184	68.8851
25.268	69.0674
25.352	69.1648
25.436	68.677
25.52	67.1808
25.604	64.6696
25.688	61.5983
25.772	57.7697
25.856	51.9815
25.94	43.4828
26.024	33.9343
26.108	28.0956
26.192	28.2056
26.276	32.5029
26.36	32.909
26.444	25.6698
26.528	13.7047
26.612	9.998457
26.696	23.0192
26.78	47.9599
26.864	64.7855
26.948	52.5878
27.028	15.0221

File: BZ12041010-4_t19_cm-1.asc
PE IR       SPECTRUM    SPECTRUM    ASCII       PEDS        1.60
  -1
BZ2C70~1.ASC
17/04/10
10:27:47.00
17/04/10
10:27:47.00
tln
$BZ12041010-4_t0019$<tbV0>[-2.6,-4.6,9.0,0.0,22,1,0]
370
64

2002,4.07
MIRTGS : RIGHTBACK : INTERNAL 2
MIR : ON : INTERNAL 2
OPTKBR

0.200000
8
8.000000
FILLER
RATIO
SPECTRUM
UNLOCKED 256

DOUBLE
64
COMBINED
1
0
0

1.000000
RATIO

1
0
TRUE
51149
0
LEFT NOT FITTED RIGHT NOT FITTED 0
NONE
NONE
15600
12
4.427000
51148
TRUE
1 0 8 72 0 0 0 0

15798

#HDR
-1
-1
#GR
CM-1
%T
2.38419e-05
0.0
5000
-1.000000
4631
8
76.4997
9.356856
#DATA
5000	65.1032
4984	64.2103
4968	64.0748
4952	64.3732
4936	63.9516
4920	64.8879
4904	64.0127
4888	64.691
4872	64.576
4856	64.4959
4840	65.944
4824	64.9682
4808	61.9308
4792	63.1425
4776	63.9754
4760	64.5111
4744	64.6272
4728	64.222
4712	64.8554
4696	64.7205
4680	64.3233
4664	64.1433
4648	64.5013
4632	64.312
4616	64.1353
4600	63.683
4584	64.1154
4568	63.627
4552	63.7642
4536	63.6107
4520	64.1472
4504	64.172
4488	65.3958
4472	71.1655
4456	76.4997
4440	63.3881
4424	63.1668
4408	63.3991
4392	63.7354
4376	64.1175
4360	63.745
4344	63.9351
4328	64.2214
4312	64.0689
4296	64.2351
4280	64.2854
4264	63.9782
4248	64.3998
4232	64.5989
4216	64.4676
4200	64.8203
4184	64.4907
4168	64.9338
4152	64.7847
4136	64.9531
4120	64.7339
4104	64.9077
4088	64.6786
4072	64.6978
4056	64.2886
4040	64.6787
4024	64.2501
4008	64.3296
3992	64.2475
3976	63.9818
3960	64.3607
3944	64.5573
3928	64.5271
3912	64.3875
3896	64.4167
3880	64.6429
3864	64.5871
3848	64.4144
3832	64.353
3816	64.4315
3800	64.6396
3784	64.6543
3768	64.5861
3752	64.5628
3736	64.5212
3720	64.7711
3704	64.7264
3688	64.7437
3672	64.8493
3656	64.5452
3640	64.6092
3624	64.6126
3608	64.6797
3592	64.7277
3576	64.6638
3560	64.5886
3544	64.4278
3528	64.2465
3512	64.0195
3496	64.3574
3480	64.015
3464	64.0914
3448	64.1008
3432	64.1802
3416	64.1519
3400	64.3176
3384	64.0903
3368	64.2254
3352	64.347
3336	64.2514
3320	64.3009
3304	64.2926
3288	64.4111
3272	64.2655
3256	64.327
3240	64.238
3224	64.3124
3208	64.2597
3192	64.4603
3176	64.5581
3160	64.3826
3144	64.5209
3128	64.5145
3112	64.4668
3096	64.5534
3080	64.4756
3064	64.4595
3048	64.6568
3032	64.5197
3016	64.4845
3000	64.5807
2984	64.4816
2968	64.7483
2952	64.4228
2936	64.2337
2920	64.3056
2904	64.2596
2888	64.3838
2872	64.3211
2856	64.2781
2840	64.4862
2824	64.4819
2808	64.5886
2792	64.6409
2776	64.4826
2760	64.4788
2744	64.5869
2728	64.445
2712	64.4813
2696	64.5161
2680	64.4468
2664	64.5514
2648	64.5154
2632	64.4279
2616	64.5227
2600	64.4588
2584	64.3732
2568	64.525
2552	64.5204
2536	64.5546
2520	64.4147
2504	64.493
2488	64.4361
2472	64.4443
2456	64.542
2440	64.5561
2424	64.4638
2408	64.5089
2392	64.4056
2376	64.2819
2360	64.3937
2344	64.4126
2328	64.4856
2312	64.36
2296	64.3709
2280	64.2461
2264	64.2996
2248	64.2724
2232	64.2919
2216	64.3049
2200	64.4007
2184	64.3886
2168	64.3689
2152	64.2303
2136	64.3972
2120	64.3997
2104	64.3077
2088	64.1503
2072	64.3612
2056	64.3278
2040	64.2328
2024	64.2178
2008	64.234
1992	64.2237
1976	64.2204
1960	64.2482
1944	64.2092
1928	64.209
1912	64.1855
1896	64.1605
1880	64.1878
1864	64.1605
1848	64.1772
1832	64.115
1816	64.1092
1800	64.0547
1784	64.0297
1768	64.0431
1752	64.0837
1736	63.8544
1720	63.7415
1704	63.9093
1688	63.9551
1672	63.9212
1656	64.0283
1640	63.9648
1624	63.9508
1608	64.0381
1592	63.952
1576	64.0676
1560	64.1749
1544	63.9442
1528	64.0197
1512	64.0493
1496	64.2151
1480	63.9171
1464	64.0191
1448	64.1337
1432	63.8561
1416	63.8695
1400	63.8927
1384	63.8026
1368	63.9856
1352	63.7822
1336	63.886
1320	63.7535
1304	63.8553
1288	63.9597
1272	63.7765
1256	63.8978
1240	63.9484
1224	64.0421
1208	64.0895
1192	64.178
1176	64.0466
1160	63.8997
1144	63.8522
1128	63.9616
1112	63.8891
1096	63.7211
1080	63.7651
1064	63.7708
1048	63.4931
1032	63.6428
1016	63.4672
1000	63.5591
984	 63.4077
968	 63.4533
952	 63.5716
936	 63.4285
920	 63.7933
904	 63.7712
888	 63.7603
872	 63.8906
856	 63.9312
840	 63.8203
824	 63.9742
808	 63.9279
792	 63.8516
776	 64.0642
760	 64.1011
744	 64.01
728	 64.2781
712	 64.0601
696	 64.2914
680	 64.0804
664	 63.8621
648	 64.0453
632	 64.1409
616	 63.9416
600	 63.8511
584	 63.7367
568	 63.8057
552	 64.2596
536	 65.0478
520	 64.3337
504	 65.0156
488	 64.5804
472	 64.6881
456	 65.2111
440	 65.153
424	 65.3878
408	 73.7012
392	 67.4107
376	 9.356856
370	 15.0221