Folder: Masteroppgave/Bakgrunnsmateriale/MATLAB/FTIR/ftir_data/subCa/Mapping_25 (part 4)

File: BZ12041010-4_t05.asc
PE IR       SPECTRUM    SPECTRUM    ASCII       PEDS        1.60
  -1
BZ36B2~1.ASC
17/04/10
09:14:49.00
17/04/10
09:15:16.00
tln
$BZ12041010-4_t0005$<tbV0>[-5.2,-12.4,9.0,0.0,22,1,0]
27.028
64

2002,4.07
MIRTGS : RIGHTBACK : INTERNAL 2
MIR : ON : INTERNAL 2
OPTKBR

0.200000
8
8.000000
FILLER
RATIO
SPECTRUM
UNLOCKED 256

DOUBLE
64
COMBINED
1
0
0

0.002000
RATIO

1
0
TRUE
51149
0
LEFT NOT FITTED RIGHT NOT FITTED 0
NONE
NONE
15600
12
4.427000
51148
TRUE
1 0 8 72 0 0 0 0

15798

#HDR
-1
-1
#GR
µM
%T
2.38419e-05
0.0
2.000000
0.002000
12515
8
99.6782
51.5689
#DATA
2.000000	 64.9431
2.084000	 65.1985
2.168000	 65.3157
2.252000	 65.9469
2.336000	 65.0164
2.420000	 64.8408
2.504000	 65.0854
2.588000	 65.0534
2.672000	 65.4361
2.756000	 65.5245
2.840000	 65.2878
2.924000	 65.0675
3.008000	 65.3042
3.092000	 65.4375
3.176000	 65.2126
3.260000	 65.1832
3.344000	 65.1772
3.428000	 65.1341
3.512000	 65.2138
3.596000	 65.2447
3.680000	 65.285
3.764000	 65.2776
3.848000	 65.3426
3.932000	 65.3013
4.016000	 65.3842
4.100000	 65.2474
4.184000	 65.286
4.268000	 65.2535
4.352000	 65.262
4.436000	 65.2942
4.520000	 65.3833
4.604000	 65.3338
4.688000	 65.2858
4.772000	 65.2753
4.856000	 65.3765
4.940000	 65.3781
5.024000	 65.356
5.108000	 65.3167
5.192000	 65.329
5.276000	 65.3362
5.359999	 65.3718
5.444000	 65.2487
5.528000	 65.3195
5.612000	 65.3535
5.696000	 65.4099
5.780000	 65.151
5.864000	 65.3727
5.948000	 65.4624
6.032000	 65.4732
6.116000	 65.4308
6.200000	 65.2704
6.284000	 65.2041
6.368000	 65.4357
6.452000	 65.4633
6.536000	 65.4449
6.620000	 65.5953
6.704000	 65.389
6.788000	 65.3674
6.872000	 65.3752
6.956000	 65.3069
7.040000	 65.4348
7.124000	 65.27
7.208000	 65.3462
7.292000	 65.3122
7.376000	 65.205
7.460000	 65.251
7.544000	 65.2571
7.628000	 65.3174
7.712000	 65.2616
7.796000	 65.2672
7.880000	 65.1246
7.964000	 65.2095
8.048000	 65.2885
8.132000	 65.2383
8.216000	 65.2918
8.300000	 65.3432
8.384000	 65.2738
8.468000	 65.0327
8.552000	 65.0686
8.635999	 65.3093
8.719999	 65.1595
8.804000	 65.1704
8.888000	 65.2236
8.972000	 65.2664
9.056000	 65.1409
9.140000	 65.2249
9.224000	 65.3486
9.308000	 65.1147
9.391999	 65.1686
9.475999	 65.2466
9.560000	 65.2178
9.644000	 65.12
9.728000	 65.2573
9.812000	 65.3223
9.896000	 65.0686
9.980000	 65.273
10.064	65.3508
10.148	65.2605
10.232	65.2938
10.316	65.3844
10.4	65.2169
10.484	65.2865
10.568	65.2919
10.652	65.2448
10.736	65.4501
10.82	65.3492
10.904	65.1964
10.988	65.2689
11.072	65.3569
11.156	65.2697
11.24	65.2964
11.324	65.41
11.408	65.3929
11.492	65.5928
11.576	65.4643
11.66	65.4552
11.744	65.5457
11.828	65.4077
11.912	65.3486
11.996	65.5042
12.08	65.6514
12.164	65.4795
12.248	65.4764
12.332	65.5984
12.416	65.4783
12.5	65.4835
12.584	65.5484
12.668	65.5739
12.752	65.6539
12.836	65.8403
12.92	65.7393
13.004	65.6168
13.088	65.6635
13.172	65.6283
13.256	65.5503
13.34	65.4588
13.424	65.277
13.508	65.2329
13.592	65.3576
13.676	65.4599
13.76	65.4745
13.844	65.4307
13.928	65.5635
14.012	65.7751
14.096	65.7713
14.18	65.747
14.264	65.6657
14.348	65.4885
14.432	65.4726
14.516	65.5747
14.6	65.6193
14.684	65.6005
14.768	65.6029
14.852	65.741
14.936	65.8392
15.02	65.6435
15.104	65.3824
15.188	65.3784
15.272	65.5678
15.356	65.6531
15.44	65.5122
15.524	65.4226
15.608	65.597
15.692	65.7814
15.776	65.715
15.86	65.5366
15.944	65.4989
16.028	65.6238
16.112	65.7833
16.196	65.907
16.28	66.0251
16.364	66.1332
16.448	66.0655
16.532	65.753
16.616	65.4422
16.7	65.3937
16.784	65.5695
16.868	65.7534
16.952	65.7693
17.036	65.6116
17.12	65.4482
17.204	65.4262
17.288	65.5556
17.372	65.7687
17.456	65.9828
17.54	66.123
17.624	66.1616
17.708	66.133
17.792	66.0895
17.876	66.0779
17.96	66.1044
18.044	66.1296
18.128	66.1395
18.212	66.1836
18.296	66.3098
18.38	66.4928
18.464	66.6536
18.548	66.7211
18.632	66.6627
18.716	66.5054
18.8	66.3399
18.884	66.2691
18.968	66.3254
19.052	66.4511
19.136	66.5712
19.22	66.6516
19.304	66.6824
19.388	66.6743
19.472	66.6841
19.556	66.7684
19.64	66.887
19.724	66.9194
19.808	66.784
19.892	66.5248
19.976	66.2843
20.06	66.1957
20.144	66.2899
20.228	66.4851
20.312	66.6683
20.396	66.7767
20.48	66.805
20.564	66.7672
20.648	66.6581
20.732	66.4692
20.816	66.2141
20.9	65.9499
20.984	65.7591
21.068	65.6994
21.152	65.7535
21.236	65.8293
21.32	65.8162
21.404	65.6663
21.488	65.4332
21.572	65.2373
21.656	65.2059
21.74	65.4043
21.824	65.8028
21.908	66.293
21.992	66.7473
22.076	67.076
22.16	67.2541
22.244	67.3088
22.328	67.2917
22.412	67.2543
22.496	67.2353
22.58	67.2562
22.664	67.3208
22.748	67.3925
22.832	67.3947
22.916	67.2603
23	66.9563
23.084	66.5162
23.168	66.043
23.252	65.651
23.336	65.4226
23.42	65.3928
23.504	65.5664
23.588	65.9051
23.672	66.3287
23.756	66.7187
23.84	66.9256
23.924	66.8388
24.008	66.4609
24.092	65.965
24.176	65.6928
24.26	66.0327
24.344	67.273
24.428	69.3874
24.512	71.9385
24.596	74.2258
24.68	75.5261
24.764	75.4123
24.848	73.9896
24.932	71.8588
25.016	69.8627
25.1	68.7398
25.184	68.9784
25.268	70.6117
25.352	73.2519
25.436	76.3651
25.52	79.427
25.604	81.9981
25.688	83.9509
25.772	85.3839
25.856	86.4176
25.94	87.1904
26.024	87.7982
26.108	88.291
26.192	88.5718
26.276	88.5631
26.36	88.4284
26.444	88.4617
26.528	88.9787
26.612	90.2273
26.696	92.2587
26.78	94.8963
26.864	97.6058
26.948	99.4978
27.028	99.5719

File: BZ12041010-4_t05_cm-1.asc
PE IR       SPECTRUM    SPECTRUM    ASCII       PEDS        1.60
  -1
BZAB7E~1.ASC
17/04/10
09:14:49.00
17/04/10
09:14:49.00
tln
$BZ12041010-4_t0005$<tbV0>[-5.2,-12.4,9.0,0.0,22,1,0]
370
64

2002,4.07
MIRTGS : RIGHTBACK : INTERNAL 2
MIR : ON : INTERNAL 2
OPTKBR

0.200000
8
8.000000
FILLER
RATIO
SPECTRUM
UNLOCKED 256

DOUBLE
64
COMBINED
1
0
0

1.000000
RATIO

1
0
TRUE
51149
0
LEFT NOT FITTED RIGHT NOT FITTED 0
NONE
NONE
15600
12
4.427000
51148
TRUE
1 0 8 72 0 0 0 0

15798

#HDR
-1
-1
#GR
CM-1
%T
2.38419e-05
0.0
5000
-1.000000
4631
8
99.5719
51.5866
#DATA
5000	64.9431
4984	64.0644
4968	64.6193
4952	65.2236
4936	64.5504
4920	64.8258
4904	64.5832
4888	64.6064
4872	64.614
4856	64.6044
4840	65.3646
4824	65.1477
4808	63.1812
4792	65.4683
4776	64.1947
4760	65.6008
4744	64.9158
4728	64.2707
4712	66.068
4696	64.0524
4680	64.3563
4664	64.8205
4648	65.9406
4632	65.1715
4616	65.0698
4600	65.06
4584	64.7954
4568	65.3537
4552	65.3726
4536	64.9825
4520	65.5775
4504	66.136
4488	60.6637
4472	67.3766
4456	65.4628
4440	65.8667
4424	66.2466
4408	65.7712
4392	65.457
4376	65.641
4360	65.1268
4344	65.6379
4328	65.1251
4312	65.0104
4296	64.8838
4280	65.0191
4264	65.034
4248	64.9257
4232	65.1729
4216	64.9596
4200	65.1635
4184	65.2616
4168	65.1243
4152	65.1051
4136	64.8693
4120	64.7934
4104	65.1748
4088	65.1667
4072	65.1079
4056	65.1979
4040	65.2015
4024	65.1401
4008	64.9978
3992	65.1426
3976	65.1072
3960	64.9782
3944	65.2626
3928	65.3007
3912	65.3404
3896	65.4235
3880	65.4006
3864	65.0535
3848	65.3526
3832	65.5567
3816	65.3371
3800	65.3115
3784	65.0715
3768	65.1737
3752	65.3608
3736	65.3932
3720	65.2387
3704	65.3379
3688	65.2107
3672	65.6595
3656	65.4093
3640	65.5714
3624	65.3769
3608	65.4044
3592	65.2321
3576	65.1658
3560	65.4504
3544	65.3267
3528	65.2762
3512	65.2932
3496	65.3523
3480	65.2242
3464	65.4295
3448	65.313
3432	65.2365
3416	65.1474
3400	65.3039
3384	65.2991
3368	65.4293
3352	65.1524
3336	65.2807
3320	65.2873
3304	65.206
3288	65.2302
3272	65.122
3256	65.4248
3240	65.3083
3224	65.1499
3208	65.1832
3192	65.3851
3176	65.252
3160	65.2309
3144	65.2982
3128	65.2111
3112	65.2935
3096	65.3243
3080	65.2271
3064	65.1998
3048	65.3455
3032	65.092
3016	65.3012
3000	65.0274
2984	65.1591
2968	65.2343
2952	65.1772
2936	65.1422
2920	65.1147
2904	65.1903
2888	65.1659
2872	65.1367
2856	65.2298
2840	65.2789
2824	65.2426
2808	65.262
2792	65.1416
2776	65.2403
2760	65.2098
2744	65.3642
2728	65.3051
2712	65.2764
2696	65.2546
2680	65.1225
2664	65.296
2648	65.254
2632	65.3176
2616	65.3049
2600	65.3485
2584	65.3131
2568	65.2512
2552	65.305
2536	65.2831
2520	65.2682
2504	65.3355
2488	65.3814
2472	65.2498
2456	65.3543
2440	65.2343
2424	65.3013
2408	65.3219
2392	65.2747
2376	65.2021
2360	65.269
2344	65.2575
2328	65.2108
2312	65.3443
2296	65.2639
2280	65.3033
2264	65.2501
2248	65.3737
2232	65.3508
2216	65.4109
2200	65.283
2184	65.3403
2168	65.3502
2152	65.4006
2136	65.2683
2120	65.2974
2104	65.3865
2088	65.1699
2072	65.4023
2056	65.3957
2040	65.3406
2024	65.3791
2008	65.3415
1992	65.3516
1976	65.2949
1960	65.2715
1944	65.324
1928	65.3191
1912	65.3661
1896	65.3359
1880	65.3314
1864	65.395
1848	65.3787
1832	65.2763
1816	65.3254
1800	65.3979
1784	65.3961
1768	65.4481
1752	65.3752
1736	65.2491
1720	65.3392
1704	65.3984
1688	65.3641
1672	65.4765
1656	65.5419
1640	65.3626
1624	65.292
1608	65.2195
1592	65.208
1576	65.5225
1560	65.6355
1544	65.5132
1528	65.4635
1512	65.5709
1496	65.4256
1480	65.2549
1464	65.3368
1448	65.2895
1432	65.3993
1416	65.3194
1400	65.2799
1384	65.3162
1368	65.2777
1352	65.1843
1336	65.2719
1320	65.3122
1304	65.3666
1288	65.266
1272	65.2096
1256	65.211
1240	65.2603
1224	65.2766
1208	65.3176
1192	65.2632
1176	65.0373
1160	65.3002
1144	65.168
1128	65.2173
1112	65.262
1096	65.1832
1080	65.2305
1064	65.1764
1048	65.3011
1032	65.2053
1016	65.215
1000	65.3139
984	 65.2641
968	 65.3787
952	 65.2902
936	 65.295
920	 65.2282
904	 65.3528
888	 65.3456
872	 65.5632
856	 65.4965
840	 65.3437
824	 65.5588
808	 65.5469
792	 65.5614
776	 65.8178
760	 65.6413
744	 65.2486
728	 65.4813
712	 65.7949
696	 65.4646
680	 65.5935
664	 65.4998
648	 65.5294
632	 65.61
616	 65.9574
600	 65.3771
584	 65.4442
568	 66.1607
552	 66.1375
536	 66.6237
520	 66.6585
504	 66.6893
488	 66.8035
472	 65.7891
456	 66.4193
440	 67.3783
424	 65.8908
408	 71.8733
392	 79.0917
376	 89.9242
370	 99.5719

File: BZ12041010-4_t06.asc
PE IR       SPECTRUM    SPECTRUM    ASCII       PEDS        1.60
  -1
BZ36B6~1.ASC
17/04/10
09:19:46.00
17/04/10
09:20:12.00
tln
$BZ12041010-4_t0006$<tbV0>[5.2,-9.8,9.0,0.0,22,1,0]
27.028
64

2002,4.07
MIRTGS : RIGHTBACK : INTERNAL 2
MIR : ON : INTERNAL 2
OPTKBR

0.200000
8
8.000000
FILLER
RATIO
SPECTRUM
UNLOCKED 256

DOUBLE
64
COMBINED
1
0
0

0.002000
RATIO

1
0
TRUE
51149
0
LEFT NOT FITTED RIGHT NOT FITTED 0
NONE
NONE
15600
12
4.427000
51148
TRUE
1 0 8 72 0 0 0 0

15798

#HDR
-1
-1
#GR
µM
%T
2.38419e-05
0.0
2.000000
0.002000
12515
8
105.804
41.2644
#DATA
2.000000	 65.3397
2.084000	 65.3349
2.168000	 65.1574
2.252000	 65.3607
2.336000	 64.7588
2.420000	 65.0936
2.504000	 64.8783
2.588000	 65.1704
2.672000	 65.6714
2.756000	 65.2714
2.840000	 65.1641
2.924000	 65.2578
3.008000	 65.1473
3.092000	 65.2155
3.176000	 65.1505
3.260000	 65.0353
3.344000	 65.1412
3.428000	 65.0854
3.512000	 65.2544
3.596000	 65.1966
3.680000	 65.2176
3.764000	 65.2649
3.848000	 65.1748
3.932000	 65.2726
4.016000	 65.2452
4.100000	 65.2165
4.184000	 65.2404
4.268000	 65.2894
4.352000	 65.2912
4.436000	 65.3576
4.520000	 65.3322
4.604000	 65.2677
4.688000	 65.0936
4.772000	 65.2925
4.856000	 65.2867
4.940000	 65.3315
5.024000	 65.2665
5.108000	 65.234
5.192000	 65.2738
5.276000	 65.2365
5.359999	 65.2516
5.444000	 65.3082
5.528000	 65.2934
5.612000	 65.2323
5.696000	 65.2975
5.780000	 65.1442
5.864000	 65.3104
5.948000	 65.392
6.032000	 65.4017
6.116000	 65.3779
6.200000	 65.2003
6.284000	 65.0512
6.368000	 65.3773
6.452000	 65.3972
6.536000	 65.3321
6.620000	 65.4135
6.704000	 65.3873
6.788000	 65.2287
6.872000	 65.369
6.956000	 65.1707
7.040000	 65.3805
7.124000	 65.1503
7.208000	 65.159
7.292000	 65.1347
7.376000	 65.0775
7.460000	 65.0631
7.544000	 65.1403
7.628000	 65.0495
7.712000	 65.2075
7.796000	 65.0724
7.880000	 65.0723
7.964000	 65.1549
8.048000	 65.1438
8.132000	 65.1235
8.216000	 65.0749
8.300000	 65.2031
8.384000	 65.0454
8.468000	 65.0212
8.552000	 65.0415
8.635999	 65.0627
8.719999	 65.0519
8.804000	 65.0035
8.888000	 65.275
8.972000	 65.0459
9.056000	 64.808
9.140000	 64.8329
9.224000	 64.9764
9.308000	 64.9298
9.391999	 65.0301
9.475999	 65.1991
9.560000	 65.1877
9.644000	 65.024
9.728000	 65.0407
9.812000	 65.2315
9.896000	 65.0635
9.980000	 65.212
10.064	65.0396
10.148	65.0919
10.232	65.1071
10.316	65.0694
10.4	65.2455
10.484	65.3667
10.568	65.4348
10.652	65.2562
10.736	65.3384
10.82	65.254
10.904	65.0392
10.988	65.1672
11.072	65.2874
11.156	65.2791
11.24	65.2212
11.324	65.1637
11.408	65.2691
11.492	65.4568
11.576	65.556
11.66	65.3838
11.744	65.2675
11.828	65.198
11.912	65.1713
11.996	65.0663
12.08	65.2501
12.164	65.4848
12.248	65.473
12.332	65.5736
12.416	65.476
12.5	65.3789
12.584	65.5525
12.668	65.6063
12.752	65.5733
12.836	65.756
12.92	65.7962
13.004	65.4948
13.088	65.3742
13.172	65.5386
13.256	65.5576
13.34	65.42
13.424	65.3443
13.508	65.3156
13.592	65.4021
13.676	65.4975
13.76	65.4562
13.844	65.3622
13.928	65.3209
14.012	65.3134
14.096	65.3141
14.18	65.3119
14.264	65.1999
14.348	65.1938
14.432	65.3518
14.516	65.364
14.6	65.2895
14.684	65.3189
14.768	65.4484
14.852	65.6742
14.936	65.8342
15.02	65.7759
15.104	65.6664
15.188	65.6502
15.272	65.6332
15.356	65.5308
15.44	65.4135
15.524	65.4467
15.608	65.6458
15.692	65.7302
15.776	65.5298
15.86	65.2567
15.944	65.1498
16.028	65.2072
16.112	65.3459
16.196	65.5455
16.28	65.749
16.364	65.8007
16.448	65.6556
16.532	65.4933
16.616	65.4815
16.7	65.586
16.784	65.7046
16.868	65.8018
16.952	65.8351
17.036	65.8051
17.12	65.8032
17.204	65.8217
17.288	65.7798
17.372	65.7283
17.456	65.7882
17.54	65.9404
17.624	66.0382
17.708	65.997
17.792	65.8604
17.876	65.7191
17.96	65.6103
18.044	65.5298
18.128	65.5103
18.212	65.6173
18.296	65.8425
18.38	66.0619
18.464	66.1285
18.548	65.9955
18.632	65.7253
18.716	65.431
18.8	65.2262
18.884	65.1907
18.968	65.3146
19.052	65.4796
19.136	65.5591
19.22	65.5431
19.304	65.536
19.388	65.6504
19.472	65.9249
19.556	66.2933
19.64	66.6109
19.724	66.7324
19.808	66.5985
19.892	66.267
19.976	65.8986
20.06	65.679
20.144	65.7063
20.228	65.9174
20.312	66.1412
20.396	66.2365
20.48	66.1885
20.564	66.0874
20.648	66.0233
20.732	66.0174
20.816	66.0345
20.9	66.0371
20.984	66.0103
21.068	65.9375
21.152	65.7754
21.236	65.4832
21.32	65.0685
21.404	64.6228
21.488	64.2836
21.572	64.1546
21.656	64.2642
21.74	64.561
21.824	64.9498
21.908	65.3324
21.992	65.6283
22.076	65.7886
22.16	65.805
22.244	65.7176
22.328	65.6231
22.412	65.6469
22.496	65.8861
22.58	66.3413
22.664	66.9043
22.748	67.3751
22.832	67.5643
22.916	67.3816
23	66.8675
23.084	66.1454
23.168	65.3887
23.252	64.7395
23.336	64.2801
23.42	64.0738
23.504	64.1847
23.588	64.6342
23.672	65.3695
23.756	66.2467
23.84	66.9893
23.924	67.3427
24.008	67.1949
24.092	66.6387
24.176	65.9775
24.26	65.6712
24.344	66.117
24.428	67.3445
24.512	68.9442
24.596	70.1416
24.68	70.1188
24.764	68.4487
24.848	65.3167
24.932	61.4771
25.016	57.9849
25.1	55.8323
25.184	55.8699
25.268	58.5415
25.352	63.8268
25.436	71.3794
25.52	80.4382
25.604	89.8458
25.688	98.1248
25.772	103.805
25.856	105.803
25.94	103.61
26.024	97.4739
26.108	88.4449
26.192	77.8916
26.276	67.1688
26.36	57.4191
26.444	49.5053
26.528	44.053
26.612	41.4563
26.696	41.9495
26.78	45.5455
26.864	51.8114
26.948	59.6251
27.028	66.6885

File: BZ12041010-4_t06_cm-1.asc
PE IR       SPECTRUM    SPECTRUM    ASCII       PEDS        1.60
  -1
BZABFF~1.ASC
17/04/10
09:19:46.00
17/04/10
09:19:46.00
tln
$BZ12041010-4_t0006$<tbV0>[5.2,-9.8,9.0,0.0,22,1,0]
370
64

2002,4.07
MIRTGS : RIGHTBACK : INTERNAL 2
MIR : ON : INTERNAL 2
OPTKBR

0.200000
8
8.000000
FILLER
RATIO
SPECTRUM
UNLOCKED 256

DOUBLE
64
COMBINED
1
0
0

1.000000
RATIO

1
0
TRUE
51149
0
LEFT NOT FITTED RIGHT NOT FITTED 0
NONE
NONE
15600
12
4.427000
51148
TRUE
1 0 8 72 0 0 0 0

15798

#HDR
-1
-1
#GR
CM-1
%T
2.38419e-05
0.0
5000
-1.000000
4631
8
105.742
41.4093
#DATA
5000	65.3397
4984	64.5117
4968	64.5139
4952	65.1331
4936	64.8151
4920	64.7511
4904	64.3257
4888	64.314
4872	64.2936
4856	64.319
4840	65.7809
4824	64.6785
4808	65.1752
4792	64.564
4776	64.5954
4760	64.9716
4744	64.6693
4728	64.6616
4712	65.5996
4696	63.9904
4680	64.2089
4664	65.2582
4648	65.9946
4632	65.1458
4616	64.9148
4600	64.6195
4584	64.772
4568	65.1199
4552	65.2588
4536	64.7622
4520	64.616
4504	65.3237
4488	59.0116
4472	56.1223
4456	74.72
4440	65.4197
4424	64.9448
4408	65.5037
4392	64.9762
4376	65.0228
4360	64.7296
4344	65.0701
4328	64.9549
4312	64.8587
4296	65.0052
4280	64.7954
4264	64.7609
4248	65.0307
4232	64.9249
4216	65.016
4200	64.8057
4184	65.1485
4168	65.1096
4152	64.849
4136	65.2378
4120	64.9361
4104	65.3949
4088	64.8401
4072	65.3182
4056	65.1628
4040	65.0748
4024	65.1321
4008	65.2626
3992	64.8932
3976	65.0836
3960	65.0762
3944	65.1367
3928	65.2765
3912	65.2009
3896	65.2647
3880	65.0956
3864	65.1708
3848	65.1969
3832	65.2404
3816	65.3296
3800	65.2133
3784	65.1342
3768	65.2678
3752	65.4372
3736	65.4341
3720	65.2922
3704	65.1843
3688	65.2396
3672	65.6533
3656	65.3532
3640	65.1495
3624	65.2639
3608	65.2468
3592	65.2489
3576	65.2602
3560	65.4688
3544	65.2926
3528	65.2167
3512	65.0634
3496	65.2295
3480	65.1565
3464	65.3102
3448	65.2388
3432	65.3225
3416	65.2262
3400	65.1391
3384	64.9974
3368	65.2676
3352	65.163
3336	65.0784
3320	65.1143
3304	65.0937
3288	65.2335
3272	65.2367
3256	65.2855
3240	65.2133
3224	65.1115
3208	65.1585
3192	65.2173
3176	65.0934
3160	65.2219
3144	65.1727
3128	65.1392
3112	65.1766
3096	65.1538
3080	65.1561
3064	65.1257
3048	65.1361
3032	65.0854
3016	65.126
3000	65.1979
2984	65.049
2968	65.2266
2952	65.0733
2936	65.0679
2920	65.0625
2904	65.1537
2888	65.0087
2872	65.0907
2856	65.2046
2840	65.2047
2824	65.0756
2808	65.2517
2792	65.2232
2776	65.175
2760	65.2636
2744	65.2539
2728	65.2156
2712	65.2108
2696	65.2977
2680	65.2169
2664	65.2275
2648	65.1881
2632	65.2337
2616	65.2223
2600	65.1719
2584	65.1179
2568	65.1851
2552	65.1639
2536	65.2222
2520	65.1262
2504	65.2092
2488	65.2165
2472	65.2737
2456	65.3352
2440	65.2182
2424	65.3303
2408	65.1323
2392	65.236
2376	65.339
2360	65.2806
2344	65.2824
2328	65.3115
2312	65.3298
2296	65.2737
2280	65.3601
2264	65.2839
2248	65.253
2232	65.2402
2216	65.3454
2200	65.1747
2184	65.2114
2168	65.2421
2152	65.259
2136	65.153
2120	65.2262
2104	65.1465
2088	65.2455
2072	65.267
2056	65.3001
2040	65.1534
2024	65.3336
2008	65.3113
1992	65.254
1976	65.3195
1960	65.2208
1944	65.2417
1928	65.2527
1912	65.152
1896	65.2346
1880	65.2169
1864	65.2712
1848	65.3969
1832	65.3573
1816	65.2962
1800	65.4062
1784	65.2804
1768	65.3735
1752	65.2654
1736	65.2361
1720	65.1834
1704	65.3557
1688	65.3
1672	65.309
1656	65.4828
1640	65.3378
1624	65.1714
1608	65.1825
1592	65.0512
1576	65.4614
1560	65.7539
1544	65.4654
1528	65.3636
1512	65.3965
1496	65.4146
1480	65.1354
1464	65.2549
1448	65.0485
1432	65.2706
1416	65.2228
1400	65.1353
1384	65.1135
1368	65.1044
1352	65.1046
1336	65.0856
1320	65.1935
1304	65.1984
1288	65.1023
1272	65.0932
1256	65.1617
1240	65.1318
1224	65.166
1208	65.1668
1192	65.0255
1176	65.0513
1160	65.0861
1144	65.0734
1128	65.2681
1112	64.9979
1096	64.8369
1080	65.0173
1064	65.0453
1048	65.2578
1032	64.9663
1016	65.132
1000	65.1985
984	 65.1065
968	 65.1017
952	 65.4074
936	 65.2886
920	 65.0835
904	 65.2665
888	 65.213
872	 65.4129
856	 65.3415
840	 65.179
824	 65.451
808	 65.5504
792	 65.6161
776	 65.8293
760	 65.5114
744	 65.3349
728	 65.4788
712	 65.3093
696	 65.2275
680	 65.3432
664	 65.7145
648	 65.4207
632	 65.3662
616	 65.6448
600	 65.5385
584	 65.8041
568	 66.0281
552	 65.5066
536	 65.6358
520	 65.5391
504	 66.4835
488	 66.1752
472	 65.6725
456	 65.4204
440	 67.2795
424	 64.6122
408	 68.9053
392	 79.3458
376	 41.7211
370	 66.6885

File: BZ12041010-4_t07.asc
PE IR       SPECTRUM    SPECTRUM    ASCII       PEDS        1.60
  -1
BZ46BA~1.ASC
17/04/10
09:24:22.00
17/04/10
09:24:49.00
tln
$BZ12041010-4_t0007$<tbV0>[2.6,-9.8,9.0,0.0,22,1,0]
27.028
64

2002,4.07
MIRTGS : RIGHTBACK : INTERNAL 2
MIR : ON : INTERNAL 2
OPTKBR

0.200000
8
8.000000
FILLER
RATIO
SPECTRUM
UNLOCKED 256

DOUBLE
64
COMBINED
1
0
0

0.002000
RATIO

1
0
TRUE
51149
0
LEFT NOT FITTED RIGHT NOT FITTED 0
NONE
NONE
15600
12
4.427000
51148
TRUE
1 0 8 72 0 0 0 0

15798

#HDR
-1
-1
#GR
µM
%T
2.38419e-05
0.0
2.000000
0.002000
12515
8
120.947
51.8071
#DATA
2.000000	 64.4613
2.084000	 64.6903
2.168000	 65.2842
2.252000	 65.5363
2.336000	 64.5703
2.420000	 64.7413
2.504000	 65.1569
2.588000	 65.0584
2.672000	 65.374
2.756000	 65.27
2.840000	 65.0291
2.924000	 65.1715
3.008000	 64.821
3.092000	 65.0701
3.176000	 65.1898
3.260000	 65.0077
3.344000	 65.0017
3.428000	 64.9241
3.512000	 65.1006
3.596000	 65.0822
3.680000	 65.1385
3.764000	 65.1948
3.848000	 65.1724
3.932000	 65.1562
4.016000	 65.1461
4.100000	 65.1607
4.184000	 65.1694
4.268000	 65.0409
4.352000	 65.17
4.436000	 65.2388
4.520000	 65.2451
4.604000	 65.2272
4.688000	 65.2183
4.772000	 65.2867
4.856000	 65.2852
4.940000	 65.2837
5.024000	 65.2255
5.108000	 65.1774
5.192000	 65.3067
5.276000	 65.2683
5.359999	 65.3233
5.444000	 65.2517
5.528000	 65.3231
5.612000	 65.2357
5.696000	 65.2937
5.780000	 65.1964
5.864000	 65.337
5.948000	 65.4672
6.032000	 65.3591
6.116000	 65.2186
6.200000	 65.3317
6.284000	 65.0058
6.368000	 65.1224
6.452000	 65.3403
6.536000	 65.2405
6.620000	 65.4045
6.704000	 65.2278
6.788000	 65.3094
6.872000	 65.2907
6.956000	 65.3437
7.040000	 65.3113
7.124000	 65.3292
7.208000	 65.1753
7.292000	 65.1441
7.376000	 65.2544
7.460000	 65.2699
7.544000	 65.1388
7.628000	 65.2718
7.712000	 65.1434
7.796000	 65.1304
7.880000	 65.1701
7.964000	 65.1112
8.048000	 65.2589
8.132000	 65.1976
8.216000	 65.2979
8.300000	 65.3458
8.384000	 65.0787
8.468000	 65.0474
8.552000	 65.1413
8.635999	 65.2098
8.719999	 65.0055
8.804000	 65.0272
8.888000	 65.0444
8.972000	 65.2007
9.056000	 65.1172
9.140000	 64.9624
9.224000	 65.1511
9.308000	 65.1055
9.391999	 65.1674
9.475999	 65.0774
9.560000	 65.1521
9.644000	 65.1483
9.728000	 65.0894
9.812000	 65.0199
9.896000	 65.1384
9.980000	 65.1915
10.064	65.2062
10.148	65.2016
10.232	65.1535
10.316	65.0541
10.4	65.2637
10.484	65.2551
10.568	65.1581
10.652	65.2097
10.736	65.3106
10.82	65.2902
10.904	65.257
10.988	65.275
11.072	65.4281
11.156	65.3279
11.24	65.3184
11.324	65.3985
11.408	65.1138
11.492	65.2927
11.576	65.47
11.66	65.4899
11.744	65.4746
11.828	65.3712
11.912	65.3739
11.996	65.402
12.08	65.1915
12.164	64.9821
12.248	65.1383
12.332	65.3342
12.416	65.3766
12.5	65.4298
12.584	65.4109
12.668	65.3153
12.752	65.4057
12.836	65.5515
12.92	65.5345
13.004	65.5454
13.088	65.5299
13.172	65.4553
13.256	65.2228
13.34	65.0841
13.424	65.0802
13.508	65.2421
13.592	65.3554
13.676	65.2109
13.76	65.1679
13.844	65.2062
13.928	65.2193
14.012	65.2863
14.096	65.4069
14.18	65.4831
14.264	65.3614
14.348	65.208
14.432	65.1946
14.516	65.2819
14.6	65.3825
14.684	65.4046
14.768	65.4899
14.852	65.6925
14.936	65.7067
15.02	65.4738
15.104	65.349
15.188	65.3906
15.272	65.4079
15.356	65.4088
15.44	65.4185
15.524	65.424
15.608	65.469
15.692	65.5228
15.776	65.4688
15.86	65.285
15.944	65.1505
16.028	65.2155
16.112	65.3724
16.196	65.498
16.28	65.6364
16.364	65.7446
16.448	65.681
16.532	65.5363
16.616	65.5174
16.7	65.6085
16.784	65.6935
16.868	65.7591
16.952	65.7916
17.036	65.7183
17.12	65.5611
17.204	65.4702
17.288	65.58
17.372	65.8969
17.456	66.2989
17.54	66.5933
17.624	66.6118
17.708	66.3435
17.792	65.9788
17.876	65.7685
17.96	65.7864
18.044	65.8938
18.128	65.9388
18.212	65.9366
18.296	65.9901
18.38	66.1008
18.464	66.1354
18.548	65.9882
18.632	65.7222
18.716	65.5158
18.8	65.5062
18.884	65.7043
18.968	66.011
19.052	66.267
19.136	66.3531
19.22	66.2768
19.304	66.1642
19.388	66.1528
19.472	66.2937
19.556	66.5129
19.64	66.6654
19.724	66.6528
19.808	66.4935
19.892	66.2927
19.976	66.1722
20.06	66.2072
20.144	66.3808
20.228	66.573
20.312	66.6326
20.396	66.4858
20.48	66.188
20.564	65.8758
20.648	65.669
20.732	65.6018
20.816	65.6288
20.9	65.6816
20.984	65.7277
21.068	65.7762
21.152	65.8408
21.236	65.9072
21.32	65.9393
21.404	65.9092
21.488	65.8151
21.572	65.6801
21.656	65.5359
21.74	65.4101
21.824	65.3119
21.908	65.236
21.992	65.1793
22.076	65.151
22.16	65.1746
22.244	65.2584
22.328	65.3663
22.412	65.4276
22.496	65.3742
22.58	65.185
22.664	64.9161
22.748	64.6871
22.832	64.5948
22.916	64.6869
23	64.9298
23.084	65.2465
23.168	65.5778
23.252	65.9229
23.336	66.3101
23.42	66.7417
23.504	67.1551
23.588	67.4085
23.672	67.3584
23.756	66.9718
23.84	66.3682
23.924	65.8386
24.008	65.7575
24.092	66.445
24.176	67.9884
24.26	70.2278
24.344	72.7595
24.428	75.0699
24.512	76.6181
24.596	77.0928
24.68	76.46
24.764	74.9481
24.848	73.0318
24.932	71.2559
25.016	70.0336
25.1	69.5993
25.184	70.082
25.268	71.5066
25.352	73.7951
25.436	76.6448
25.52	79.4867
25.604	81.5849
25.688	82.1264
25.772	80.516
25.856	76.6335
25.94	70.8661
26.024	64.1631
26.108	57.8888
26.192	53.3884
26.276	51.8115
26.36	53.9596
26.444	60.0314
26.528	69.5186
26.612	81.2714
26.696	93.7026
26.78	105.122
26.864	114.01
26.948	119.358
27.028	120.947