Folder: Masteroppgave/Bakgrunnsmateriale/MATLAB/FTIR/ftir_data/subCa/Mapping_25 (part 10)

File: BZ12041010-4_t20.asc
PE IR       SPECTRUM    SPECTRUM    ASCII       PEDS        1.60
  -1
BZ2EBE~1.ASC
17/04/10
10:32:24.00
17/04/10
10:32:50.00
tln
$BZ12041010-4_t0020$<tbV0>[-5.2,-4.6,9.0,0.0,22,1,0]
27.028
64

2002,4.07
MIRTGS : RIGHTBACK : INTERNAL 2
MIR : ON : INTERNAL 2
OPTKBR

0.200000
8
8.000000
FILLER
RATIO
SPECTRUM
UNLOCKED 256

DOUBLE
64
COMBINED
1
0
0

0.002000
RATIO

1
0
TRUE
51149
0
LEFT NOT FITTED RIGHT NOT FITTED 0
NONE
NONE
15600
12
4.427000
51148
TRUE
1 0 8 72 0 0 0 0

15798

#HDR
-1
-1
#GR
µM
%T
2.38419e-05
0.0
2.000000
0.002000
12515
8
98.8485
-7.298028
#DATA
2.000000	 65.0423
2.084000	 64.0861
2.168000	 64.7842
2.252000	 64.4094
2.336000	 64.7844
2.420000	 65.6432
2.504000	 65.119
2.588000	 65.1492
2.672000	 65.5125
2.756000	 65.4652
2.840000	 65.2216
2.924000	 65.1051
3.008000	 65.1982
3.092000	 65.373
3.176000	 65.2765
3.260000	 65.1777
3.344000	 65.3631
3.428000	 65.2794
3.512000	 65.3504
3.596000	 65.4644
3.680000	 65.4023
3.764000	 65.2656
3.848000	 65.3205
3.932000	 65.3068
4.016000	 65.3348
4.100000	 65.391
4.184000	 65.3857
4.268000	 65.368
4.352000	 65.3459
4.436000	 65.2157
4.520000	 65.3148
4.604000	 65.273
4.688000	 65.2208
4.772000	 65.2187
4.856000	 65.3235
4.940000	 65.35
5.024000	 65.3361
5.108000	 65.3564
5.192000	 65.2395
5.276000	 65.3814
5.359999	 65.3541
5.444000	 65.2316
5.528000	 65.2773
5.612000	 65.284
5.696000	 65.1724
5.780000	 65.1284
5.864000	 65.1768
5.948000	 65.1885
6.032000	 65.0946
6.116000	 65.2613
6.200000	 65.248
6.284000	 65.2567
6.368000	 65.2636
6.452000	 65.2339
6.536000	 65.116
6.620000	 65.2283
6.704000	 65.2754
6.788000	 65.3129
6.872000	 65.219
6.956000	 65.2419
7.040000	 65.1638
7.124000	 65.1554
7.208000	 65.1637
7.292000	 65.188
7.376000	 65.1215
7.460000	 65.1932
7.544000	 65.204
7.628000	 65.1509
7.712000	 65.1801
7.796000	 65.0775
7.880000	 65.2281
7.964000	 65.0446
8.048000	 65.1458
8.132000	 65.1121
8.216000	 65.1333
8.300000	 65.1394
8.384000	 65.0955
8.468000	 65.3177
8.552000	 65.2007
8.635999	 65.2015
8.719999	 65.2114
8.804000	 65.075
8.888000	 65.2437
8.972000	 65.1197
9.056000	 65.1662
9.140000	 65.1373
9.224000	 65.1138
9.308000	 64.8672
9.391999	 65.1515
9.475999	 65.2161
9.560000	 65.113
9.644000	 65.2569
9.728000	 65.1597
9.812000	 65.0691
9.896000	 65.1662
9.980000	 65.1525
10.064	65.2318
10.148	65.2425
10.232	65.4772
10.316	65.303
10.4	65.2121
10.484	65.3475
10.568	65.4691
10.652	65.3759
10.736	65.1726
10.82	65.2175
10.904	65.2192
10.988	65.219
11.072	65.2975
11.156	65.401
11.24	65.4345
11.324	65.32
11.408	65.4831
11.492	65.5266
11.576	65.5167
11.66	65.3548
11.744	65.3224
11.828	65.4873
11.912	65.4273
11.996	65.528
12.08	65.6407
12.164	65.4761
12.248	65.4247
12.332	65.443
12.416	65.4652
12.5	65.4754
12.584	65.259
12.668	65.2611
12.752	65.4724
12.836	65.6244
12.92	65.686
13.004	65.6691
13.088	65.7343
13.172	65.6524
13.256	65.5496
13.34	65.5715
13.424	65.5714
13.508	65.5426
13.592	65.5599
13.676	65.5473
13.76	65.5418
13.844	65.5329
13.928	65.535
14.012	65.5103
14.096	65.4182
14.18	65.3462
14.264	65.385
14.348	65.4834
14.432	65.4811
14.516	65.4454
14.6	65.4367
14.684	65.3192
14.768	65.2196
14.852	65.2175
14.936	65.2408
15.02	65.3582
15.104	65.4772
15.188	65.5079
15.272	65.5222
15.356	65.4933
15.44	65.3983
15.524	65.2891
15.608	65.2707
15.692	65.3871
15.776	65.4768
15.86	65.4587
15.944	65.4876
16.028	65.6229
16.112	65.7311
16.196	65.7512
16.28	65.7549
16.364	65.7847
16.448	65.8407
16.532	65.9462
16.616	66.0438
16.7	65.9955
16.784	65.8273
16.868	65.7305
16.952	65.7364
17.036	65.6591
17.12	65.4197
17.204	65.1898
17.288	65.1453
17.372	65.251
17.456	65.3428
17.54	65.3301
17.624	65.2888
17.708	65.3467
17.792	65.5097
17.876	65.6409
17.96	65.6238
18.044	65.5116
18.128	65.4949
18.212	65.6769
18.296	65.9453
18.38	66.0991
18.464	66.0522
18.548	65.8885
18.632	65.7661
18.716	65.769
18.8	65.8451
18.884	65.8902
18.968	65.8526
19.052	65.7624
19.136	65.6982
19.22	65.7382
19.304	65.9031
19.388	66.1366
19.472	66.3464
19.556	66.4778
19.64	66.5358
19.724	66.5239
19.808	66.4145
19.892	66.2015
19.976	65.944
20.06	65.7229
20.144	65.5991
20.228	65.6059
20.312	65.7243
20.396	65.8694
20.48	65.9305
20.564	65.8471
20.648	65.6435
20.732	65.4028
20.816	65.2151
20.9	65.148
20.984	65.2229
21.068	65.4025
21.152	65.5974
21.236	65.6999
21.32	65.6532
21.404	65.5057
21.488	65.3829
21.572	65.3909
21.656	65.5457
21.74	65.7703
21.824	65.9762
21.908	66.1614
21.992	66.4116
22.076	66.8123
22.16	67.343
22.244	67.8137
22.328	67.9986
22.412	67.7667
22.496	67.2202
22.58	66.6289
22.664	66.2515
22.748	66.175
22.832	66.272
22.916	66.2812
23	66.0082
23.084	65.4383
23.168	64.7759
23.252	64.3172
23.336	64.3072
23.42	64.8328
23.504	65.8204
23.588	67.1133
23.672	68.5823
23.756	70.1687
23.84	71.8767
23.924	73.6376
24.008	75.2333
24.092	76.2976
24.176	76.4126
24.26	75.3566
24.344	73.1987
24.428	70.2925
24.512	67.2502
24.596	64.5997
24.68	62.6197
24.764	61.2888
24.848	60.3757
24.932	59.6386
25.016	58.9935
25.1	58.5171
25.184	58.3172
25.268	58.3799
25.352	58.5126
25.436	58.3227
25.52	57.4131
25.604	55.6066
25.688	52.837
25.772	49.4036
25.856	45.8896
25.94	42.7974
26.024	39.7023
26.108	35.0028
26.192	27.6535
26.276	18.3104
26.36	10.9444
26.444	8.215234
26.528	9.997323
26.612	10.9136
26.696	6.720008
26.78	-1.895033
26.864	-7.284329
26.948	-0.750850
27.028	16.0314

File: BZ12041010-4_t20_cm-1.asc
PE IR       SPECTRUM    SPECTRUM    ASCII       PEDS        1.60
  -1
BZACF4~1.ASC
17/04/10
10:32:24.00
17/04/10
10:32:24.00
tln
$BZ12041010-4_t0020$<tbV0>[-5.2,-4.6,9.0,0.0,22,1,0]
370
64

2002,4.07
MIRTGS : RIGHTBACK : INTERNAL 2
MIR : ON : INTERNAL 2
OPTKBR

0.200000
8
8.000000
FILLER
RATIO
SPECTRUM
UNLOCKED 256

DOUBLE
64
COMBINED
1
0
0

1.000000
RATIO

1
0
TRUE
51149
0
LEFT NOT FITTED RIGHT NOT FITTED 0
NONE
NONE
15600
12
4.427000
51148
TRUE
1 0 8 72 0 0 0 0

15798

#HDR
-1
-1
#GR
CM-1
%T
2.38419e-05
0.0
5000
-1.000000
4631
8
99.7819
-7.064604
#DATA
5000	65.0423
4984	64.4214
4968	64.707
4952	64.883
4936	64.068
4920	64.9177
4904	65.1112
4888	65.0573
4872	66.1662
4856	66.6222
4840	64.7511
4824	66.7886
4808	65.2762
4792	64.1232
4776	65.9657
4760	66.0147
4744	65.5282
4728	65.8247
4712	65.3866
4696	65.7445
4680	65.4591
4664	64.9
4648	65.106
4632	64.357
4616	64.8809
4600	64.7744
4584	64.2745
4568	63.8157
4552	63.6366
4536	64.2466
4520	64.4801
4504	64.4167
4488	62.5822
4472	66.7811
4456	86.6941
4440	64.4613
4424	63.0746
4408	64.0611
4392	64.2186
4376	63.7819
4360	64.0584
4344	64.4128
4328	64.3746
4312	64.5279
4296	64.7895
4280	64.8232
4264	65.3571
4248	64.9775
4232	65.3415
4216	65.346
4200	65.2881
4184	65.1893
4168	65.5629
4152	65.5583
4136	65.6834
4120	65.5666
4104	65.8556
4088	65.2027
4072	65.6288
4056	65.3881
4040	65.2438
4024	65.0814
4008	65.1066
3992	65.1217
3976	65.1058
3960	65.0688
3944	64.8747
3928	65.1267
3912	65.1299
3896	65.1751
3880	65.1409
3864	65.1495
3848	65.3791
3832	65.0521
3816	65.1984
3800	65.1267
3784	65.2016
3768	65.3822
3752	65.3659
3736	65.4585
3720	65.5272
3704	65.4042
3688	65.3221
3672	65.3437
3656	65.3653
3640	65.4633
3624	65.4054
3608	65.3445
3592	65.5251
3576	65.3719
3560	65.3024
3544	65.2942
3528	65.2827
3512	65.2315
3496	65.2395
3480	65.2341
3464	65.0758
3448	65.2784
3432	65.1855
3416	65.1263
3400	65.2481
3384	65.174
3368	65.3527
3352	65.3689
3336	65.3949
3320	65.1659
3304	65.3372
3288	65.3653
3272	65.2184
3256	65.4897
3240	65.3511
3224	65.3792
3208	65.2718
3192	65.3843
3176	65.3277
3160	65.3437
3144	65.4079
3128	65.3226
3112	65.461
3096	65.3123
3080	65.1266
3064	65.1801
3048	65.1658
3032	65.2992
3016	65.2622
3000	65.2472
2984	65.3909
2968	65.3416
2952	65.1326
2936	65.2278
2920	65.1886
2904	65.3757
2888	65.2533
2872	65.3286
2856	65.2061
2840	65.3951
2824	65.4328
2808	65.3924
2792	65.4075
2776	65.3544
2760	65.2716
2744	65.2639
2728	65.3978
2712	65.2949
2696	65.2708
2680	65.3289
2664	65.3486
2648	65.2675
2632	65.2924
2616	65.3279
2600	65.3205
2584	65.32
2568	65.3589
2552	65.2445
2536	65.2778
2520	65.343
2504	65.3515
2488	65.3251
2472	65.3559
2456	65.3506
2440	65.3863
2424	65.4085
2408	65.4922
2392	65.3973
2376	65.3715
2360	65.3296
2344	65.3643
2328	65.4256
2312	65.3583
2296	65.3194
2280	65.222
2264	65.284
2248	65.2432
2232	65.2584
2216	65.3435
2200	65.2456
2184	65.196
2168	65.3163
2152	65.2674
2136	65.2269
2120	65.2889
2104	65.3176
2088	65.2809
2072	65.3243
2056	65.3288
2040	65.1956
2024	65.3561
2008	65.3079
1992	65.3116
1976	65.3829
1960	65.3595
1944	65.2591
1928	65.2599
1912	65.2927
1896	65.3773
1880	65.3539
1864	65.3251
1848	65.2663
1832	65.253
1816	65.3015
1800	65.2974
1784	65.299
1768	65.3593
1752	65.16
1736	65.1225
1720	65.1355
1704	65.1942
1688	65.1906
1672	65.2533
1656	65.12
1640	65.1809
1624	65.144
1608	65.2067
1592	65.2572
1576	65.2531
1560	65.3479
1544	65.061
1528	65.1114
1512	65.2545
1496	65.2835
1480	65.2603
1464	65.2578
1448	65.169
1432	65.2337
1416	65.0983
1400	65.2393
1384	65.1862
1368	65.2018
1352	65.121
1336	65.2035
1320	65.1371
1304	65.1337
1288	65.0913
1272	65.1933
1256	65.0479
1240	65.1429
1224	65.1282
1208	65.1085
1192	65.1152
1176	65.2839
1160	65.1845
1144	65.226
1128	65.2278
1112	65.1608
1096	65.0986
1080	64.939
1064	65.1654
1048	65.0985
1032	65.2174
1016	65.0699
1000	65.1646
984	 65.2998
968	 65.283
952	 65.4053
936	 65.302
920	 65.2276
904	 65.2771
888	 65.3952
872	 65.5248
856	 65.3216
840	 65.4365
824	 65.5268
808	 65.4533
792	 65.2019
776	 65.6847
760	 65.6756
744	 65.5624
728	 65.5423
712	 65.4793
696	 65.4948
680	 65.2822
664	 65.4268
648	 65.409
632	 65.4725
616	 65.7503
600	 66.0365
584	 65.4091
568	 65.2928
552	 65.4851
536	 65.7539
520	 65.7528
504	 66.3403
488	 65.9279
472	 65.656
456	 66.2158
440	 66.1691
424	 67.0622
408	 67.3258
392	 57.5643
376	 11.1271
370	 16.0314

File: BZ12041010-4_t21.asc
PE IR       SPECTRUM    SPECTRUM    ASCII       PEDS        1.60
  -1
BZ2EB2~1.ASC
17/04/10
10:44:32.00
17/04/10
10:44:59.00
tln
$BZ12041010-4_t0021$<tbV0>[5.2,-2.0,9.0,0.0,22,1,0]
27.028
64

2002,4.07
MIRTGS : RIGHTBACK : INTERNAL 2
MIR : ON : INTERNAL 2
OPTKBR

0.200000
8
8.000000
FILLER
RATIO
SPECTRUM
UNLOCKED 256

DOUBLE
64
COMBINED
1
0
0

0.002000
RATIO

1
0
TRUE
51149
0
LEFT NOT FITTED RIGHT NOT FITTED 0
NONE
NONE
15600
12
4.427000
51148
TRUE
1 0 8 72 0 0 0 0

15798

#HDR
-1
-1
#GR
µM
%T
2.38419e-05
0.0
2.000000
0.002000
12515
8
69.9232
34.6307
#DATA
2.000000	 53.7279
2.084000	 53.0213
2.168000	 53.4158
2.252000	 53.8416
2.336000	 54.1888
2.420000	 53.6979
2.504000	 53.8097
2.588000	 53.9138
2.672000	 53.7271
2.756000	 53.7085
2.840000	 53.7855
2.924000	 53.8186
3.008000	 53.8606
3.092000	 53.7817
3.176000	 53.7695
3.260000	 53.9608
3.344000	 53.6426
3.428000	 53.4606
3.512000	 53.6623
3.596000	 53.9196
3.680000	 53.7308
3.764000	 53.7013
3.848000	 53.9106
3.932000	 53.9135
4.016000	 53.7745
4.100000	 53.7603
4.184000	 53.7058
4.268000	 53.8457
4.352000	 53.8133
4.436000	 53.8023
4.520000	 53.7464
4.604000	 53.7323
4.688000	 53.7332
4.772000	 53.8354
4.856000	 53.8271
4.940000	 53.6715
5.024000	 53.731
5.108000	 53.5214
5.192000	 53.6378
5.276000	 53.5213
5.359999	 53.6124
5.444000	 53.6888
5.528000	 53.7304
5.612000	 53.7097
5.696000	 53.5364
5.780000	 53.3232
5.864000	 53.3457
5.948000	 53.3263
6.032000	 53.5062
6.116000	 53.3703
6.200000	 53.4828
6.284000	 53.5886
6.368000	 53.5801
6.452000	 53.5591
6.536000	 53.632
6.620000	 53.3966
6.704000	 53.4203
6.788000	 53.448
6.872000	 53.3496
6.956000	 53.3354
7.040000	 53.4321
7.124000	 53.3562
7.208000	 53.3524
7.292000	 53.5158
7.376000	 53.5373
7.460000	 53.5854
7.544000	 53.4837
7.628000	 53.7086
7.712000	 53.4868
7.796000	 53.4395
7.880000	 53.5302
7.964000	 53.3174
8.048000	 53.3386
8.132000	 53.3243
8.216000	 53.2039
8.300000	 53.2545
8.384000	 53.5946
8.468000	 53.3342
8.552000	 53.3376
8.635999	 53.5183
8.719999	 53.4705
8.804000	 53.4582
8.888000	 53.5772
8.972000	 53.5756
9.056000	 53.4234
9.140000	 53.2961
9.224000	 53.3485
9.308000	 53.1736
9.391999	 53.2335
9.475999	 53.2829
9.560000	 53.3945
9.644000	 53.5869
9.728000	 53.6232
9.812000	 53.6459
9.896000	 53.5827
9.980000	 53.6912
10.064	53.6062
10.148	53.5938
10.232	53.7157
10.316	53.6346
10.4	53.7871
10.484	53.5773
10.568	53.5319
10.652	53.7681
10.736	53.6472
10.82	53.6883
10.904	53.5134
10.988	53.57
11.072	53.6042
11.156	53.7623
11.24	53.6743
11.324	53.51
11.408	53.68
11.492	53.6888
11.576	53.6875
11.66	53.5621
11.744	53.5697
11.828	53.4895
11.912	53.5248
11.996	53.4984
12.08	53.4802
12.164	53.7486
12.248	53.8389
12.332	53.824
12.416	53.6427
12.5	53.4364
12.584	53.5009
12.668	53.5803
12.752	53.5118
12.836	53.4249
12.92	53.466
13.004	53.4776
13.088	53.482
13.172	53.5241
13.256	53.5532
13.34	53.5572
13.424	53.623
13.508	53.5888
13.592	53.3809
13.676	53.3151
13.76	53.4163
13.844	53.5302
13.928	53.6106
14.012	53.6266
14.096	53.5461
14.18	53.4072
14.264	53.3917
14.348	53.4453
14.432	53.4746
14.516	53.592
14.6	53.7915
14.684	53.9532
14.768	53.8988
14.852	53.6698
14.936	53.549
15.02	53.5796
15.104	53.6193
15.188	53.6743
15.272	53.7582
15.356	53.7839
15.44	53.7451
15.524	53.6846
15.608	53.5754
15.692	53.4287
15.776	53.3274
15.86	53.3158
15.944	53.3929
16.028	53.5035
16.112	53.5331
16.196	53.491
16.28	53.5385
16.364	53.7082
16.448	53.8545
16.532	53.8821
16.616	53.8322
16.7	53.8386
16.784	54.0286
16.868	54.3329
16.952	54.5299
17.036	54.5276
17.12	54.4435
17.204	54.4035
17.288	54.4022
17.372	54.3777
17.456	54.3314
17.54	54.328
17.624	54.3915
17.708	54.4479
17.792	54.4043
17.876	54.2537
17.96	54.0849
18.044	53.9935
18.128	54.0116
18.212	54.1258
18.296	54.2945
18.38	54.4304
18.464	54.4705
18.548	54.4548
18.632	54.446
18.716	54.4334
18.8	54.3817
18.884	54.3239
18.968	54.3438
19.052	54.4705
19.136	54.6251
19.22	54.6934
19.304	54.6347
19.388	54.5033
19.472	54.3824
19.556	54.3065
19.64	54.262
19.724	54.2378
19.808	54.2361
19.892	54.2283
19.976	54.1578
20.06	54.0132
20.144	53.8551
20.228	53.7502
20.312	53.6979
20.396	53.6535
20.48	53.6119
20.564	53.647
20.648	53.8445
20.732	54.1968
20.816	54.5722
20.9	54.7998
20.984	54.7848
21.068	54.5532
21.152	54.1946
21.236	53.7909
21.32	53.4021
21.404	53.0986
21.488	52.9704
21.572	53.0817
21.656	53.4194
21.74	53.8746
21.824	54.2781
21.908	54.4868
21.992	54.465
22.076	54.2938
22.16	54.1161
22.244	54.0412
22.328	54.0824
22.412	54.1741
22.496	54.2324
22.58	54.2206
22.664	54.165
22.748	54.1092
22.832	54.0454
22.916	53.9467
23	53.78
23.084	53.5713
23.168	53.401
23.252	53.3369
23.336	53.3908
23.42	53.5042
23.504	53.5898
23.588	53.5977
23.672	53.5301
23.756	53.4128
23.84	53.3181
23.924	53.3051
24.008	53.44
24.092	53.8506
24.176	54.7033
24.26	56.1738
24.344	58.3542
24.428	61.132
24.512	64.1248
24.596	66.8469
24.68	68.8368
24.764	69.8127
24.848	69.8205
24.932	69.2012
25.016	68.3802
25.1	67.5819
25.184	66.6871
25.268	65.2773
25.352	62.8743
25.436	59.1465
25.52	54.2234
25.604	48.7184
25.688	43.4436
25.772	39.1384
25.856	36.2665
25.94	34.8693
26.024	34.6799
26.108	35.3285
26.192	36.788
26.276	39.3515
26.36	43.4312
26.444	49.0518
26.528	55.528
26.612	61.3817
26.696	64.8427
26.78	64.5299
26.864	59.9934
26.948	51.9186
27.028	42.4068

File: BZ12041010-4_t21_cm-1.asc
PE IR       SPECTRUM    SPECTRUM    ASCII       PEDS        1.60
  -1
BZAC74~1.ASC
17/04/10
10:44:32.00
17/04/10
10:44:32.00
tln
$BZ12041010-4_t0021$<tbV0>[5.2,-2.0,9.0,0.0,22,1,0]
370
64

2002,4.07
MIRTGS : RIGHTBACK : INTERNAL 2
MIR : ON : INTERNAL 2
OPTKBR

0.200000
8
8.000000
FILLER
RATIO
SPECTRUM
UNLOCKED 256

DOUBLE
64
COMBINED
1
0
0

1.000000
RATIO

1
0
TRUE
51149
0
LEFT NOT FITTED RIGHT NOT FITTED 0
NONE
NONE
15600
12
4.427000
51148
TRUE
1 0 8 72 0 0 0 0

15798

#HDR
-1
-1
#GR
CM-1
%T
2.38419e-05
0.0
5000
-1.000000
4631
8
69.9213
34.671
#DATA
5000	53.7279
4984	53.414
4968	53.2657
4952	53.3153
4936	53.5702
4920	53.5863
4904	52.3454
4888	53.2777
4872	54.1949
4856	53.9496
4840	53.8663
4824	53.4727
4808	53.2955
4792	53.7873
4776	53.523
4760	53.6468
4744	53.9639
4728	53.606
4712	53.6774
4696	53.8917
4680	53.474
4664	53.2356
4648	53.4188
4632	53.4826
4616	53.7618
4600	53.5028
4584	53.812
4568	53.5696
4552	53.7781
4536	53.2481
4520	53.8009
4504	53.5369
4488	53.4673
4472	53.2521
4456	55.438
4440	53.8689
4424	53.9023
4408	53.4665
4392	53.3558
4376	53.5532
4360	54.101
4344	54.0321
4328	53.7287
4312	53.8777
4296	53.5553
4280	54.1752
4264	54.0055
4248	53.8007
4232	53.622
4216	53.6866
4200	53.3256
4184	53.7052
4168	53.7534
4152	53.9287
4136	53.533
4120	53.7801
4104	53.9783
4088	53.8695
4072	53.8999
4056	53.8163
4040	54.1776
4024	53.8437
4008	53.7568
3992	53.8101
3976	53.8033
3960	53.5577
3944	53.5968
3928	53.6202
3912	53.658
3896	53.6631
3880	53.7592
3864	53.9137
3848	53.7135
3832	53.8039
3816	53.8532
3800	53.8992
3784	54.0153
3768	53.776
3752	53.9338
3736	53.7175
3720	53.754
3704	53.5671
3688	53.7926
3672	53.7851
3656	53.7667
3640	53.7199
3624	53.842
3608	54.032
3592	53.9453
3576	53.9504
3560	53.8491
3544	53.9649
3528	53.988
3512	53.9331
3496	53.8053
3480	53.6461
3464	53.6892
3448	53.7325
3432	53.688
3416	53.9051
3400	53.7418
3384	53.7494
3368	53.8031
3352	53.9038
3336	53.8489
3320	53.938
3304	53.7642
3288	53.8487
3272	53.784
3256	53.9131
3240	53.6939
3224	53.7641
3208	53.7212
3192	53.4985
3176	53.6385
3160	53.6065
3144	53.7508
3128	53.7455
3112	53.7712
3096	53.8712
3080	53.9221
3064	53.9288
3048	53.8554
3032	53.9434
3016	53.7833
3000	53.7524
2984	53.6216
2968	53.4193
2952	53.6635
2936	53.5491
2920	53.4464
2904	53.7036
2888	53.7606
2872	53.7695
2856	53.7949
2840	53.7792
2824	53.9416
2808	53.8904
2792	53.8139
2776	53.8342
2760	53.7885
2744	53.8299
2728	53.751
2712	53.7354
2696	53.7129
2680	53.789
2664	53.7384
2648	53.7604
2632	53.7344
2616	53.8171
2600	53.912
2584	53.9438
2568	53.9633
2552	53.8237
2536	53.7567
2520	53.8782
2504	53.8348
2488	53.7761
2472	53.7899
2456	53.7544
2440	53.7529
2424	53.8308
2408	53.7746
2392	53.7142
2376	53.8504
2360	53.8691
2344	53.8586
2328	53.8296
2312	53.8455
2296	53.7916
2280	53.8143
2264	53.715
2248	53.849
2232	53.7632
2216	53.7163
2200	53.64
2184	53.6454
2168	53.7954
2152	53.8176
2136	53.718
2120	53.6978
2104	53.789
2088	53.8945
2072	53.776
2056	53.7698
2040	53.7566
2024	53.6723
2008	53.7508
1992	53.6987
1976	53.6619
1960	53.5059
1944	53.5379
1928	53.6487
1912	53.5611
1896	53.5224
1880	53.5731
1864	53.6193
1848	53.63
1832	53.7213
1816	53.6727
1800	53.7529
1784	53.7046
1768	53.5893
1752	53.5405
1736	53.2736
1720	53.3978
1704	53.3438
1688	53.4055
1672	53.3432
1656	53.4987
1640	53.3892
1624	53.511
1608	53.5389
1592	53.584
1576	53.5055
1560	53.5796
1544	53.549
1528	53.6386
1512	53.3813
1496	53.3764
1480	53.4577
1464	53.3712
1448	53.3948
1432	53.4424
1416	53.4111
1400	53.3827
1384	53.3755
1368	53.5171
1352	53.5631
1336	53.5217
1320	53.5902
1304	53.6291
1288	53.4754
1272	53.5031
1256	53.3178
1240	53.3215
1224	53.3092
1208	53.15
1192	53.5735
1176	53.3244
1160	53.4681
1144	53.4721
1128	53.563
1112	53.5333
1096	53.2842
1080	53.3254
1064	53.2483
1048	53.3278
1032	53.6426
1016	53.6596
1000	53.7017
984	 53.6092
968	 53.6441
952	 53.5146
936	 53.736
920	 53.5767
904	 53.5905
888	 53.617
872	 53.69
856	 53.5621
840	 53.5201
824	 53.6574
808	 53.7486
792	 53.5617
776	 53.4422
760	 53.5162
744	 53.6338
728	 53.3821
712	 53.6086
696	 53.4511
680	 53.9652
664	 53.6012
648	 53.7498
632	 53.3093
616	 53.4934
600	 53.8186
584	 54.4407
568	 54.3744
552	 54.0025
536	 54.4449
520	 54.6927
504	 54.2372
488	 53.61
472	 54.0308
456	 54.5021
440	 54.1229
424	 53.5988
408	 64.0488
392	 54.8378
376	 60.4012
370	 42.4068

File: BZ12041010-4_t22.asc
PE IR       SPECTRUM    SPECTRUM    ASCII       PEDS        1.60
  -1
BZ2EB6~1.ASC
17/04/10
10:49:10.00
17/04/10
10:49:36.00
tln
$BZ12041010-4_t0022$<tbV0>[2.6,-2.0,9.0,0.0,22,1,0]
27.028
64

2002,4.07
MIRTGS : RIGHTBACK : INTERNAL 2
MIR : ON : INTERNAL 2
OPTKBR

0.200000
8
8.000000
FILLER
RATIO
SPECTRUM
UNLOCKED 256

DOUBLE
64
COMBINED
1
0
0

0.002000
RATIO

1
0
TRUE
51149
0
LEFT NOT FITTED RIGHT NOT FITTED 0
NONE
NONE
15600
12
4.427000
51148
TRUE
1 0 8 72 0 0 0 0

15798

#HDR
-1
-1
#GR
µM
%T
2.38419e-05
0.0
2.000000
0.002000
12515
8
71.9348
22.5837
#DATA
2.000000	 54.9497
2.084000	 55.3784
2.168000	 55.362
2.252000	 56.4199
2.336000	 55.7815
2.420000	 54.8259
2.504000	 55.1598
2.588000	 55.3553
2.672000	 55.1216
2.756000	 55.2954
2.840000	 55.1323
2.924000	 55.0712
3.008000	 55.1843
3.092000	 55.0332
3.176000	 55.2527
3.260000	 55.3828
3.344000	 55.1484
3.428000	 54.8909
3.512000	 55.2167
3.596000	 55.3648
3.680000	 55.152
3.764000	 55.038
3.848000	 55.2772
3.932000	 55.3313
4.016000	 55.1616
4.100000	 55.2128
4.184000	 55.0859
4.268000	 55.355
4.352000	 55.2827
4.436000	 55.1321
4.520000	 55.2292
4.604000	 55.2782
4.688000	 55.33
4.772000	 55.2541
4.856000	 55.2535
4.940000	 55.1482
5.024000	 55.312
5.108000	 55.1413
5.192000	 55.1736
5.276000	 55.1751
5.359999	 55.2706
5.444000	 55.3418
5.528000	 55.3751
5.612000	 55.1468
5.696000	 55.1474
5.780000	 54.8944
5.864000	 54.8589
5.948000	 54.9256
6.032000	 55.1592
6.116000	 55.2534
6.200000	 55.1679
6.284000	 55.18
6.368000	 55.2694
6.452000	 55.2713
6.536000	 55.1436
6.620000	 55.0553
6.704000	 55.1393
6.788000	 54.9362
6.872000	 54.8607
6.956000	 54.8888
7.040000	 54.8851
7.124000	 55.0429
7.208000	 54.9353
7.292000	 54.926
7.376000	 55.0299
7.460000	 55.1331
7.544000	 54.9463
7.628000	 55.0665
7.712000	 54.9866
7.796000	 55.0408
7.880000	 55.2286
7.964000	 55.0305
8.048000	 55.0387
8.132000	 55.1083
8.216000	 55.0363
8.300000	 55.05
8.384000	 55.1901
8.468000	 54.9512
8.552000	 54.9902
8.635999	 54.7657
8.719999	 55.0215
8.804000	 55.0704
8.888000	 55.2256
8.972000	 55.0131
9.056000	 55.1181
9.140000	 55.0408
9.224000	 54.9718
9.308000	 54.8499
9.391999	 54.8452
9.475999	 55.1282
9.560000	 54.9762
9.644000	 55.1078
9.728000	 55.0053
9.812000	 54.9227
9.896000	 55.0832
9.980000	 55.1711
10.064	55.091
10.148	54.9629
10.232	54.9449
10.316	55.0048
10.4	55.1566
10.484	55.1221
10.568	55.0127
10.652	54.9998
10.736	55.0925
10.82	55.0781
10.904	54.907
10.988	54.8568
11.072	54.7877
11.156	55.0669
11.24	55.1026
11.324	55.0191
11.408	55.2342
11.492	55.0715
11.576	55.0805
11.66	55.1313
11.744	55.0029
11.828	55.0617
11.912	55.0868
11.996	55.1035
12.08	55.0665
12.164	54.9005
12.248	54.9725
12.332	55.2446
12.416	55.1403
12.5	54.8951
12.584	54.9189
12.668	54.9133
12.752	54.8049
12.836	54.8317
12.92	54.9448
13.004	54.8673
13.088	54.72
13.172	54.8676
13.256	55.0556
13.34	55.0927
13.424	55.0982
13.508	55.1645
13.592	55.1937
13.676	55.1624
13.76	55.1026
13.844	55.0462
13.928	55.0977
14.012	54.9698
14.096	54.7487
14.18	54.7131
14.264	54.8942
14.348	55.1346
14.432	55.1941
14.516	55.1434
14.6	55.1328
14.684	55.1236
14.768	55.0238
14.852	54.9195
14.936	54.8942
15.02	54.8965
15.104	54.9184
15.188	55.0109
15.272	55.1151
15.356	55.1296
15.44	55.0909
15.524	55.0411
15.608	54.9982
15.692	55.0135
15.776	55.0062
15.86	54.9084
15.944	54.8661
16.028	54.968
16.112	55.1033
16.196	55.1334
16.28	54.9726
16.364	54.701
16.448	54.593
16.532	54.7611
16.616	54.9644
16.7	54.9833
16.784	54.9289
16.868	55.0234
16.952	55.2917
17.036	55.5521
17.12	55.6372
17.204	55.5617
17.288	55.4121
17.372	55.2275
17.456	55.0733
17.54	55.0661
17.624	55.2405
17.708	55.4699
17.792	55.5821
17.876	55.4985
17.96	55.2965
18.044	55.1424
18.128	55.154
18.212	55.3248
18.296	55.5692
18.38	55.7815
18.464	55.8846
18.548	55.8704
18.632	55.7906
18.716	55.7112
18.8	55.6633
18.884	55.6243
18.968	55.5768
19.052	55.5728
19.136	55.6594
19.22	55.7857
19.304	55.8363
19.388	55.7544
19.472	55.5843
19.556	55.4147
19.64	55.3087
19.724	55.2898
19.808	55.3301
19.892	55.3419
19.976	55.2505
20.06	55.1125
20.144	55.0917
20.228	55.2919
20.312	55.6446
20.396	55.9698
20.48	56.1109
20.564	56.0276
20.648	55.7704
20.732	55.4285
20.816	55.0798
20.9	54.7912
20.984	54.5958
21.068	54.4882
21.152	54.4438
21.236	54.4203
21.32	54.3753
21.404	54.2705
21.488	54.1307
21.572	54.0604
21.656	54.1982
21.74	54.6361
21.824	55.3501
21.908	56.2104
21.992	57.0742
22.076	57.8558
22.16	58.5176
22.244	58.98
22.328	59.1073
22.412	58.7566
22.496	57.8693
22.58	56.5413
22.664	54.9979
22.748	53.5288
22.832	52.3863
22.916	51.7829
23	51.8224
23.084	52.4877
23.168	53.5808
23.252	54.777
23.336	55.7365
23.42	56.3023
23.504	56.5523
23.588	56.7198
23.672	56.9686
23.756	57.2062
23.84	57.1471
23.924	56.4977
24.008	55.2074
24.092	53.6091
24.176	52.3361
24.26	52.0624
24.344	53.2446
24.428	55.8568
24.512	59.3826
24.596	63.0733
24.68	66.2669
24.764	68.6473
24.848	70.2572
24.932	71.2955
25.016	71.865
25.1	71.7949
25.184	70.7913
25.268	68.6942
25.352	65.6545
25.436	62.2041
25.52	59.0771
25.604	56.8841
25.688	55.9366
25.772	56.107
25.856	56.9392
25.94	57.8574
26.024	58.3884
26.108	58.3512
26.192	57.8187
26.276	56.9771
26.36	56.0067
26.444	54.8828
26.528	53.3285
26.612	50.9623
26.696	47.4036
26.78	42.4889
26.864	36.331
26.948	29.347
27.028	22.5837