Folder: Masteroppgave/Bakgrunnsmateriale/MATLAB/FTIR/ftir_data/subCa/Mapping_25 (part 7)

File: BZ12041010-4_t12_cm-1.asc
PE IR       SPECTRUM    SPECTRUM    ASCII       PEDS        1.60
  -1
BZ2CF1~1.ASC
17/04/10
09:55:10.00
17/04/10
09:55:10.00
tln
$BZ12041010-4_t0012$<tbV0>[2.6,-7.2,9.0,0.0,22,1,0]
370
64

2002,4.07
MIRTGS : RIGHTBACK : INTERNAL 2
MIR : ON : INTERNAL 2
OPTKBR

0.200000
8
8.000000
FILLER
RATIO
SPECTRUM
UNLOCKED 256

DOUBLE
64
COMBINED
1
0
0

1.000000
RATIO

1
0
TRUE
51149
0
LEFT NOT FITTED RIGHT NOT FITTED 0
NONE
NONE
15600
12
4.427000
51148
TRUE
1 0 8 72 0 0 0 0

15798

#HDR
-1
-1
#GR
CM-1
%T
2.38419e-05
0.0
5000
-1.000000
4631
8
153.093
37.1085
#DATA
5000	64.8086
4984	64.5729
4968	65.1134
4952	65.3092
4936	64.577
4920	65.538
4904	64.0296
4888	64.5824
4872	62.7432
4856	62.8054
4840	64.007
4824	66.0924
4808	65.4053
4792	64.2598
4776	65.3689
4760	64.7794
4744	65.4609
4728	65.6745
4712	65.0455
4696	64.9407
4680	65.1744
4664	65.0669
4648	64.9292
4632	64.9297
4616	64.8981
4600	64.4863
4584	65.0384
4568	64.7162
4552	64.4415
4536	64.5423
4520	64.5655
4504	64.7187
4488	65.0689
4472	65.4628
4456	80.225
4440	64.4544
4424	64.0567
4408	64.3953
4392	64.5429
4376	64.3803
4360	64.7884
4344	64.5972
4328	64.8674
4312	64.7614
4296	64.9078
4280	64.9388
4264	65.0569
4248	64.9187
4232	64.8627
4216	65.0674
4200	64.9877
4184	65.2458
4168	65.4173
4152	65.0794
4136	65.1835
4120	65.1551
4104	65.3413
4088	65.4567
4072	65.4268
4056	65.2132
4040	65.1312
4024	64.9321
4008	65.1455
3992	65.0308
3976	64.7373
3960	65.1295
3944	65.1086
3928	65.3651
3912	65.0666
3896	64.9875
3880	65.1139
3864	65.348
3848	65.1815
3832	65.0056
3816	65.2003
3800	65.1499
3784	65.2465
3768	65.1536
3752	65.1139
3736	65.1065
3720	65.3366
3704	65.3872
3688	65.5636
3672	65.2851
3656	65.1196
3640	65.1721
3624	65.1604
3608	65.2714
3592	65.3646
3576	65.3336
3560	65.2162
3544	65.161
3528	65.2302
3512	65.1419
3496	65.3489
3480	65.1
3464	65.0311
3448	65.0784
3432	65.2867
3416	65.1617
3400	65.2289
3384	65.1334
3368	65.3504
3352	65.2763
3336	65.371
3320	65.1748
3304	65.2461
3288	65.2574
3272	65.1742
3256	65.4257
3240	65.1957
3224	65.3926
3208	65.2089
3192	65.1859
3176	65.3716
3160	65.4296
3144	65.245
3128	65.299
3112	65.3671
3096	65.3268
3080	65.2098
3064	65.1971
3048	65.3192
3032	65.2071
3016	65.2128
3000	65.1738
2984	65.2717
2968	65.3438
2952	65.2397
2936	65.2144
2920	65.0282
2904	65.2913
2888	65.1934
2872	65.2809
2856	65.0963
2840	65.253
2824	65.3174
2808	65.3868
2792	65.2003
2776	65.2807
2760	65.1789
2744	65.2197
2728	65.3774
2712	65.3137
2696	65.3163
2680	65.2446
2664	65.3914
2648	65.3046
2632	65.3121
2616	65.3654
2600	65.3
2584	65.1788
2568	65.3593
2552	65.282
2536	65.3095
2520	65.2049
2504	65.2838
2488	65.3483
2472	65.2594
2456	65.3024
2440	65.3951
2424	65.3493
2408	65.3605
2392	65.3634
2376	65.2697
2360	65.3997
2344	65.2397
2328	65.353
2312	65.3394
2296	65.3533
2280	65.2114
2264	65.2794
2248	65.2224
2232	65.2853
2216	65.2247
2200	65.231
2184	65.374
2168	65.388
2152	65.2222
2136	65.2185
2120	65.3158
2104	65.4169
2088	65.2118
2072	65.4138
2056	65.2779
2040	65.2906
2024	65.2996
2008	65.2691
1992	65.227
1976	65.2652
1960	65.3082
1944	65.3281
1928	65.3473
1912	65.2673
1896	65.3356
1880	65.3141
1864	65.2121
1848	65.2809
1832	65.254
1816	65.3044
1800	65.2977
1784	65.1807
1768	65.2989
1752	65.1514
1736	65.1422
1720	65.1175
1704	65.2975
1688	65.3361
1672	65.1683
1656	65.1894
1640	65.1355
1624	65.213
1608	65.2207
1592	65.2071
1576	65.127
1560	65.1108
1544	65.1063
1528	65.1984
1512	65.166
1496	65.3075
1480	65.1669
1464	65.2258
1448	65.1429
1432	65.1652
1416	65.1761
1400	65.2655
1384	65.2059
1368	65.3615
1352	65.1898
1336	65.2368
1320	65.2229
1304	65.1849
1288	65.2131
1272	65.2045
1256	65.102
1240	65.1132
1224	65.1658
1208	65.1486
1192	65.1568
1176	65.141
1160	65.2458
1144	65.1481
1128	65.0768
1112	65.0523
1096	65.1403
1080	65.0354
1064	65.1072
1048	65.0661
1032	65.1322
1016	64.9804
1000	65.1666
984	 65.3093
968	 65.3444
952	 65.3785
936	 65.217
920	 65.1672
904	 65.2507
888	 65.4386
872	 65.3109
856	 65.4316
840	 65.3208
824	 65.5182
808	 65.4114
792	 65.041
776	 65.4536
760	 65.4002
744	 65.4508
728	 65.3329
712	 65.1981
696	 65.4502
680	 65.4647
664	 65.6067
648	 65.3484
632	 65.4066
616	 65.6379
600	 65.4891
584	 65.3042
568	 65.3827
552	 66.0147
536	 65.6281
520	 65.8579
504	 65.6362
488	 65.4202
472	 66.1372
456	 66.1908
440	 67.6123
424	 66.7813
408	 77.5083
392	 65.6941
376	 73.7093
370	 150.538

File: BZ12041010-4_t13.asc
PE IR       SPECTRUM    SPECTRUM    ASCII       PEDS        1.60
  -1
BZ3ABA~1.ASC
17/04/10
09:59:47.00
17/04/10
10:00:13.00
tln
$BZ12041010-4_t0013$<tbV0>[0.0,-7.2,9.0,0.0,22,1,0]
27.028
64

2002,4.07
MIRTGS : RIGHTBACK : INTERNAL 2
MIR : ON : INTERNAL 2
OPTKBR

0.200000
8
8.000000
FILLER
RATIO
SPECTRUM
UNLOCKED 256

DOUBLE
64
COMBINED
1
0
0

0.002000
RATIO

1
0
TRUE
51149
0
LEFT NOT FITTED RIGHT NOT FITTED 0
NONE
NONE
15600
12
4.427000
51148
TRUE
1 0 8 72 0 0 0 0

15798

#HDR
-1
-1
#GR
µM
%T
2.38419e-05
0.0
2.000000
0.002000
12515
8
91.5641
13.1424
#DATA
2.000000	 64.9
2.084000	 64.232
2.168000	 64.3455
2.252000	 62.5042
2.336000	 65.0083
2.420000	 65.2712
2.504000	 64.9239
2.588000	 65.2793
2.672000	 65.3521
2.756000	 65.3321
2.840000	 65.3184
2.924000	 65.0051
3.008000	 65.2399
3.092000	 65.1997
3.176000	 65.2344
3.260000	 65.1285
3.344000	 65.2871
3.428000	 65.1409
3.512000	 65.335
3.596000	 65.4244
3.680000	 65.3704
3.764000	 65.2603
3.848000	 65.2245
3.932000	 65.2131
4.016000	 65.3598
4.100000	 65.4063
4.184000	 65.3291
4.268000	 65.2853
4.352000	 65.2863
4.436000	 65.2791
4.520000	 65.2814
4.604000	 65.3703
4.688000	 65.1559
4.772000	 65.2447
4.856000	 65.25
4.940000	 65.2443
5.024000	 65.3477
5.108000	 65.3515
5.192000	 65.287
5.276000	 65.2341
5.359999	 65.2741
5.444000	 65.3737
5.528000	 65.3059
5.612000	 65.2444
5.696000	 65.2108
5.780000	 65.1203
5.864000	 65.2783
5.948000	 65.204
6.032000	 65.1878
6.116000	 65.2489
6.200000	 65.1954
6.284000	 65.1907
6.368000	 65.1756
6.452000	 65.1814
6.536000	 65.2446
6.620000	 65.1429
6.704000	 65.151
6.788000	 65.2361
6.872000	 65.1172
6.956000	 65.3326
7.040000	 65.1279
7.124000	 65.1702
7.208000	 65.2923
7.292000	 65.2239
7.376000	 65.1567
7.460000	 65.1007
7.544000	 65.1691
7.628000	 65.1729
7.712000	 65.0628
7.796000	 65.1584
7.880000	 65.1053
7.964000	 65.0614
8.048000	 65.0701
8.132000	 65.269
8.216000	 65.0464
8.300000	 65.1067
8.384000	 65.0536
8.468000	 65.0895
8.552000	 65.1445
8.635999	 65.1825
8.719999	 65.2676
8.804000	 65.0255
8.888000	 65.1043
8.972000	 64.9519
9.056000	 65.089
9.140000	 65.1967
9.224000	 65.0624
9.308000	 64.9917
9.391999	 65.2172
9.475999	 65.1346
9.560000	 65.2772
9.644000	 65.3335
9.728000	 65.0649
9.812000	 65.1205
9.896000	 65.1572
9.980000	 65.0707
10.064	65.1572
10.148	65.1002
10.232	65.2783
10.316	65.2472
10.4	65.189
10.484	65.1976
10.568	65.3544
10.652	65.3361
10.736	65.2635
10.82	65.3175
10.904	65.3437
10.988	65.3031
11.072	65.3184
11.156	65.4086
11.24	65.2241
11.324	65.1561
11.408	65.1908
11.492	65.2865
11.576	65.2908
11.66	65.2804
11.744	65.3165
11.828	65.4359
11.912	65.3433
11.996	65.3647
12.08	65.4512
12.164	65.3176
12.248	65.2605
12.332	65.2143
12.416	65.2726
12.5	65.3269
12.584	65.3661
12.668	65.5565
12.752	65.5842
12.836	65.4218
12.92	65.4736
13.004	65.4508
13.088	65.3227
13.172	65.3848
13.256	65.551
13.34	65.5951
13.424	65.4532
13.508	65.335
13.592	65.3072
13.676	65.2836
13.76	65.1961
13.844	65.3498
13.928	65.527
14.012	65.4434
14.096	65.3061
14.18	65.2173
14.264	65.1052
14.348	65.0672
14.432	65.2112
14.516	65.3151
14.6	65.3527
14.684	65.5051
14.768	65.6051
14.852	65.5101
14.936	65.4556
15.02	65.5146
15.104	65.5528
15.188	65.6122
15.272	65.6473
15.356	65.5356
15.44	65.3492
15.524	65.206
15.608	65.159
15.692	65.1757
15.776	65.22
15.86	65.3128
15.944	65.415
16.028	65.4718
16.112	65.5011
16.196	65.514
16.28	65.5324
16.364	65.6374
16.448	65.8664
16.532	66.1038
16.616	66.1769
16.7	66.0252
16.784	65.7405
16.868	65.5
16.952	65.4306
17.036	65.5032
17.12	65.544
17.204	65.3956
17.288	65.1336
17.372	65.0194
17.456	65.1552
17.54	65.3478
17.624	65.4304
17.708	65.4894
17.792	65.6367
17.876	65.8008
17.96	65.8756
18.044	65.9022
18.128	65.9846
18.212	66.1102
18.296	66.18
18.38	66.1586
18.464	66.0835
18.548	65.9852
18.632	65.8943
18.716	65.844
18.8	65.8224
18.884	65.7876
18.968	65.7174
19.052	65.6243
19.136	65.5588
19.22	65.5986
19.304	65.79
19.388	66.079
19.472	66.3337
19.556	66.4575
19.64	66.46
19.724	66.3866
19.808	66.2431
19.892	66.0333
19.976	65.8068
20.06	65.6199
20.144	65.4854
20.228	65.3905
20.312	65.3417
20.396	65.37
20.48	65.4941
20.564	65.6825
20.648	65.8458
20.732	65.8896
20.816	65.774
20.9	65.5408
20.984	65.2674
21.068	65.022
21.152	64.8425
21.236	64.7387
21.32	64.6971
21.404	64.6837
21.488	64.6731
21.572	64.6695
21.656	64.7151
21.74	64.8725
21.824	65.1787
21.908	65.6243
21.992	66.1635
22.076	66.7291
22.16	67.2535
22.244	67.6594
22.328	67.872
22.412	67.8532
22.496	67.629
22.58	67.2602
22.664	66.7972
22.748	66.2773
22.832	65.7485
22.916	65.2668
23	64.9741
23.084	65.027
23.168	65.5537
23.252	66.5808
23.336	67.998
23.42	69.5605
23.504	70.9474
23.588	71.8315
23.672	71.9952
23.756	71.4516
23.84	70.4669
23.924	69.4728
24.008	68.8327
24.092	68.6083
24.176	68.4482
24.26	67.7307
24.344	65.8201
24.428	62.4903
24.512	58.14
24.596	53.6305
24.68	50.0082
24.764	48.1043
24.848	48.1422
24.932	49.7977
25.016	52.4084
25.1	55.3543
25.184	58.0793
25.268	60.278
25.352	61.9698
25.436	63.0705
25.52	63.3236
25.604	62.4162
25.688	60.6044
25.772	58.1383
25.856	54.8342
25.94	50.2989
26.024	45.2288
26.108	42.1027
26.192	42.0484
26.276	43.7904
26.36	42.0239
26.444	34.0797
26.528	21.7041
26.612	13.5304
26.696	16.1016
26.78	28.2455
26.864	38.8125
26.948	35.9288
27.028	23.1533

File: BZ12041010-4_t13_cm-1.asc
PE IR       SPECTRUM    SPECTRUM    ASCII       PEDS        1.60
  -1
BZ2C7F~1.ASC
17/04/10
09:59:47.00
17/04/10
09:59:47.00
tln
$BZ12041010-4_t0013$<tbV0>[0.0,-7.2,9.0,0.0,22,1,0]
370
64

2002,4.07
MIRTGS : RIGHTBACK : INTERNAL 2
MIR : ON : INTERNAL 2
OPTKBR

0.200000
8
8.000000
FILLER
RATIO
SPECTRUM
UNLOCKED 256

DOUBLE
64
COMBINED
1
0
0

1.000000
RATIO

1
0
TRUE
51149
0
LEFT NOT FITTED RIGHT NOT FITTED 0
NONE
NONE
15600
12
4.427000
51148
TRUE
1 0 8 72 0 0 0 0

15798

#HDR
-1
-1
#GR
CM-1
%T
2.38419e-05
0.0
5000
-1.000000
4631
8
91.5871
13.9042
#DATA
5000	64.9
4984	64.5365
4968	64.5094
4952	65.0929
4936	64.1198
4920	64.8766
4904	65.4243
4888	65.0492
4872	66.7281
4856	66.1046
4840	65.355
4824	65.1699
4808	65.6388
4792	64.7392
4776	65.9576
4760	65.4292
4744	65.3591
4728	65.5037
4712	65.1633
4696	65.1775
4680	64.959
4664	65.0458
4648	64.8533
4632	64.4686
4616	64.3603
4600	64.1261
4584	64.1672
4568	63.6895
4552	63.2959
4536	63.6501
4520	64.2039
4504	63.8364
4488	64.4542
4472	69.677
4456	91.5871
4440	62.5042
4424	63.0153
4408	63.637
4392	63.9601
4376	63.7709
4360	64.1215
4344	63.8464
4328	64.3867
4312	64.4694
4296	64.9967
4280	65.0288
4264	65.0763
4248	65.2496
4232	65.458
4216	65.2569
4200	65.2818
4184	65.5644
4168	65.5583
4152	65.1265
4136	65.3728
4120	65.3398
4104	65.3636
4088	65.5425
4072	65.4743
4056	65.1011
4040	65.3071
4024	65.1014
4008	65.2459
3992	64.9398
3976	64.9841
3960	64.8717
3944	64.9301
3928	64.9717
3912	64.9626
3896	65.1168
3880	65.0455
3864	65.2797
3848	65.1108
3832	65.0142
3816	65.2491
3800	65.1312
3784	65.3008
3768	65.1784
3752	65.3079
3736	65.3102
3720	65.3981
3704	65.4234
3688	65.3091
3672	65.3603
3656	65.3682
3640	65.3142
3624	65.3913
3608	65.3584
3592	65.345
3576	65.2972
3560	65.3137
3544	65.3211
3528	65.2183
3512	65.0905
3496	65.3101
3480	65.1008
3464	65.1472
3448	65.2282
3432	65.0829
3416	65.0355
3400	65.2485
3384	65.1903
3368	65.2473
3352	65.2949
3336	65.3192
3320	65.3041
3304	65.3318
3288	65.3256
3272	65.1296
3256	65.2819
3240	65.392
3224	65.2388
3208	65.2739
3192	65.431
3176	65.3204
3160	65.2012
3144	65.2753
3128	65.4527
3112	65.3577
3096	65.3345
3080	65.1342
3064	65.1417
3048	65.1909
3032	65.3205
3016	65.1672
3000	65.287
2984	65.1808
2968	65.1823
2952	65.2102
2936	65.0553
2920	65.1402
2904	65.3322
2888	65.3705
2872	65.4145
2856	65.2405
2840	65.3121
2824	65.2913
2808	65.3714
2792	65.3932
2776	65.2853
2760	65.3715
2744	65.3011
2728	65.3658
2712	65.351
2696	65.2997
2680	65.1968
2664	65.3469
2648	65.2654
2632	65.2544
2616	65.1821
2600	65.2292
2584	65.2155
2568	65.244
2552	65.243
2536	65.1685
2520	65.3001
2504	65.249
2488	65.3538
2472	65.2138
2456	65.3799
2440	65.403
2424	65.3277
2408	65.4345
2392	65.3377
2376	65.3085
2360	65.2615
2344	65.2742
2328	65.3453
2312	65.3493
2296	65.2709
2280	65.1835
2264	65.3518
2248	65.3412
2232	65.3038
2216	65.2902
2200	65.2771
2184	65.2407
2168	65.3495
2152	65.1492
2136	65.1934
2120	65.2873
2104	65.2831
2088	65.2361
2072	65.2093
2056	65.2812
2040	65.1642
2024	65.2459
2008	65.3478
1992	65.3294
1976	65.3265
1960	65.3476
1944	65.2981
1928	65.3108
1912	65.2978
1896	65.2374
1880	65.3383
1864	65.2657
1848	65.3899
1832	65.3389
1816	65.2911
1800	65.3298
1784	65.2318
1768	65.3977
1752	65.1573
1736	65.181
1720	65.0859
1704	65.2802
1688	65.2552
1672	65.2158
1656	65.2123
1640	65.1399
1624	65.2937
1608	65.2108
1592	65.1848
1576	65.2561
1560	65.1308
1544	65.1555
1528	65.2258
1512	65.1532
1496	65.1752
1480	65.1318
1464	65.2432
1448	65.2219
1432	65.2489
1416	65.0916
1400	65.1653
1384	65.2431
1368	65.2238
1352	65.112
1336	65.0546
1320	65.098
1304	65.1482
1288	65.1805
1272	65.1096
1256	65.049
1240	65.1385
1224	65.204
1208	65.0965
1192	65.0633
1176	65.1343
1160	65.1268
1144	65.2145
1128	65.131
1112	64.9896
1096	65.2157
1080	65.0531
1064	65.2156
1048	65.2068
1032	65.1988
1016	65.1211
1000	65.0841
984	 65.1374
968	 65.26
952	 65.2586
936	 65.2975
920	 65.311
904	 65.3064
888	 65.1805
872	 65.261
856	 65.2871
840	 65.3575
824	 65.3544
808	 65.2386
792	 65.4439
776	 65.4376
760	 65.3613
744	 65.4231
728	 65.2083
712	 65.3833
696	 65.0891
680	 65.5488
664	 65.5365
648	 65.3663
632	 65.2658
616	 65.5179
600	 66.1095
584	 65.5422
568	 65.4204
552	 65.9683
536	 65.8745
520	 65.6146
504	 66.166
488	 65.518
472	 64.7911
456	 65.7581
440	 66.4077
424	 71.8113
408	 58.2583
392	 63.3535
376	 14.2757
370	 23.1533

File: BZ12041010-4_t14.asc
PE IR       SPECTRUM    SPECTRUM    ASCII       PEDS        1.60
  -1
BZ3ABE~1.ASC
17/04/10
10:04:24.00
17/04/10
10:04:50.00
tln
$BZ12041010-4_t0014$<tbV0>[-2.6,-7.2,9.0,0.0,22,1,0]
27.028
64

2002,4.07
MIRTGS : RIGHTBACK : INTERNAL 2
MIR : ON : INTERNAL 2
OPTKBR

0.200000
8
8.000000
FILLER
RATIO
SPECTRUM
UNLOCKED 256

DOUBLE
64
COMBINED
1
0
0

0.002000
RATIO

1
0
TRUE
51149
0
LEFT NOT FITTED RIGHT NOT FITTED 0
NONE
NONE
15600
12
4.427000
51148
TRUE
1 0 8 72 0 0 0 0

15798

#HDR
-1
-1
#GR
µM
%T
2.38419e-05
0.0
2.000000
0.002000
12515
8
95.9643
48.8006
#DATA
2.000000	 64.6823
2.084000	 65.311
2.168000	 64.4554
2.252000	 64.3948
2.336000	 64.9086
2.420000	 65.4058
2.504000	 64.9932
2.588000	 65.2157
2.672000	 65.4676
2.756000	 65.4742
2.840000	 65.2721
2.924000	 65.1218
3.008000	 65.3219
3.092000	 65.3946
3.176000	 65.3947
3.260000	 65.3368
3.344000	 65.2934
3.428000	 65.12
3.512000	 65.1698
3.596000	 65.3124
3.680000	 65.4291
3.764000	 65.1835
3.848000	 65.2978
3.932000	 65.3103
4.016000	 65.3279
4.100000	 65.5705
4.184000	 65.4031
4.268000	 65.3202
4.352000	 65.3172
4.436000	 65.184
4.520000	 65.2968
4.604000	 65.3512
4.688000	 65.2735
4.772000	 65.3185
4.856000	 65.3116
4.940000	 65.2806
5.024000	 65.32
5.108000	 65.3803
5.192000	 65.4594
5.276000	 65.3517
5.359999	 65.3864
5.444000	 65.2183
5.528000	 65.2788
5.612000	 65.2025
5.696000	 65.2364
5.780000	 65.1171
5.864000	 65.2121
5.948000	 65.2374
6.032000	 65.2114
6.116000	 65.0941
6.200000	 65.3106
6.284000	 65.3084
6.368000	 65.1027
6.452000	 65.2391
6.536000	 65.163
6.620000	 65.1734
6.704000	 65.3013
6.788000	 65.2687
6.872000	 65.1653
6.956000	 65.1414
7.040000	 65.1193
7.124000	 65.1687
7.208000	 65.2171
7.292000	 65.2734
7.376000	 65.1264
7.460000	 65.1529
7.544000	 65.1549
7.628000	 65.0914
7.712000	 65.0901
7.796000	 65.1414
7.880000	 65.1902
7.964000	 65.1121
8.048000	 65.1577
8.132000	 65.2221
8.216000	 65.1187
8.300000	 65.193
8.384000	 65.0958
8.468000	 65.1682
8.552000	 65.071
8.635999	 65.1874
8.719999	 65.0482
8.804000	 65.0628
8.888000	 65.1987
8.972000	 65.1718
9.056000	 65.1672
9.140000	 65.1398
9.224000	 65.272
9.308000	 65.0577
9.391999	 65.227
9.475999	 65.3002
9.560000	 65.3336
9.644000	 65.3239
9.728000	 65.175
9.812000	 65.1178
9.896000	 65.3651
9.980000	 65.2675
10.064	65.2347
10.148	65.2433
10.232	65.2795
10.316	65.1534
10.4	65.2308
10.484	65.1548
10.568	65.369
10.652	65.198
10.736	65.0032
10.82	65.1718
10.904	65.3358
10.988	65.2939
11.072	65.3749
11.156	65.3119
11.24	65.3771
11.324	65.341
11.408	65.3258
11.492	65.326
11.576	65.214
11.66	65.1008
11.744	65.0768
11.828	65.3304
11.912	65.324
11.996	65.3434
12.08	65.4233
12.164	65.4154
12.248	65.473
12.332	65.545
12.416	65.4295
12.5	65.2899
12.584	65.1146
12.668	65.2248
12.752	65.3994
12.836	65.4748
12.92	65.4666
13.004	65.4925
13.088	65.5409
13.172	65.5662
13.256	65.5424
13.34	65.4991
13.424	65.4812
13.508	65.3733
13.592	65.2506
13.676	65.2776
13.76	65.249
13.844	65.3593
13.928	65.5869
14.012	65.4589
14.096	65.2265
14.18	65.1956
14.264	65.3233
14.348	65.4061
14.432	65.2866
14.516	65.1443
14.6	65.2586
14.684	65.516
14.768	65.6216
14.852	65.5317
14.936	65.3662
15.02	65.2919
15.104	65.3591
15.188	65.4883
15.272	65.59
15.356	65.5972
15.44	65.5428
15.524	65.5351
15.608	65.5939
15.692	65.6295
15.776	65.6485
15.86	65.698
15.944	65.6842
16.028	65.5939
16.112	65.563
16.196	65.6001
16.28	65.5741
16.364	65.4414
16.448	65.3524
16.532	65.4872
16.616	65.7198
16.7	65.7601
16.784	65.6484
16.868	65.6087
16.952	65.5877
17.036	65.4108
17.12	65.1503
17.204	64.9962
17.288	65.0011
17.372	65.0856
17.456	65.1445
17.54	65.1357
17.624	65.138
17.708	65.2445
17.792	65.4319
17.876	65.6138
17.96	65.7463
18.044	65.8058
18.128	65.7913
18.212	65.7772
18.296	65.8517
18.38	65.9602
18.464	65.96
18.548	65.8394
18.632	65.7458
18.716	65.7673
18.8	65.8056
18.884	65.718
18.968	65.522
19.052	65.3965
19.136	65.4763
19.22	65.7252
19.304	66.0034
19.388	66.193
19.472	66.2324
19.556	66.1192
19.64	65.9176
19.724	65.7147
19.808	65.5664
19.892	65.4698
19.976	65.3931
20.06	65.3123
20.144	65.2468
20.228	65.2618
20.312	65.396
20.396	65.5945
20.48	65.7382
20.564	65.7395
20.648	65.6212
20.732	65.5106
20.816	65.5609
20.9	65.8368
20.984	66.2278
21.068	66.4988
21.152	66.4761
21.236	66.1826
21.32	65.8163
21.404	65.6
21.488	65.6231
21.572	65.8106
21.656	65.9971
21.74	66.0451
21.824	65.9429
21.908	65.8152
21.992	65.8159
22.076	66.0032
22.16	66.2669
22.244	66.3487
22.328	66.0255
22.412	65.2595
22.496	64.2876
22.58	63.4853
22.664	63.1775
22.748	63.4623
22.832	64.1663
22.916	64.971
23	65.5746
23.084	65.8158
23.168	65.742
23.252	65.547
23.336	65.4445
23.42	65.6034
23.504	66.0655
23.588	66.7459
23.672	67.5068
23.756	68.2148
23.84	68.8047
23.924	69.2985
24.008	69.806
24.092	70.4991
24.176	71.5317
24.26	72.9119
24.344	74.4665
24.428	75.8809
24.512	76.7199
24.596	76.5963
24.68	75.2149
24.764	72.4589
24.848	68.4474
24.932	63.5775
25.016	58.4873
25.1	53.9776
25.184	50.7116
25.268	49.0169
25.352	48.9683
25.436	50.1542
25.52	51.7512
25.604	52.8381
25.688	53.3325
25.772	53.5655
25.856	53.6866
25.94	53.6551
26.024	53.976
26.108	56.0389
26.192	60.4933
26.276	66.3093
26.36	69.1787
26.444	66.8089
26.528	60.3474
26.612	56.5682
26.696	60.634
26.78	71.3717
26.864	80.8198
26.948	81.0204
27.028	75.6622

File: BZ12041010-4_t14_cm-1.asc
PE IR       SPECTRUM    SPECTRUM    ASCII       PEDS        1.60
  -1
BZ2CFE~1.ASC
17/04/10
10:04:24.00
17/04/10
10:04:24.00
tln
$BZ12041010-4_t0014$<tbV0>[-2.6,-7.2,9.0,0.0,22,1,0]
370
64

2002,4.07
MIRTGS : RIGHTBACK : INTERNAL 2
MIR : ON : INTERNAL 2
OPTKBR

0.200000
8
8.000000
FILLER
RATIO
SPECTRUM
UNLOCKED 256

DOUBLE
64
COMBINED
1
0
0

1.000000
RATIO

1
0
TRUE
51149
0
LEFT NOT FITTED RIGHT NOT FITTED 0
NONE
NONE
15600
12
4.427000
51148
TRUE
1 0 8 72 0 0 0 0

15798

#HDR
-1
-1
#GR
CM-1
%T
2.38419e-05
0.0
5000
-1.000000
4631
8
96.8077
48.8013
#DATA
5000	64.6823
4984	64.8966
4968	65.0565
4952	64.6492
4936	64.8058
4920	65.0051
4904	64.7258
4888	65.5127
4872	65.671
4856	63.989
4840	65.4839
4824	65.4527
4808	64.7706
4792	64.6128
4776	65.5524
4760	64.802
4744	65.0434
4728	65.8489
4712	65.3629
4696	65.404
4680	65.1097
4664	64.8087
4648	64.8981
4632	64.8321
4616	64.6657
4600	64.3727
4584	64.4119
4568	64.2842
4552	63.9909
4536	64.0364
4520	64.6016
4504	64.2471
4488	63.8309
4472	66.3438
4456	79.4498
4440	64.2542
4424	63.7281
4408	64.2943
4392	64.169
4376	64.4398
4360	64.7925
4344	64.3438
4328	64.8403
4312	64.5807
4296	64.9702
4280	64.9362
4264	64.9934
4248	64.892
4232	65.5299
4216	65.1124
4200	65.3625
4184	65.4502
4168	65.6147
4152	65.2487
4136	65.265
4120	65.2834
4104	65.4014
4088	65.5993
4072	65.4075
4056	65.2276
4040	65.0678
4024	65.2647
4008	65.2971
3992	65.0377
3976	64.9742
3960	65.0353
3944	65.1736
3928	65.2609
3912	65.2434
3896	64.8378
3880	65.2586
3864	65.2157
3848	65.2563
3832	65.2649
3816	65.1837
3800	65.2845
3784	65.0118
3768	65.3877
3752	65.1033
3736	65.4122
3720	65.5151
3704	65.4576
3688	65.3306
3672	65.345
3656	65.2487
3640	65.4533
3624	65.3247
3608	65.3475
3592	65.3865
3576	65.4417
3560	65.3393
3544	65.2435
3528	65.3326
3512	65.1838
3496	65.2592
3480	65.1505
3464	65.1951
3448	65.31
3432	65.2109
3416	65.2545
3400	65.3199
3384	65.2271
3368	65.4917
3352	65.4781
3336	65.3758
3320	65.298
3304	65.3908
3288	65.3347
3272	65.2611
3256	65.56
3240	65.4302
3224	65.3565
3208	65.2954
3192	65.2351
3176	65.3994
3160	65.2529
3144	65.2687
3128	65.4002
3112	65.3304
3096	65.3937
3080	65.3705
3064	65.3265
3048	65.3736
3032	65.3404
3016	65.1787
3000	65.2084
2984	65.2425
2968	65.418
2952	65.2573
2936	65.2731
2920	65.0637
2904	65.3301
2888	65.2918
2872	65.2755
2856	65.3724
2840	65.2442
2824	65.3568
2808	65.3693
2792	65.3756
2776	65.2605
2760	65.3393
2744	65.3603
2728	65.3394
2712	65.3973
2696	65.2189
2680	65.3645
2664	65.2702
2648	65.3496
2632	65.3159
2616	65.4145
2600	65.2864
2584	65.2125
2568	65.2397
2552	65.2866
2536	65.3181
2520	65.326
2504	65.3223
2488	65.3393
2472	65.2484
2456	65.4158
2440	65.571
2424	65.4099
2408	65.4761
2392	65.4114
2376	65.274
2360	65.3789
2344	65.3092
2328	65.3273
2312	65.3395
2296	65.2946
2280	65.2787
2264	65.3607
2248	65.2421
2232	65.364
2216	65.245
2200	65.2811
2184	65.2893
2168	65.3635
2152	65.2485
2136	65.2347
2120	65.3933
2104	65.4124
2088	65.3254
2072	65.3323
2056	65.3101
2040	65.3113
2024	65.2807
2008	65.3067
1992	65.3062
1976	65.3211
1960	65.3806
1944	65.3398
1928	65.4383
1912	65.2652
1896	65.3583
1880	65.2807
1864	65.3666
1848	65.288
1832	65.2166
1816	65.3401
1800	65.3028
1784	65.1932
1768	65.2795
1752	65.22
1736	65.154
1720	65.1626
1704	65.2386
1688	65.3056
1672	65.2505
1656	65.2079
1640	65.0222
1624	65.2253
1608	65.2875
1592	65.3008
1576	65.1379
1560	65.1492
1544	65.1844
1528	65.148
1512	65.1601
1496	65.3722
1480	65.162
1464	65.3
1448	65.0968
1432	65.127
1416	65.1073
1400	65.226
1384	65.2274
1368	65.212
1352	65.1475
1336	65.1623
1320	65.1121
1304	65.0812
1288	65.1939
1272	65.154
1256	65.1071
1240	65.1632
1224	65.238
1208	65.1524
1192	65.0968
1176	65.1137
1160	65.162
1144	65.0067
1128	65.2124
1112	65.1702
1096	65.1033
1080	65.2106
1064	65.2445
1048	65.2527
1032	65.1892
1016	65.1386
1000	65.2424
984	 65.2555
968	 65.175
952	 65.2093
936	 65.0322
920	 65.2365
904	 65.3555
888	 65.3866
872	 65.3434
856	 65.062
840	 65.3315
824	 65.4142
808	 65.4983
792	 65.1325
776	 65.4738
760	 65.5646
744	 65.471
728	 65.2616
712	 65.3527
696	 65.3955
680	 65.5646
664	 65.3104
648	 65.5475
632	 65.676
616	 65.6033
600	 65.7744
584	 65.1414
568	 65.1305
552	 65.7959
536	 65.7411
520	 65.7621
504	 65.5235
488	 65.7479
472	 66.3795
456	 65.7977
440	 63.3426
424	 66.7188
408	 76.7094
392	 51.5845
376	 56.6786
370	 75.6622