Folder: Masteroppgave/Bakgrunnsmateriale/MATLAB/FTIR/ftir_data/subCa/Mapping_25 (part 11)

File: BZ12041010-4_t22_cm-1.asc
PE IR       SPECTRUM    SPECTRUM    ASCII       PEDS        1.60
  -1
BZACF1~1.ASC
17/04/10
10:49:10.00
17/04/10
10:49:10.00
tln
$BZ12041010-4_t0022$<tbV0>[2.6,-2.0,9.0,0.0,22,1,0]
370
64

2002,4.07
MIRTGS : RIGHTBACK : INTERNAL 2
MIR : ON : INTERNAL 2
OPTKBR

0.200000
8
8.000000
FILLER
RATIO
SPECTRUM
UNLOCKED 256

DOUBLE
64
COMBINED
1
0
0

1.000000
RATIO

1
0
TRUE
51149
0
LEFT NOT FITTED RIGHT NOT FITTED 0
NONE
NONE
15600
12
4.427000
51148
TRUE
1 0 8 72 0 0 0 0

15798

#HDR
-1
-1
#GR
CM-1
%T
2.38419e-05
0.0
5000
-1.000000
4631
8
71.926
22.5837
#DATA
5000	54.9497
4984	54.713
4968	54.9979
4952	55.3034
4936	54.9037
4920	56.0336
4904	54.8994
4888	53.7942
4872	55.8543
4856	55.7621
4840	56.295
4824	55.5945
4808	55.2053
4792	55.5997
4776	54.9607
4760	54.4959
4744	55.1317
4728	55.0755
4712	55.0154
4696	54.8281
4680	54.924
4664	54.802
4648	55.2897
4632	55.6137
4616	55.4714
4600	55.0632
4584	55.7248
4568	55.4949
4552	55.8156
4536	55.4453
4520	55.4487
4504	55.1372
4488	55.873
4472	55.5556
4456	38.0009
4440	56.438
4424	55.4522
4408	55.874
4392	55.5478
4376	55.7025
4360	55.5194
4344	55.478
4328	55.7057
4312	55.5118
4296	55.4652
4280	55.7566
4264	55.5367
4248	55.0247
4232	54.9586
4216	55.118
4200	55.0262
4184	55.0212
4168	55.1139
4152	55.0849
4136	54.7278
4120	55.1897
4104	55.0383
4088	55.0708
4072	55.448
4056	55.371
4040	55.1914
4024	55.2939
4008	55.173
3992	55.1528
3976	55.1032
3960	54.8975
3944	55.148
3928	55.2713
3912	55.0341
3896	54.98
3880	55.2241
3864	55.3552
3848	55.2715
3832	55.3394
3816	55.3695
3800	55.2092
3784	55.4287
3768	55.2853
3752	55.134
3736	55.1919
3720	55.0808
3704	55.2303
3688	55.0859
3672	55.1428
3656	55.2492
3640	55.0869
3624	55.3102
3608	55.0784
3592	55.2905
3576	55.3011
3560	55.4575
3544	55.2874
3528	55.2106
3512	55.0684
3496	55.2421
3480	55.0112
3464	55.1441
3448	55.2
3432	55.3557
3416	55.216
3400	55.3354
3384	55.2188
3368	55.246
3352	55.39
3336	55.2228
3320	55.3138
3304	55.3111
3288	55.2392
3272	55.2154
3256	55.0975
3240	55.0962
3224	55.1367
3208	55.0613
3192	55.1787
3176	55.203
3160	55.0271
3144	55.2602
3128	55.4657
3112	55.2587
3096	55.1651
3080	55.3519
3064	55.3519
3048	55.4267
3032	55.2878
3016	55.2319
3000	55.0313
2984	55.1911
2968	55.1303
2952	55.1106
2936	55.1567
2920	54.9157
2904	55.1931
2888	55.1097
2872	55.1964
2856	55.3803
2840	55.2348
2824	55.3652
2808	55.3115
2792	55.2816
2776	55.2391
2760	55.2277
2744	55.2753
2728	55.1434
2712	55.1439
2696	55.0238
2680	55.106
2664	55.0582
2648	55.2375
2632	55.1714
2616	55.2903
2600	55.2818
2584	55.3492
2568	55.3737
2552	55.2898
2536	55.3212
2520	55.1953
2504	55.3021
2488	55.157
2472	55.1506
2456	55.1773
2440	55.2307
2424	55.2114
2408	55.2675
2392	55.0752
2376	55.264
2360	55.2528
2344	55.3551
2328	55.3175
2312	55.2163
2296	55.2798
2280	55.2971
2264	55.1467
2248	55.1733
2232	55.3523
2216	55.1902
2200	55.1344
2184	55.1595
2168	55.1988
2152	55.1696
2136	55.3241
2120	55.3269
2104	55.2798
2088	55.3104
2072	55.2505
2056	55.2254
2040	55.3102
2024	55.1449
2008	55.2004
1992	55.2838
1976	55.21
1960	55.1228
1944	55.1833
1928	55.1558
1912	55.1665
1896	55.1685
1880	55.3219
1864	55.2557
1848	55.2959
1832	55.3573
1816	55.3212
1800	55.32
1784	55.1817
1768	55.0718
1752	55.0796
1736	54.8994
1720	54.9233
1704	54.8638
1688	54.9997
1672	55.0476
1656	55.1598
1640	55.2132
1624	55.2498
1608	55.2212
1592	55.1762
1576	55.2697
1560	55.3348
1544	55.2178
1528	55.1597
1512	55.0569
1496	55.2309
1480	54.9303
1464	54.9277
1448	54.986
1432	54.883
1416	54.9541
1400	55.0546
1384	54.9024
1368	54.9291
1352	55.1031
1336	55.1123
1320	54.9447
1304	55.0176
1288	55.0591
1272	55.2047
1256	55.0387
1240	55.0463
1224	55.117
1208	55.0116
1192	55.175
1176	54.9988
1160	54.7778
1144	55.0658
1128	55.0961
1112	54.9701
1096	55.0692
1080	54.9243
1064	54.8574
1048	55.0061
1032	55.1386
1016	55.0052
1000	55.1401
984	 54.953
968	 55.0282
952	 55.1135
936	 55.0542
920	 55.0025
904	 54.7885
888	 55.0499
872	 55.1361
856	 55.0894
840	 55.0844
824	 54.9614
808	 55.2413
792	 54.9443
776	 54.9049
760	 54.8281
744	 55.1067
728	 55.1264
712	 54.8726
696	 55.1679
680	 55.1062
664	 54.9009
648	 55.095
632	 54.957
616	 55.086
600	 54.9974
584	 55.6367
568	 55.1913
552	 55.1412
536	 55.7647
520	 55.7986
504	 55.3445
488	 56.1124
472	 54.4344
456	 56.4394
440	 53.87
424	 56.7123
408	 59.2864
392	 59.3996
376	 51.5084
370	 22.5837

File: BZ12041010-4_t23.asc
PE IR       SPECTRUM    SPECTRUM    ASCII       PEDS        1.60
  -1
BZ3EBA~1.ASC
17/04/10
10:53:47.00
17/04/10
10:54:13.00
tln
$BZ12041010-4_t0023$<tbV0>[0.0,-2.0,9.0,0.0,22,1,0]
27.028
64

2002,4.07
MIRTGS : RIGHTBACK : INTERNAL 2
MIR : ON : INTERNAL 2
OPTKBR

0.200000
8
8.000000
FILLER
RATIO
SPECTRUM
UNLOCKED 256

DOUBLE
64
COMBINED
1
0
0

0.002000
RATIO

1
0
TRUE
51149
0
LEFT NOT FITTED RIGHT NOT FITTED 0
NONE
NONE
15600
12
4.427000
51148
TRUE
1 0 8 72 0 0 0 0

15798

#HDR
-1
-1
#GR
µM
%T
2.38419e-05
0.0
2.000000
0.002000
12515
8
72.852
31.8282
#DATA
2.000000	 56.2025
2.084000	 56.7417
2.168000	 56.9166
2.252000	 56.5459
2.336000	 56.855
2.420000	 56.4978
2.504000	 56.6521
2.588000	 56.645
2.672000	 56.7924
2.756000	 56.9062
2.840000	 56.5893
2.924000	 56.487
3.008000	 56.4502
3.092000	 56.6314
3.176000	 56.6851
3.260000	 56.9166
3.344000	 56.6989
3.428000	 56.4946
3.512000	 56.6264
3.596000	 56.9175
3.680000	 56.6954
3.764000	 56.6849
3.848000	 56.878
3.932000	 56.9782
4.016000	 56.74
4.100000	 56.8245
4.184000	 56.7844
4.268000	 56.8897
4.352000	 56.8748
4.436000	 56.7756
4.520000	 56.6736
4.604000	 56.7258
4.688000	 56.7384
4.772000	 56.8191
4.856000	 56.7456
4.940000	 56.7379
5.024000	 56.6796
5.108000	 56.5696
5.192000	 56.6027
5.276000	 56.5857
5.359999	 56.5804
5.444000	 56.6829
5.528000	 56.7096
5.612000	 56.6456
5.696000	 56.4615
5.780000	 56.3203
5.864000	 56.3178
5.948000	 56.3652
6.032000	 56.4281
6.116000	 56.575
6.200000	 56.5739
6.284000	 56.5053
6.368000	 56.5063
6.452000	 56.4844
6.536000	 56.5978
6.620000	 56.5338
6.704000	 56.3809
6.788000	 56.4727
6.872000	 56.534
6.956000	 56.4178
7.040000	 56.3283
7.124000	 56.3394
7.208000	 56.3937
7.292000	 56.3382
7.376000	 56.376
7.460000	 56.4113
7.544000	 56.2412
7.628000	 56.2669
7.712000	 56.311
7.796000	 56.301
7.880000	 56.3806
7.964000	 56.1783
8.048000	 56.3326
8.132000	 56.4117
8.216000	 56.3853
8.300000	 56.4422
8.384000	 56.4842
8.468000	 56.4434
8.552000	 56.362
8.635999	 56.1525
8.719999	 56.1667
8.804000	 56.415
8.888000	 56.6754
8.972000	 56.3302
9.056000	 56.3879
9.140000	 56.3936
9.224000	 56.4181
9.308000	 56.2528
9.391999	 55.9783
9.475999	 56.0843
9.560000	 55.9712
9.644000	 55.9907
9.728000	 56.0547
9.812000	 55.8339
9.896000	 55.892
9.980000	 56.0613
10.064	56.0315
10.148	55.9426
10.232	55.867
10.316	56.0776
10.4	56.0238
10.484	55.8759
10.568	56.2689
10.652	56.3813
10.736	56.2448
10.82	56.2613
10.904	56.2143
10.988	56.3089
11.072	56.1704
11.156	56.1991
11.24	56.2566
11.324	56.273
11.408	56.5351
11.492	56.4582
11.576	56.4479
11.66	56.3801
11.744	56.3552
11.828	56.3848
11.912	56.3271
11.996	56.2926
12.08	56.3514
12.164	56.3565
12.248	56.4845
12.332	56.5331
12.416	56.5336
12.5	56.5168
12.584	56.5545
12.668	56.5254
12.752	56.3969
12.836	56.277
12.92	56.3166
13.004	56.3466
13.088	56.3546
13.172	56.3571
13.256	56.4305
13.34	56.4454
13.424	56.4363
13.508	56.4939
13.592	56.5529
13.676	56.6128
13.76	56.5748
13.844	56.4495
13.928	56.6242
14.012	56.8306
14.096	56.6871
14.18	56.4474
14.264	56.45
14.348	56.4971
14.432	56.5416
14.516	56.6714
14.6	56.728
14.684	56.7306
14.768	56.7032
14.852	56.5997
14.936	56.4832
15.02	56.4217
15.104	56.4444
15.188	56.4821
15.272	56.4164
15.356	56.3282
15.44	56.3774
15.524	56.4969
15.608	56.5081
15.692	56.367
15.776	56.1968
15.86	56.215
15.944	56.4854
16.028	56.7806
16.112	56.8711
16.196	56.7318
16.28	56.4626
16.364	56.2309
16.448	56.1618
16.532	56.2041
16.616	56.2287
16.7	56.2094
16.784	56.2271
16.868	56.3487
16.952	56.5222
17.036	56.6263
17.12	56.6354
17.204	56.6231
17.288	56.5786
17.372	56.4451
17.456	56.3232
17.54	56.41
17.624	56.7345
17.708	57.0756
17.792	57.1737
17.876	56.9805
17.96	56.6799
18.044	56.4753
18.128	56.4106
18.212	56.4206
18.296	56.4697
18.38	56.5602
18.464	56.6704
18.548	56.7456
18.632	56.7443
18.716	56.6818
18.8	56.6353
18.884	56.6839
18.968	56.836
19.052	57.0162
19.136	57.135
19.22	57.1513
19.304	57.0564
19.388	56.8393
19.472	56.5066
19.556	56.1342
19.64	55.8621
19.724	55.8075
19.808	55.9718
19.892	56.2173
19.976	56.359
20.06	56.298
20.144	56.0882
20.228	55.8892
20.312	55.8435
20.396	55.9757
20.48	56.192
20.564	56.3678
20.648	56.4593
20.732	56.5359
20.816	56.7163
20.9	57.0468
20.984	57.4264
21.068	57.6688
21.152	57.6434
21.236	57.3864
21.32	57.0771
21.404	56.8971
21.488	56.8979
21.572	56.9775
21.656	56.9913
21.74	56.8437
21.824	56.5411
21.908	56.1588
21.992	55.7657
22.076	55.4144
22.16	55.1636
22.244	55.0866
22.328	55.2339
22.412	55.5953
22.496	56.0643
22.58	56.475
22.664	56.6855
22.748	56.6158
22.832	56.2112
22.916	55.4192
23	54.1514
23.084	52.3925
23.168	50.3029
23.252	48.2476
23.336	46.758
23.42	46.2628
23.504	46.8818
23.588	48.2678
23.672	49.758
23.756	50.6501
23.84	50.6336
23.924	49.965
24.008	49.2917
24.092	49.2986
24.176	50.3321
24.26	52.3105
24.344	54.8273
24.428	57.4208
24.512	59.768
24.596	61.7945
24.68	63.656
24.764	65.6021
24.848	67.786
24.932	70.0507
25.016	71.9175
25.1	72.828
25.184	72.3276
25.268	70.3773
25.352	67.4348
25.436	64.2408
25.52	61.4941
25.604	59.5726
25.688	58.4056
25.772	57.5098
25.856	56.2582
25.94	54.1971
26.024	51.1844
26.108	47.4171
26.192	43.3597
26.276	39.5498
26.36	36.3617
26.444	33.9937
26.528	32.5103
26.612	31.8612
26.696	32.0545
26.78	33.182
26.864	35.4142
26.948	38.9071
27.028	43.3511

File: BZ12041010-4_t23_cm-1.asc
PE IR       SPECTRUM    SPECTRUM    ASCII       PEDS        1.60
  -1
BZAC7F~1.ASC
17/04/10
10:53:47.00
17/04/10
10:53:47.00
tln
$BZ12041010-4_t0023$<tbV0>[0.0,-2.0,9.0,0.0,22,1,0]
370
64

2002,4.07
MIRTGS : RIGHTBACK : INTERNAL 2
MIR : ON : INTERNAL 2
OPTKBR

0.200000
8
8.000000
FILLER
RATIO
SPECTRUM
UNLOCKED 256

DOUBLE
64
COMBINED
1
0
0

1.000000
RATIO

1
0
TRUE
51149
0
LEFT NOT FITTED RIGHT NOT FITTED 0
NONE
NONE
15600
12
4.427000
51148
TRUE
1 0 8 72 0 0 0 0

15798

#HDR
-1
-1
#GR
CM-1
%T
2.38419e-05
0.0
5000
-1.000000
4631
8
72.8381
31.8898
#DATA
5000	56.2025
4984	56.3647
4968	56.3985
4952	55.5952
4936	56.087
4920	56.3025
4904	55.3689
4888	53.9048
4872	57.4169
4856	57.6563
4840	56.6111
4824	56.7541
4808	56.8238
4792	57.5704
4776	56.0125
4760	56.3879
4744	56.4061
4728	56.5728
4712	56.5342
4696	56.6368
4680	56.6365
4664	56.6836
4648	56.6786
4632	56.4509
4616	56.9435
4600	56.4513
4584	56.8374
4568	56.1372
4552	56.6092
4536	56.5353
4520	56.6483
4504	56.7594
4488	56.5881
4472	54.4241
4456	56.327
4440	56.538
4424	56.9597
4408	56.3815
4392	57.1838
4376	56.9158
4360	56.8281
4344	56.7884
4328	56.9269
4312	56.9111
4296	56.4666
4280	56.8501
4264	56.9748
4248	56.6548
4232	56.5886
4216	56.6149
4200	56.4245
4184	56.5724
4168	56.3034
4152	56.4845
4136	56.394
4120	56.6993
4104	56.9245
4088	56.6465
4072	57.1368
4056	56.8125
4040	57.0844
4024	56.6698
4008	56.5873
3992	56.6653
3976	56.7293
3960	56.6266
3944	56.5265
3928	56.4464
3912	56.6998
3896	56.6416
3880	56.6779
3864	56.645
3848	56.8733
3832	56.7674
3816	56.8079
3800	56.9107
3784	56.9824
3768	56.7735
3752	56.7665
3736	56.829
3720	56.8335
3704	56.5103
3688	56.8008
3672	56.7133
3656	56.7128
3640	56.606
3624	57.03
3608	56.8639
3592	56.7328
3576	56.8016
3560	56.8802
3544	56.7221
3528	56.6812
3512	56.3783
3496	56.4994
3480	56.4047
3464	56.5021
3448	56.5081
3432	56.3597
3416	56.4982
3400	56.5009
3384	56.5461
3368	56.4813
3352	56.7244
3336	56.6099
3320	56.5649
3304	56.7229
3288	56.4572
3272	56.6562
3256	56.6605
3240	56.5466
3224	56.6571
3208	56.4508
3192	56.5484
3176	56.6561
3160	56.4982
3144	56.6264
3128	56.7403
3112	56.7261
3096	56.6779
3080	56.7984
3064	56.8754
3048	56.7199
3032	56.6419
3016	56.7422
3000	56.6715
2984	56.7309
2968	56.5552
2952	56.5358
2936	56.3924
2920	56.5747
2904	56.5106
2888	56.4987
2872	56.4736
2856	56.636
2840	56.7225
2824	56.9041
2808	56.8367
2792	56.897
2776	56.8551
2760	56.8143
2744	56.8063
2728	56.6307
2712	56.643
2696	56.7134
2680	56.7226
2664	56.6134
2648	56.7681
2632	56.773
2616	56.824
2600	56.8957
2584	56.9051
2568	56.8149
2552	56.8762
2536	56.9554
2520	56.8291
2504	56.7231
2488	56.7493
2472	56.8652
2456	56.7654
2440	56.8314
2424	56.8552
2408	56.8152
2392	56.7949
2376	56.7918
2360	56.8498
2344	56.8972
2328	56.7525
2312	56.873
2296	56.8662
2280	56.7721
2264	56.7908
2248	56.8068
2232	56.8043
2216	56.6655
2200	56.6574
2184	56.6448
2168	56.6706
2152	56.7463
2136	56.7321
2120	56.7968
2104	56.8265
2088	56.839
2072	56.7542
2056	56.765
2040	56.8051
2024	56.7344
2008	56.6916
1992	56.6799
1976	56.5706
1960	56.5859
1944	56.6402
1928	56.5703
1912	56.5734
1896	56.5856
1880	56.6933
1864	56.5788
1848	56.5716
1832	56.6739
1816	56.7827
1800	56.716
1784	56.6426
1768	56.5196
1752	56.4173
1736	56.3658
1720	56.3555
1704	56.3472
1688	56.4077
1672	56.2694
1656	56.4488
1640	56.4822
1624	56.5631
1608	56.5685
1592	56.4912
1576	56.5251
1560	56.5893
1544	56.6378
1528	56.609
1512	56.5243
1496	56.3534
1480	56.5277
1464	56.4826
1448	56.4124
1432	56.4188
1416	56.3812
1400	56.3981
1384	56.4108
1368	56.3341
1352	56.4409
1336	56.3273
1320	56.2159
1304	56.2766
1288	56.2771
1272	56.3591
1256	56.1813
1240	56.3925
1224	56.4413
1208	56.414
1192	56.4836
1176	56.4091
1160	56.1633
1144	56.1973
1128	56.6848
1112	56.281
1096	56.3907
1080	56.3427
1064	55.9653
1048	55.999
1032	56.0847
1016	55.8404
1000	56.094
984	 55.9225
968	 56.0889
952	 55.9521
936	 56.3438
920	 56.2183
904	 56.1919
888	 56.2406
872	 56.497
856	 56.3638
840	 56.3349
824	 56.3498
808	 56.5329
792	 56.5537
776	 56.2922
760	 56.3515
744	 56.443
728	 56.6078
712	 56.8158
696	 56.5001
680	 56.7293
664	 56.4228
648	 56.3669
632	 56.1721
616	 56.618
600	 56.2182
584	 56.635
568	 56.6515
552	 56.4136
536	 56.7296
520	 57.1454
504	 56.0704
488	 56.2213
472	 57.5575
456	 56.0554
440	 56.6628
424	 48.2119
408	 59.7108
392	 61.7734
376	 31.9218
370	 43.3511

File: BZ12041010-4_t24.asc
PE IR       SPECTRUM    SPECTRUM    ASCII       PEDS        1.60
  -1
BZ3EBE~1.ASC
17/04/10
10:58:24.00
17/04/10
10:58:50.00
tln
$BZ12041010-4_t0024$<tbV0>[-2.6,-2.0,9.0,0.0,22,1,0]
27.028
64

2002,4.07
MIRTGS : RIGHTBACK : INTERNAL 2
MIR : ON : INTERNAL 2
OPTKBR

0.200000
8
8.000000
FILLER
RATIO
SPECTRUM
UNLOCKED 256

DOUBLE
64
COMBINED
1
0
0

0.002000
RATIO

1
0
TRUE
51149
0
LEFT NOT FITTED RIGHT NOT FITTED 0
NONE
NONE
15600
12
4.427000
51148
TRUE
1 0 8 72 0 0 0 0

15798

#HDR
-1
-1
#GR
µM
%T
2.38419e-05
0.0
2.000000
0.002000
12515
8
79.9245
26.5306
#DATA
2.000000	 57.5375
2.084000	 58.0837
2.168000	 58.132
2.252000	 57.5558
2.336000	 58.2801
2.420000	 58.4834
2.504000	 58.4211
2.588000	 58.4234
2.672000	 58.4658
2.756000	 58.5744
2.840000	 58.465
2.924000	 58.4769
3.008000	 58.6679
3.092000	 58.3823
3.176000	 58.4308
3.260000	 58.6009
3.344000	 58.3375
3.428000	 58.2198
3.512000	 58.4676
3.596000	 58.5387
3.680000	 58.4023
3.764000	 58.3891
3.848000	 58.5841
3.932000	 58.609
4.016000	 58.5015
4.100000	 58.4699
4.184000	 58.5702
4.268000	 58.6467
4.352000	 58.6543
4.436000	 58.6167
4.520000	 58.6009
4.604000	 58.4868
4.688000	 58.568
4.772000	 58.5882
4.856000	 58.7147
4.940000	 58.55
5.024000	 58.5227
5.108000	 58.474
5.192000	 58.4847
5.276000	 58.4996
5.359999	 58.5194
5.444000	 58.4853
5.528000	 58.5915
5.612000	 58.5176
5.696000	 58.2957
5.780000	 58.1828
5.864000	 58.2396
5.948000	 58.3465
6.032000	 58.4123
6.116000	 58.4756
6.200000	 58.4199
6.284000	 58.4273
6.368000	 58.385
6.452000	 58.4039
6.536000	 58.5214
6.620000	 58.3446
6.704000	 58.3665
6.788000	 58.2582
6.872000	 58.2717
6.956000	 58.3392
7.040000	 58.381
7.124000	 58.3591
7.208000	 58.199
7.292000	 58.3944
7.376000	 58.4649
7.460000	 58.5015
7.544000	 58.208
7.628000	 58.4252
7.712000	 58.0704
7.796000	 58.2681
7.880000	 58.2659
7.964000	 58.1102
8.048000	 58.3269
8.132000	 58.197
8.216000	 58.1831
8.300000	 58.2649
8.384000	 58.2177
8.468000	 58.2625
8.552000	 58.2611
8.635999	 58.3006
8.719999	 58.3276
8.804000	 58.4797
8.888000	 58.5758
8.972000	 58.5059
9.056000	 58.4841
9.140000	 58.3269
9.224000	 58.4998
9.308000	 58.4259
9.391999	 58.2344
9.475999	 58.4138
9.560000	 58.4056
9.644000	 58.4874
9.728000	 58.4524
9.812000	 58.4368
9.896000	 58.4048
9.980000	 58.3993
10.064	58.3138
10.148	58.4435
10.232	58.5957
10.316	58.4778
10.4	58.4889
10.484	58.5096
10.568	58.6228
10.652	58.6882
10.736	58.5456
10.82	58.4096
10.904	58.333
10.988	58.5455
11.072	58.4162
11.156	58.4946
11.24	58.5228
11.324	58.4279
11.408	58.4592
11.492	58.5138
11.576	58.5349
11.66	58.4832
11.744	58.4338
11.828	58.2859
11.912	58.4145
11.996	58.4152
12.08	58.4248
12.164	58.3859
12.248	58.3182
12.332	58.4587
12.416	58.6828
12.5	58.5335
12.584	58.6607
12.668	58.8795
12.752	58.4664
12.836	58.2544
12.92	58.4135
13.004	58.3339
13.088	58.3
13.172	58.3404
13.256	58.3464
13.34	58.3786
13.424	58.367
13.508	58.2581
13.592	58.1948
13.676	58.3041
13.76	58.5235
13.844	58.5716
13.928	58.5021
14.012	58.3456
14.096	58.1375
14.18	58.0622
14.264	58.02
14.348	58.0067
14.432	58.2029
14.516	58.4357
14.6	58.4745
14.684	58.3598
14.768	58.2513
14.852	58.366
14.936	58.6478
15.02	58.7439
15.104	58.5377
15.188	58.3548
15.272	58.4287
15.356	58.6006
15.44	58.6472
15.524	58.5722
15.608	58.5096
15.692	58.5012
15.776	58.5144
15.86	58.5396
15.944	58.5657
16.028	58.5932
16.112	58.614
16.196	58.5508
16.28	58.4163
16.364	58.3941
16.448	58.5242
16.532	58.566
16.616	58.4255
16.7	58.3298
16.784	58.4311
16.868	58.6435
16.952	58.8328
17.036	58.9335
17.12	58.9552
17.204	58.9679
17.288	59.0131
17.372	59.0615
17.456	59.1013
17.54	59.1739
17.624	59.2794
17.708	59.3134
17.792	59.1753
17.876	58.9168
17.96	58.6865
18.044	58.5708
18.128	58.5759
18.212	58.7034
18.296	58.9447
18.38	59.2229
18.464	59.4233
18.548	59.4827
18.632	59.4188
18.716	59.3105
18.8	59.2574
18.884	59.2918
18.968	59.3579
19.052	59.3937
19.136	59.3911
19.22	59.3684
19.304	59.3239
19.388	59.2195
19.472	58.9974
19.556	58.6237
19.64	58.1474
19.724	57.7152
19.808	57.4949
19.892	57.5488
19.976	57.7812
20.06	58.027
20.144	58.1837
20.228	58.2617
20.312	58.3208
20.396	58.3999
20.48	58.4981
20.564	58.6313
20.648	58.8441
20.732	59.1598
20.816	59.52
20.9	59.7875
20.984	59.8101
21.068	59.5393
21.152	59.0562
21.236	58.5086
21.32	58.0346
21.404	57.7159
21.488	57.6241
21.572	57.8493
21.656	58.4528
21.74	59.3631
21.824	60.2936
21.908	60.85
21.992	60.8273
22.076	60.3958
22.16	60.0335
22.244	60.1766
22.328	60.8531
22.412	61.6619
22.496	62.0165
22.58	61.5783
22.664	60.4307
22.748	59.043
22.832	57.9331
22.916	57.451
23	57.6549
23.084	58.4079
23.168	59.486
23.252	60.6708
23.336	61.7213
23.42	62.3936
23.504	62.4562
23.588	61.8173
23.672	60.5902
23.756	59.0835
23.84	57.7145
23.924	56.8511
24.008	56.6733
24.092	57.1358
24.176	58.0174
24.26	59.0795
24.344	60.1149
24.428	60.9812
24.512	61.558
24.596	61.746
24.68	61.5018
24.764	60.882
24.848	60.0614
24.932	59.203
25.016	58.3284
25.1	57.2971
25.184	55.8007
25.268	53.5571
25.352	50.5118
25.436	46.8859
25.52	43.1635
25.604	39.9142
25.688	37.5562
25.772	36.1709
25.856	35.5136
25.94	35.1346
26.024	34.5555
26.108	33.487
26.192	31.9026
26.276	30.0358
26.36	28.2615
26.444	26.9861
26.528	26.5312
26.612	27.07
26.696	28.6334
26.78	31.0985
26.864	34.2483
26.948	37.8545
27.028	41.494

File: BZ12041010-4_t24_cm-1.asc
PE IR       SPECTRUM    SPECTRUM    ASCII       PEDS        1.60
  -1
BZACFE~1.ASC
17/04/10
10:58:24.00
17/04/10
10:58:24.00
tln
$BZ12041010-4_t0024$<tbV0>[-2.6,-2.0,9.0,0.0,22,1,0]
370
64

2002,4.07
MIRTGS : RIGHTBACK : INTERNAL 2
MIR : ON : INTERNAL 2
OPTKBR

0.200000
8
8.000000
FILLER
RATIO
SPECTRUM
UNLOCKED 256

DOUBLE
64
COMBINED
1
0
0

1.000000
RATIO

1
0
TRUE
51149
0
LEFT NOT FITTED RIGHT NOT FITTED 0
NONE
NONE
15600
12
4.427000
51148
TRUE
1 0 8 72 0 0 0 0

15798

#HDR
-1
-1
#GR
CM-1
%T
2.38419e-05
0.0
5000
-1.000000
4631
8
82.1369
26.5305
#DATA
5000	57.5375
4984	57.9526
4968	58.3122
4952	57.4432
4936	57.9066
4920	58.3347
4904	57.5735
4888	59.3135
4872	56.0866
4856	58.5115
4840	58.3397
4824	58.9881
4808	58.2349
4792	58.6217
4776	58.02
4760	57.9833
4744	58.4651
4728	58.7876
4712	58.2055
4696	58.3096
4680	58.6402
4664	58.0719
4648	58.2157
4632	58.003
4616	58.2226
4600	58.1228
4584	58.2098
4568	57.8402
4552	58.2871
4536	57.6312
4520	58.41
4504	58.3972
4488	56.9729
4472	56.2405
4456	60.5212
4440	57.4803
4424	58.286
4408	58.0478
4392	57.9602
4376	57.9909
4360	57.9893
4344	58.3264
4328	58.4541
4312	58.541
4296	58.3715
4280	58.2489
4264	58.4693
4248	58.3709
4232	58.1485
4216	58.3887
4200	58.1302
4184	58.4377
4168	58.4096
4152	58.0453
4136	58.3169
4120	58.4785
4104	58.3565
4088	58.6883
4072	58.5899
4056	58.4938
4040	58.5518
4024	58.4986
4008	58.4352
3992	58.3464
3976	58.3366
3960	58.2226
3944	58.3217
3928	58.2042
3912	58.3013
3896	58.3632
3880	58.337
3864	58.4234
3848	58.5757
3832	58.4858
3816	58.5186
3800	58.4052
3784	58.5958
3768	58.3638
3752	58.4325
3736	58.413
3720	58.2086
3704	58.2272
3688	58.3993
3672	58.5129
3656	58.3841
3640	58.2587
3624	58.6191
3608	58.5587
3592	58.5934
3576	58.5597
3560	58.3938
3544	58.3051
3528	58.5124
3512	58.3702
3496	58.3709
3480	58.2662
3464	58.2964
3448	58.2742
3432	58.4338
3416	58.5361
3400	58.4432
3384	58.5144
3368	58.5674
3352	58.5319
3336	58.5372
3320	58.6475
3304	58.3679
3288	58.5097
3272	58.4362
3256	58.5192
3240	58.3007
3224	58.4388
3208	58.2337
3192	58.2645
3176	58.3544
3160	58.3356
3144	58.3783
3128	58.5874
3112	58.5257
3096	58.4253
3080	58.6468
3064	58.5081
3048	58.5357
3032	58.5527
3016	58.41
3000	58.4764
2984	58.27
2968	58.1219
2952	58.3405
2936	58.2876
2920	58.2628
2904	58.1953
2888	58.4601
2872	58.4041
2856	58.5438
2840	58.4557
2824	58.6237
2808	58.4756
2792	58.4468
2776	58.5718
2760	58.382
2744	58.444
2728	58.3893
2712	58.3854
2696	58.4428
2680	58.5232
2664	58.3732
2648	58.5375
2632	58.6535
2616	58.5893
2600	58.5956
2584	58.6426
2568	58.6346
2552	58.4994
2536	58.5929
2520	58.5274
2504	58.5135
2488	58.4795
2472	58.5138
2456	58.4238
2440	58.4763
2424	58.3408
2408	58.5684
2392	58.5807
2376	58.585
2360	58.6265
2344	58.6315
2328	58.5448
2312	58.6407
2296	58.6095
2280	58.6179
2264	58.5503
2248	58.6112
2232	58.5601
2216	58.6225
2200	58.4811
2184	58.5003
2168	58.4862
2152	58.626
2136	58.5429
2120	58.6423
2104	58.5846
2088	58.522
2072	58.4689
2056	58.6467
2040	58.6045
2024	58.5493
2008	58.5806
1992	58.4859
1976	58.4966
1960	58.4784
1944	58.3841
1928	58.5015
1912	58.489
1896	58.4972
1880	58.6005
1864	58.4996
1848	58.5207
1832	58.4917
1816	58.5763
1800	58.5217
1784	58.5322
1768	58.4983
1752	58.241
1736	58.1668
1720	58.2297
1704	58.2321
1688	58.3762
1672	58.3316
1656	58.41
1640	58.3968
1624	58.3857
1608	58.3938
1592	58.4189
1576	58.3897
1560	58.4045
1544	58.5085
1528	58.5017
1512	58.3568
1496	58.3615
1480	58.3262
1464	58.204
1448	58.3305
1432	58.4209
1416	58.3498
1400	58.3439
1384	58.2448
1368	58.4225
1352	58.4179
1336	58.4451
1320	58.1965
1304	58.2664
1288	58.2954
1272	58.2901
1256	58.1094
1240	58.3977
1224	58.2388
1208	58.2275
1192	58.2178
1176	58.2669
1160	58.2776
1144	58.3488
1128	58.5369
1112	58.483
1096	58.3548
1080	58.4658
1064	58.2575
1048	58.401
1032	58.502
1016	58.4184
1000	58.3688
984	 58.4798
968	 58.4747
952	 58.5285
936	 58.6358
920	 58.3279
904	 58.4354
888	 58.5068
872	 58.5048
856	 58.488
840	 58.4011
824	 58.419
808	 58.6123
792	 58.8337
776	 58.365
760	 58.3361
744	 58.3492
728	 58.47
712	 58.2571
696	 58.0328
680	 58.3213
664	 58.669
648	 58.6498
632	 58.5273
616	 58.4902
600	 58.3463
584	 58.9554
568	 59.2575
552	 58.5678
536	 59.3867
520	 59.3643
504	 57.4858
488	 58.514
472	 58.8304
456	 60.9012
440	 59.3772
424	 61.8522
408	 61.5477
392	 43.58
376	 26.8833
370	 41.494