Folder: Masteroppgave/Bakgrunnsmateriale/MATLAB/FTIR/ftir_data/subCa/Mapping_25 (part 6)

File: BZ12041010-4_t10.asc
PE IR       SPECTRUM    SPECTRUM    ASCII       PEDS        1.60
  -1
BZ2ABE~1.ASC
17/04/10
09:38:13.00
17/04/10
09:38:40.00
tln
$BZ12041010-4_t0010$<tbV0>[-5.2,-9.8,9.0,0.0,22,1,0]
27.028
64

2002,4.07
MIRTGS : RIGHTBACK : INTERNAL 2
MIR : ON : INTERNAL 2
OPTKBR

0.200000
8
8.000000
FILLER
RATIO
SPECTRUM
UNLOCKED 256

DOUBLE
64
COMBINED
1
0
0

0.002000
RATIO

1
0
TRUE
51149
0
LEFT NOT FITTED RIGHT NOT FITTED 0
NONE
NONE
15600
12
4.427000
51148
TRUE
1 0 8 72 0 0 0 0

15798

#HDR
-1
-1
#GR
µM
%T
2.38419e-05
0.0
2.000000
0.002000
12515
8
85.0314
12.7582
#DATA
2.000000	 64.7877
2.084000	 65.3033
2.168000	 65.0392
2.252000	 64.9703
2.336000	 64.9758
2.420000	 65.0707
2.504000	 65.3118
2.588000	 65.135
2.672000	 65.574
2.756000	 65.5079
2.840000	 65.4227
2.924000	 65.3253
3.008000	 65.3012
3.092000	 65.3755
3.176000	 65.3268
3.260000	 65.164
3.344000	 65.159
3.428000	 65.2898
3.512000	 65.3248
3.596000	 65.4637
3.680000	 65.3369
3.764000	 65.3568
3.848000	 65.2533
3.932000	 65.2798
4.016000	 65.4108
4.100000	 65.3446
4.184000	 65.2173
4.268000	 65.2663
4.352000	 65.4433
4.436000	 65.3881
4.520000	 65.442
4.604000	 65.3552
4.688000	 65.3426
4.772000	 65.3801
4.856000	 65.3481
4.940000	 65.4055
5.024000	 65.3499
5.108000	 65.4113
5.192000	 65.4202
5.276000	 65.3817
5.359999	 65.3943
5.444000	 65.3237
5.528000	 65.3992
5.612000	 65.3952
5.696000	 65.4247
5.780000	 65.2613
5.864000	 65.3097
5.948000	 65.5078
6.032000	 65.4696
6.116000	 65.4886
6.200000	 65.3705
6.284000	 65.2238
6.368000	 65.4606
6.452000	 65.4347
6.536000	 65.4984
6.620000	 65.5542
6.704000	 65.5477
6.788000	 65.49
6.872000	 65.4583
6.956000	 65.3967
7.040000	 65.4134
7.124000	 65.3103
7.208000	 65.2691
7.292000	 65.2446
7.376000	 65.1927
7.460000	 65.2565
7.544000	 65.2276
7.628000	 65.3137
7.712000	 65.16
7.796000	 65.3117
7.880000	 65.3808
7.964000	 65.2176
8.048000	 65.2462
8.132000	 65.1829
8.216000	 65.2436
8.300000	 65.2561
8.384000	 65.1816
8.468000	 65.2027
8.552000	 65.2668
8.635999	 65.1827
8.719999	 65.2118
8.804000	 65.1408
8.888000	 65.244
8.972000	 65.208
9.056000	 65.0657
9.140000	 65.2135
9.224000	 65.3044
9.308000	 65.3995
9.391999	 65.1266
9.475999	 65.2984
9.560000	 65.1737
9.644000	 64.9013
9.728000	 65.1696
9.812000	 65.1915
9.896000	 65.2449
9.980000	 65.2972
10.064	65.0977
10.148	65.1304
10.232	65.1161
10.316	65.2967
10.4	65.2348
10.484	65.1983
10.568	65.4421
10.652	65.444
10.736	65.5013
10.82	65.4275
10.904	65.2926
10.988	65.3458
11.072	65.2805
11.156	65.4134
11.24	65.4634
11.324	65.4494
11.408	65.4686
11.492	65.5151
11.576	65.5235
11.66	65.5906
11.744	65.6109
11.828	65.5921
11.912	65.5024
11.996	65.4556
12.08	65.6475
12.164	65.4922
12.248	65.4579
12.332	65.6359
12.416	65.526
12.5	65.3252
12.584	65.4173
12.668	65.6277
12.752	65.7075
12.836	65.8067
12.92	65.7933
13.004	65.8
13.088	65.6973
13.172	65.5347
13.256	65.4973
13.34	65.5743
13.424	65.5765
13.508	65.5923
13.592	65.7106
13.676	65.6932
13.76	65.6499
13.844	65.6554
13.928	65.6178
14.012	65.5408
14.096	65.5487
14.18	65.513
14.264	65.3808
14.348	65.2655
14.432	65.2785
14.516	65.4488
14.6	65.638
14.684	65.7579
14.768	65.7945
14.852	65.7864
14.936	65.7275
15.02	65.6546
15.104	65.6824
15.188	65.7756
15.272	65.8666
15.356	65.8787
15.44	65.7561
15.524	65.6514
15.608	65.6504
15.692	65.6085
15.776	65.461
15.86	65.3128
15.944	65.3275
16.028	65.5871
16.112	65.9493
16.196	66.1777
16.28	66.2088
16.364	66.1518
16.448	66.0906
16.532	66.0159
16.616	65.9449
16.7	65.9425
16.784	66.0122
16.868	66.0998
16.952	66.1163
17.036	66.0153
17.12	65.8472
17.204	65.6646
17.288	65.5413
17.372	65.5913
17.456	65.8167
17.54	66.0513
17.624	66.1356
17.708	66.0712
17.792	65.956
17.876	65.8698
17.96	65.855
18.044	65.9415
18.128	66.129
18.212	66.3484
18.296	66.4925
18.38	66.5091
18.464	66.4475
18.548	66.397
18.632	66.4025
18.716	66.4398
18.8	66.4603
18.884	66.4417
18.968	66.3962
19.052	66.3476
19.136	66.3147
19.22	66.292
19.304	66.23
19.388	66.0856
19.472	65.9028
19.556	65.7843
19.64	65.7803
19.724	65.8502
19.808	65.9219
19.892	65.9576
19.976	65.9808
20.06	66.0557
20.144	66.2173
20.228	66.4194
20.312	66.5606
20.396	66.5724
20.48	66.4686
20.564	66.3204
20.648	66.1782
20.732	66.0449
20.816	65.9063
20.9	65.7761
20.984	65.6879
21.068	65.6451
21.152	65.5988
21.236	65.4867
21.32	65.2971
21.404	65.0988
21.488	65.0015
21.572	65.0824
21.656	65.3508
21.74	65.7531
21.824	66.2077
21.908	66.6353
21.992	66.9595
22.076	67.1109
22.16	67.0575
22.244	66.8316
22.328	66.5365
22.412	66.3116
22.496	66.2597
22.58	66.4006
22.664	66.6769
22.748	66.9767
22.832	67.1906
22.916	67.2297
23	67.0645
23.084	66.7168
23.168	66.274
23.252	65.8761
23.336	65.6939
23.42	65.855
23.504	66.4007
23.588	67.1964
23.672	67.9642
23.756	68.3832
23.84	68.2002
23.924	67.3712
24.008	66.0784
24.092	64.6455
24.176	63.3952
24.26	62.4959
24.344	61.9111
24.428	61.4544
24.512	60.9205
24.596	60.1875
24.68	59.3154
24.764	58.5637
24.848	58.1699
24.932	58.3869
25.016	59.4016
25.1	61.2359
25.184	63.8162
25.268	67.0122
25.352	70.6821
25.436	74.5798
25.52	78.34
25.604	81.5411
25.688	83.8017
25.772	84.9124
25.856	84.8774
25.94	83.8137
26.024	81.9439
26.108	79.5653
26.192	76.9203
26.276	74.0733
26.36	71.049
26.444	67.4775
26.528	62.7285
26.612	56.1512
26.696	47.5117
26.78	37.2458
26.864	26.7149
26.948	17.8577
27.028	12.7582

File: BZ12041010-4_t10_cm-1.asc
PE IR       SPECTRUM    SPECTRUM    ASCII       PEDS        1.60
  -1
BZ2CF4~1.ASC
17/04/10
09:38:13.00
17/04/10
09:38:13.00
tln
$BZ12041010-4_t0010$<tbV0>[-5.2,-9.8,9.0,0.0,22,1,0]
370
64

2002,4.07
MIRTGS : RIGHTBACK : INTERNAL 2
MIR : ON : INTERNAL 2
OPTKBR

0.200000
8
8.000000
FILLER
RATIO
SPECTRUM
UNLOCKED 256

DOUBLE
64
COMBINED
1
0
0

1.000000
RATIO

1
0
TRUE
51149
0
LEFT NOT FITTED RIGHT NOT FITTED 0
NONE
NONE
15600
12
4.427000
51148
TRUE
1 0 8 72 0 0 0 0

15798

#HDR
-1
-1
#GR
CM-1
%T
2.38419e-05
0.0
5000
-1.000000
4631
8
84.9677
12.7582
#DATA
5000	64.7877
4984	64.6894
4968	64.8411
4952	65.198
4936	65.0103
4920	65.0717
4904	65.263
4888	64.4757
4872	64.865
4856	64.4886
4840	65.5928
4824	64.3586
4808	64.7503
4792	64.4099
4776	64.562
4760	65.3274
4744	64.9669
4728	64.5789
4712	65.8204
4696	63.6832
4680	64.7585
4664	65.0763
4648	65.8815
4632	65.4936
4616	64.9808
4600	64.9026
4584	64.7832
4568	65.4013
4552	65.1052
4536	65.4608
4520	65.1292
4504	65.8854
4488	59.6741
4472	65.6332
4456	62.915
4440	64.9091
4424	65.1642
4408	66.0831
4392	65.4597
4376	65.356
4360	64.9621
4344	65.413
4328	65.4731
4312	65.3476
4296	65.556
4280	65.0205
4264	64.9832
4248	65.3317
4232	64.981
4216	65.1718
4200	64.7814
4184	65.2879
4168	65.1195
4152	65.0285
4136	65.0988
4120	65.073
4104	65.2122
4088	65.1576
4072	64.978
4056	65.4168
4040	65.3213
4024	65.1872
4008	65.2219
3992	65.2809
3976	65.3158
3960	65.1587
3944	65.2704
3928	65.2363
3912	65.0769
3896	65.4807
3880	65.4966
3864	65.135
3848	65.32
3832	65.4724
3816	65.3691
3800	65.4656
3784	65.4897
3768	65.2351
3752	65.4601
3736	65.6576
3720	65.2625
3704	65.1497
3688	65.4968
3672	65.4401
3656	65.3786
3640	65.2699
3624	65.4229
3608	65.4808
3592	65.2851
3576	65.3972
3560	65.4598
3544	65.3911
3528	65.3966
3512	65.1789
3496	65.2975
3480	65.1901
3464	65.2842
3448	65.3931
3432	65.2944
3416	65.2943
3400	65.4064
3384	65.3368
3368	65.3313
3352	65.2303
3336	65.3349
3320	65.3034
3304	65.1645
3288	65.285
3272	65.327
3256	65.4368
3240	65.3616
3224	65.2527
3208	65.4277
3192	65.2908
3176	65.2099
3160	65.2053
3144	65.3707
3128	65.1728
3112	65.3882
3096	65.2527
3080	65.2428
3064	65.2178
3048	65.2695
3032	65.3398
3016	65.1852
3000	65.1544
2984	65.1768
2968	65.1225
2952	65.1756
2936	65.1214
2920	65.2225
2904	65.2564
2888	65.2342
2872	65.16
2856	65.235
2840	65.2821
2824	65.1843
2808	65.376
2792	65.3574
2776	65.3637
2760	65.3502
2744	65.399
2728	65.4096
2712	65.2845
2696	65.2825
2680	65.2121
2664	65.3751
2648	65.3185
2632	65.3331
2616	65.3298
2600	65.2742
2584	65.3152
2568	65.2449
2552	65.2875
2536	65.3473
2520	65.2652
2504	65.2827
2488	65.3613
2472	65.3311
2456	65.4046
2440	65.3335
2424	65.4483
2408	65.2499
2392	65.2072
2376	65.3836
2360	65.279
2344	65.2524
2328	65.3654
2312	65.416
2296	65.4315
2280	65.4339
2264	65.4302
2248	65.3256
2232	65.3604
2216	65.5165
2200	65.4022
2184	65.3445
2168	65.3451
2152	65.3652
2136	65.3413
2120	65.3829
2104	65.3167
2088	65.4373
2072	65.4201
2056	65.3309
2040	65.3385
2024	65.404
2008	65.2854
1992	65.339
1976	65.3476
1960	65.3858
1944	65.3128
1928	65.4171
1912	65.2784
1896	65.3793
1880	65.2949
1864	65.4039
1848	65.4599
1832	65.3406
1816	65.3267
1800	65.387
1784	65.4298
1768	65.4363
1752	65.3928
1736	65.3298
1720	65.3623
1704	65.3433
1688	65.4401
1672	65.4667
1656	65.5711
1640	65.4687
1624	65.3503
1608	65.3387
1592	65.2266
1576	65.4255
1560	65.887
1544	65.5714
1528	65.5354
1512	65.5048
1496	65.512
1480	65.4179
1464	65.4684
1448	65.2206
1432	65.352
1416	65.3736
1400	65.3369
1384	65.3127
1368	65.2264
1352	65.2243
1336	65.3055
1320	65.3287
1304	65.1599
1288	65.2673
1272	65.348
1256	65.2174
1240	65.2029
1224	65.2675
1208	65.2921
1192	65.187
1176	65.2246
1160	65.1737
1144	65.2096
1128	65.2548
1112	65.2395
1096	65.1708
1080	65.414
1064	65.1375
1048	65.2561
1032	65.0336
1016	65.1817
1000	65.2725
984	 65.1127
968	 65.3096
952	 65.2515
936	 65.4551
920	 65.2999
904	 65.2723
888	 65.4702
872	 65.5273
856	 65.5993
840	 65.514
824	 65.5841
808	 65.6175
792	 65.5403
776	 65.805
760	 65.5559
744	 65.5682
728	 65.6554
712	 65.5351
696	 65.2527
680	 65.7746
664	 65.6537
648	 65.7702
632	 65.3683
616	 66.2114
600	 65.9332
584	 65.8401
568	 66.1324
552	 66.0977
536	 66.4124
520	 66.2875
504	 65.9406
488	 66.4489
472	 65.5633
456	 66.7327
440	 66.9067
424	 67.1664
408	 60.9369
392	 77.925
376	 57.5881
370	 12.7582

File: BZ12041010-4_t11.asc
PE IR       SPECTRUM    SPECTRUM    ASCII       PEDS        1.60
  -1
BZ2AB2~1.ASC
17/04/10
09:50:33.00
17/04/10
09:51:00.00
tln
$BZ12041010-4_t0011$<tbV0>[5.2,-7.2,9.0,0.0,22,1,0]
27.028
64

2002,4.07
MIRTGS : RIGHTBACK : INTERNAL 2
MIR : ON : INTERNAL 2
OPTKBR

0.200000
8
8.000000
FILLER
RATIO
SPECTRUM
UNLOCKED 256

DOUBLE
64
COMBINED
1
0
0

0.002000
RATIO

1
0
TRUE
51149
0
LEFT NOT FITTED RIGHT NOT FITTED 0
NONE
NONE
15600
12
4.427000
51148
TRUE
1 0 8 72 0 0 0 0

15798

#HDR
-1
-1
#GR
µM
%T
2.38419e-05
0.0
2.000000
0.002000
12515
8
98.6775
26.442
#DATA
2.000000	 64.7082
2.084000	 65.9718
2.168000	 64.5195
2.252000	 63.4412
2.336000	 64.9713
2.420000	 65.4302
2.504000	 64.8352
2.588000	 65.0681
2.672000	 65.29
2.756000	 65.3257
2.840000	 65.3125
2.924000	 65.0229
3.008000	 65.2771
3.092000	 65.2598
3.176000	 65.3386
3.260000	 65.1406
3.344000	 65.2548
3.428000	 65.211
3.512000	 65.2468
3.596000	 65.2851
3.680000	 65.371
3.764000	 65.2823
3.848000	 65.2559
3.932000	 65.3229
4.016000	 65.3815
4.100000	 65.3347
4.184000	 65.3117
4.268000	 65.3439
4.352000	 65.348
4.436000	 65.2137
4.520000	 65.2961
4.604000	 65.3291
4.688000	 65.2239
4.772000	 65.2397
4.856000	 65.3247
4.940000	 65.2266
5.024000	 65.3073
5.108000	 65.3869
5.192000	 65.3016
5.276000	 65.3295
5.359999	 65.3036
5.444000	 65.3555
5.528000	 65.1995
5.612000	 65.2098
5.696000	 65.1389
5.780000	 65.1091
5.864000	 65.1109
5.948000	 65.0487
6.032000	 65.1195
6.116000	 65.2871
6.200000	 65.1825
6.284000	 65.3094
6.368000	 65.201
6.452000	 65.2309
6.536000	 65.1286
6.620000	 65.3384
6.704000	 65.2923
6.788000	 65.2029
6.872000	 65.2062
6.956000	 65.2089
7.040000	 65.1497
7.124000	 65.0644
7.208000	 65.2029
7.292000	 65.2719
7.376000	 65.0456
7.460000	 65.0656
7.544000	 65.1697
7.628000	 65.1317
7.712000	 65.1649
7.796000	 65.1166
7.880000	 65.1198
7.964000	 65.0758
8.048000	 65.1889
8.132000	 65.2975
8.216000	 65.0791
8.300000	 65.3417
8.384000	 65.1667
8.468000	 65.2445
8.552000	 65.2101
8.635999	 65.066
8.719999	 65.1239
8.804000	 65.1213
8.888000	 65.211
8.972000	 65.0482
9.056000	 65.103
9.140000	 65.1712
9.224000	 65.1582
9.308000	 64.9978
9.391999	 65.2034
9.475999	 65.2947
9.560000	 65.0176
9.644000	 65.0992
9.728000	 65.0974
9.812000	 65.174
9.896000	 65.1585
9.980000	 65.0931
10.064	65.0294
10.148	65.1457
10.232	65.1681
10.316	64.9487
10.4	65.2034
10.484	65.1876
10.568	64.9721
10.652	65.1344
10.736	64.9749
10.82	65.0554
10.904	65.2718
10.988	65.25
11.072	65.3006
11.156	65.3345
11.24	65.3882
11.324	65.1903
11.408	65.2075
11.492	65.2382
11.576	65.2931
11.66	65.1983
11.744	65.203
11.828	65.3891
11.912	65.4044
11.996	65.4415
12.08	65.4913
12.164	65.4467
12.248	65.399
12.332	65.4772
12.416	65.5473
12.5	65.4207
12.584	65.3146
12.668	65.2205
12.752	65.1169
12.836	65.2259
12.92	65.2853
13.004	65.3455
13.088	65.3801
13.172	65.3702
13.256	65.3865
13.34	65.4766
13.424	65.3413
13.508	65.1468
13.592	65.1617
13.676	65.2661
13.76	65.4046
13.844	65.59
13.928	65.5921
14.012	65.347
14.096	65.353
14.18	65.5744
14.264	65.5936
14.348	65.5213
14.432	65.392
14.516	65.1718
14.6	65.1623
14.684	65.3377
14.768	65.4592
14.852	65.4259
14.936	65.2317
15.02	65.1437
15.104	65.2941
15.188	65.4335
15.272	65.3803
15.356	65.1974
15.44	65.0512
15.524	65.0839
15.608	65.2548
15.692	65.3524
15.776	65.3071
15.86	65.2714
15.944	65.3619
16.028	65.498
16.112	65.5328
16.196	65.4879
16.28	65.4738
16.364	65.4604
16.448	65.4379
16.532	65.5211
16.616	65.6508
16.7	65.6122
16.784	65.4374
16.868	65.368
16.952	65.4568
17.036	65.5338
17.12	65.4776
17.204	65.3412
17.288	65.2927
17.372	65.4361
17.456	65.6653
17.54	65.7718
17.624	65.6881
17.708	65.5053
17.792	65.3129
17.876	65.1531
17.96	65.0857
18.044	65.1737
18.128	65.4178
18.212	65.7225
18.296	65.9405
18.38	65.9686
18.464	65.8291
18.548	65.6631
18.632	65.6253
18.716	65.751
18.8	65.9283
18.884	66.0013
18.968	65.9085
19.052	65.7318
19.136	65.6081
19.22	65.6115
19.304	65.7014
19.388	65.7817
19.472	65.7815
19.556	65.6861
19.64	65.5257
19.724	65.3527
19.808	65.2206
19.892	65.1568
19.976	65.1597
20.06	65.2272
20.144	65.3876
20.228	65.6782
20.312	66.0585
20.396	66.3818
20.48	66.4863
20.564	66.3255
20.648	65.9947
20.732	65.6595
20.816	65.4524
20.9	65.4246
20.984	65.5333
21.068	65.6693
21.152	65.7175
21.236	65.6225
21.32	65.4295
21.404	65.2586
21.488	65.2123
21.572	65.3033
21.656	65.4703
21.74	65.6537
21.824	65.866
21.908	66.1837
21.992	66.6598
22.076	67.2461
22.16	67.7763
22.244	68.0436
22.328	67.93
22.412	67.4826
22.496	66.911
22.58	66.4586
22.664	66.2911
22.748	66.4259
22.832	66.756
22.916	67.1151
23	67.3966
23.084	67.5739
23.168	67.6724
23.252	67.7148
23.336	67.6903
23.42	67.578
23.504	67.3235
23.588	66.8806
23.672	66.2336
23.756	65.3986
23.84	64.5106
23.924	63.7892
24.008	63.4424
24.092	63.5475
24.176	63.9532
24.26	64.2772
24.344	64.0511
24.428	63.0116
24.512	61.218
24.596	59.1272
24.68	57.3624
24.764	56.3597
24.848	56.1235
24.932	56.2026
25.016	55.8925
25.1	54.5739
25.184	51.8316
25.268	47.6751
25.352	42.5456
25.436	37.0773
25.52	32.053
25.604	28.2863
25.688	26.6373
25.772	26.8819
25.856	27.5073
25.94	27.1196
26.024	26.4553
26.108	29.2163
26.192	37.1851
26.276	48.6707
26.36	56.2065
26.444	55.8127
26.528	49.2697
26.612	47.5366
26.696	58.1548
26.78	77.6961
26.864	89.7679
26.948	77.3321
27.028	44.8045

File: BZ12041010-4_t11_cm-1.asc
PE IR       SPECTRUM    SPECTRUM    ASCII       PEDS        1.60
  -1
BZ2C74~1.ASC
17/04/10
09:50:33.00
17/04/10
09:50:33.00
tln
$BZ12041010-4_t0011$<tbV0>[5.2,-7.2,9.0,0.0,22,1,0]
370
64

2002,4.07
MIRTGS : RIGHTBACK : INTERNAL 2
MIR : ON : INTERNAL 2
OPTKBR

0.200000
8
8.000000
FILLER
RATIO
SPECTRUM
UNLOCKED 256

DOUBLE
64
COMBINED
1
0
0

1.000000
RATIO

1
0
TRUE
51149
0
LEFT NOT FITTED RIGHT NOT FITTED 0
NONE
NONE
15600
12
4.427000
51148
TRUE
1 0 8 72 0 0 0 0

15798

#HDR
-1
-1
#GR
CM-1
%T
2.38419e-05
0.0
5000
-1.000000
4631
8
102.072
26.5586
#DATA
5000	64.7082
4984	64.7984
4968	64.6223
4952	64.7992
4936	63.9341
4920	64.6692
4904	65.5653
4888	65.4779
4872	67.4134
4856	66.1279
4840	68.3042
4824	65.005
4808	64.2329
4792	65.6127
4776	65.7332
4760	64.8063
4744	65.2497
4728	65.4473
4712	65.4558
4696	65.1086
4680	65.1355
4664	65.1521
4648	64.7264
4632	64.2238
4616	64.699
4600	64.6935
4584	64.2684
4568	64.2817
4552	63.5042
4536	63.9055
4520	64.1179
4504	64.3837
4488	64.2898
4472	65.4978
4456	97.4283
4440	63.4773
4424	62.3645
4408	63.6832
4392	64.3764
4376	63.577
4360	64.0995
4344	64.4896
4328	64.8758
4312	64.6523
4296	64.7433
4280	64.9929
4264	64.8831
4248	64.8567
4232	65.4159
4216	65.0757
4200	65.2242
4184	65.4439
4168	65.636
4152	65.3232
4136	65.2679
4120	64.9593
4104	65.4011
4088	65.5665
4072	65.3924
4056	64.9378
4040	65.1186
4024	65.1527
4008	64.9029
3992	64.9033
3976	64.9613
3960	64.9848
3944	65.0574
3928	65.0606
3912	64.9048
3896	64.9664
3880	65.2442
3864	65.0682
3848	65.1113
3832	65.0436
3816	65.2117
3800	65.2859
3784	65.3329
3768	65.1824
3752	65.0937
3736	65.3647
3720	65.434
3704	65.4538
3688	65.5154
3672	65.2535
3656	65.3783
3640	65.5663
3624	65.2815
3608	65.3087
3592	65.5116
3576	65.2848
3560	65.2044
3544	65.1691
3528	65.2851
3512	65.2775
3496	65.1139
3480	65.008
3464	65.0875
3448	65.111
3432	65.1313
3416	64.986
3400	65.1749
3384	65.2759
3368	65.2548
3352	65.2264
3336	65.3798
3320	65.2331
3304	65.3472
3288	65.2458
3272	65.0768
3256	65.3825
3240	65.263
3224	65.4878
3208	65.2232
3192	65.2841
3176	65.2624
3160	65.2157
3144	65.3403
3128	65.2581
3112	65.4017
3096	65.3387
3080	65.0726
3064	65.0794
3048	65.2748
3032	65.2144
3016	65.2348
3000	65.1882
2984	65.1839
2968	65.242
2952	65.3462
2936	65.055
2920	65.189
2904	65.2315
2888	65.2256
2872	65.244
2856	65.1583
2840	65.2435
2824	65.2591
2808	65.2831
2792	65.2939
2776	65.2109
2760	65.3003
2744	65.201
2728	65.3221
2712	65.2718
2696	65.2315
2680	65.2171
2664	65.2604
2648	65.2545
2632	65.1845
2616	65.305
2600	65.237
2584	65.257
2568	65.3467
2552	65.2482
2536	65.2622
2520	65.3088
2504	65.3034
2488	65.3608
2472	65.3408
2456	65.3582
2440	65.3317
2424	65.3583
2408	65.3802
2392	65.3046
2376	65.339
2360	65.3497
2344	65.339
2328	65.3253
2312	65.3268
2296	65.3321
2280	65.164
2264	65.331
2248	65.1964
2232	65.2858
2216	65.2687
2200	65.2273
2184	65.2337
2168	65.3687
2152	65.2254
2136	65.2454
2120	65.3029
2104	65.3638
2088	65.2817
2072	65.2775
2056	65.3436
2040	65.3027
2024	65.2267
2008	65.3529
1992	65.2981
1976	65.3593
1960	65.398
1944	65.3518
1928	65.3059
1912	65.3391
1896	65.3389
1880	65.2468
1864	65.2927
1848	65.3014
1832	65.3095
1816	65.2643
1800	65.2318
1784	65.2028
1768	65.1635
1752	65.1499
1736	65.1402
1720	65.0404
1704	65.0996
1688	65.1445
1672	65.1218
1656	65.1476
1640	65.1395
1624	65.1597
1608	65.2655
1592	65.3081
1576	65.1994
1560	65.2512
1544	65.1124
1528	65.1159
1512	65.345
1496	65.3135
1480	65.1151
1464	65.2269
1448	65.2016
1432	65.1562
1416	65.1391
1400	65.1591
1384	65.2268
1368	65.2776
1352	65.0509
1336	65.1007
1320	65.1604
1304	65.1331
1288	65.1275
1272	65.0942
1256	65.0713
1240	65.1614
1224	65.2331
1208	65.2639
1192	65.177
1176	65.2395
1160	65.0539
1144	65.1182
1128	65.2198
1112	65.0495
1096	65.1385
1080	65.0644
1064	65.2078
1048	65.0518
1032	65.0799
1016	65.167
1000	65.0454
984	 65.1896
968	 64.9791
952	 65.1119
936	 65.0656
920	 65.1775
904	 65.2807
888	 65.3495
872	 65.2227
856	 65.1741
840	 65.4065
824	 65.468
808	 65.5374
792	 65.2812
776	 65.2724
760	 65.3733
744	 65.2908
728	 65.3595
712	 65.2985
696	 65.5028
680	 65.3796
664	 65.1966
648	 65.0587
632	 65.2744
616	 65.4761
600	 65.6541
584	 65.473
568	 65.719
552	 65.3759
536	 65.648
520	 65.6199
504	 65.1869
488	 66.4791
472	 65.6956
456	 66.2915
440	 66.3684
424	 66.9004
408	 61.2702
392	 32.5848
376	 46.875
370	 44.8045

File: BZ12041010-4_t12.asc
PE IR       SPECTRUM    SPECTRUM    ASCII       PEDS        1.60
  -1
BZ2AB6~1.ASC
17/04/10
09:55:10.00
17/04/10
09:55:36.00
tln
$BZ12041010-4_t0012$<tbV0>[2.6,-7.2,9.0,0.0,22,1,0]
27.028
64

2002,4.07
MIRTGS : RIGHTBACK : INTERNAL 2
MIR : ON : INTERNAL 2
OPTKBR

0.200000
8
8.000000
FILLER
RATIO
SPECTRUM
UNLOCKED 256

DOUBLE
64
COMBINED
1
0
0

0.002000
RATIO

1
0
TRUE
51149
0
LEFT NOT FITTED RIGHT NOT FITTED 0
NONE
NONE
15600
12
4.427000
51148
TRUE
1 0 8 72 0 0 0 0

15798

#HDR
-1
-1
#GR
µM
%T
2.38419e-05
0.0
2.000000
0.002000
12515
8
153.169
36.9501
#DATA
2.000000	 64.8086
2.084000	 64.7391
2.168000	 64.8673
2.252000	 64.4823
2.336000	 64.9166
2.420000	 65.0812
2.504000	 64.9591
2.588000	 65.3479
2.672000	 65.2312
2.756000	 65.2584
2.840000	 65.2028
2.924000	 65.1277
3.008000	 65.1852
3.092000	 65.2901
3.176000	 65.2557
3.260000	 65.2563
3.344000	 65.2758
3.428000	 65.0577
3.512000	 65.1787
3.596000	 65.3332
3.680000	 65.3785
3.764000	 65.3214
3.848000	 65.3203
3.932000	 65.2696
4.016000	 65.3378
4.100000	 65.4026
4.184000	 65.3468
4.268000	 65.2251
4.352000	 65.3602
4.436000	 65.2129
4.520000	 65.2402
4.604000	 65.3627
4.688000	 65.2251
4.772000	 65.2778
4.856000	 65.301
4.940000	 65.2989
5.024000	 65.2502
5.108000	 65.2966
5.192000	 65.323
5.276000	 65.3329
5.359999	 65.2344
5.444000	 65.271
5.528000	 65.2734
5.612000	 65.1813
5.696000	 65.1639
5.780000	 65.1523
5.864000	 65.2687
5.948000	 65.2481
6.032000	 65.2002
6.116000	 65.2258
6.200000	 65.3475
6.284000	 65.2056
6.368000	 65.1824
6.452000	 65.1119
6.536000	 65.2672
6.620000	 65.1746
6.704000	 65.2669
6.788000	 65.3389
6.872000	 65.2571
6.956000	 65.1304
7.040000	 65.2318
7.124000	 65.1509
7.208000	 65.2044
7.292000	 65.3276
7.376000	 65.1786
7.460000	 65.1961
7.544000	 65.2469
7.628000	 65.229
7.712000	 65.1246
7.796000	 65.2121
7.880000	 65.2278
7.964000	 65.1049
8.048000	 65.1168
8.132000	 65.2042
8.216000	 65.1256
8.300000	 65.1239
8.384000	 65.1461
8.468000	 65.1061
8.552000	 65.1575
8.635999	 65.2487
8.719999	 65.169
8.804000	 65.0838
8.888000	 65.1055
8.972000	 65.0751
9.056000	 65.0597
9.140000	 65.1639
9.224000	 65.1383
9.308000	 64.919
9.391999	 65.0986
9.475999	 65.0101
9.560000	 65.1212
9.644000	 65.2501
9.728000	 65.0428
9.812000	 64.9798
9.896000	 65.1226
9.980000	 65.1711
10.064	65.1788
10.148	65.2834
10.232	65.3224
10.316	65.3554
10.4	65.2413
10.484	65.2871
10.568	65.5508
10.652	65.3329
10.736	65.1179
10.82	65.1992
10.904	65.1315
10.988	65.1807
11.072	65.2627
11.156	65.3885
11.24	65.4292
11.324	65.5019
11.408	65.342
11.492	65.3356
11.576	65.3798
11.66	65.4153
11.744	65.4338
11.828	65.3305
11.912	65.3175
11.996	65.2703
12.08	65.4647
12.164	65.4747
12.248	65.3537
12.332	65.3834
12.416	65.4297
12.5	65.3417
12.584	65.0925
12.668	65.0854
12.752	65.2601
12.836	65.3992
12.92	65.4456
13.004	65.4052
13.088	65.4233
13.172	65.4047
13.256	65.4802
13.34	65.4867
13.424	65.4558
13.508	65.4284
13.592	65.3671
13.676	65.3194
13.76	65.345
13.844	65.4014
13.928	65.4236
14.012	65.2809
14.096	65.1169
14.18	65.2154
14.264	65.3964
14.348	65.4471
14.432	65.4379
14.516	65.3128
14.6	65.2666
14.684	65.4317
14.768	65.4675
14.852	65.3763
14.936	65.411
15.02	65.5466
15.104	65.6544
15.188	65.6796
15.272	65.6064
15.356	65.4612
15.44	65.3406
15.524	65.2975
15.608	65.2949
15.692	65.3326
15.776	65.3894
15.86	65.4139
15.944	65.4478
16.028	65.5252
16.112	65.5924
16.196	65.627
16.28	65.6489
16.364	65.6631
16.448	65.6829
16.532	65.6963
16.616	65.6104
16.7	65.3954
16.784	65.2141
16.868	65.2305
16.952	65.3732
17.036	65.4335
17.12	65.3119
17.204	65.0848
17.288	64.9006
17.372	64.8638
17.456	64.9794
17.54	65.1874
17.624	65.4401
17.708	65.6928
17.792	65.8644
17.876	65.9003
17.96	65.8694
18.044	65.9009
18.128	66.0384
18.212	66.1907
18.296	66.236
18.38	66.1309
18.464	65.9253
18.548	65.7202
18.632	65.626
18.716	65.682
18.8	65.8062
18.884	65.872
18.968	65.8351
19.052	65.7702
19.136	65.7684
19.22	65.8451
19.304	65.9445
19.388	66.0041
19.472	65.9908
19.556	65.9124
19.64	65.8123
19.724	65.7303
19.808	65.6656
19.892	65.5785
19.976	65.4399
20.06	65.2651
20.144	65.1168
20.228	65.0649
20.312	65.1309
20.396	65.2695
20.48	65.4051
20.564	65.4792
20.648	65.4621
20.732	65.3664
20.816	65.2588
20.9	65.2511
20.984	65.4186
21.068	65.727
21.152	66.0419
21.236	66.2166
21.32	66.1807
21.404	65.9811
21.488	65.7327
21.572	65.5386
21.656	65.4626
21.74	65.5231
21.824	65.7243
21.908	66.0754
21.992	66.5659
22.076	67.1405
22.16	67.6859
22.244	68.0322
22.328	68.065
22.412	67.7958
22.496	67.4181
22.58	67.1935
22.664	67.3091
22.748	67.7349
22.832	68.2003
22.916	68.3188
23	67.8183
23.084	66.6874
23.168	65.2296
23.252	63.9244
23.336	63.2707
23.42	63.5718
23.504	64.8569
23.588	66.8623
23.672	69.1587
23.756	71.2822
23.84	72.9718
23.924	74.1971
24.008	75.128
24.092	76.0196
24.176	76.999
24.26	77.9546
24.344	78.5581
24.428	78.4646
24.512	77.4721
24.596	75.758
24.68	73.7781
24.764	72.0268
24.848	70.9211
24.932	70.6339
25.016	71.0157
25.1	71.825
25.184	72.5476
25.268	72.5755
25.352	71.4711
25.436	68.9956
25.52	65.1849
25.604	60.2654
25.688	55.1136
25.772	50.3902
25.856	45.9807
25.94	41.6147
26.024	37.9504
26.108	37.0849
26.192	40.3902
26.276	47.5847
26.36	54.9584
26.444	60.6699
26.528	65.8818
26.612	76.5262
26.696	96.2518
26.78	121.949
26.864	143.997
26.948	152.924
27.028	150.538