Folder: Masteroppgave/Bakgrunnsmateriale/MATLAB/FTIR/ftir_data/subCa/Mapping_25 (part 5)

File: BZ12041010-4_t07_cm-1.asc
PE IR       SPECTRUM    SPECTRUM    ASCII       PEDS        1.60
  -1
BZAB75~1.ASC
17/04/10
09:24:22.00
17/04/10
09:24:22.00
tln
$BZ12041010-4_t0007$<tbV0>[2.6,-9.8,9.0,0.0,22,1,0]
370
64

2002,4.07
MIRTGS : RIGHTBACK : INTERNAL 2
MIR : ON : INTERNAL 2
OPTKBR

0.200000
8
8.000000
FILLER
RATIO
SPECTRUM
UNLOCKED 256

DOUBLE
64
COMBINED
1
0
0

1.000000
RATIO

1
0
TRUE
51149
0
LEFT NOT FITTED RIGHT NOT FITTED 0
NONE
NONE
15600
12
4.427000
51148
TRUE
1 0 8 72 0 0 0 0

15798

#HDR
-1
-1
#GR
CM-1
%T
2.38419e-05
0.0
5000
-1.000000
4631
8
120.947
51.9584
#DATA
5000	64.4613
4984	64.4421
4968	64.719
4952	65.0179
4936	64.5106
4920	64.7578
4904	64.2342
4888	64.9051
4872	64.503
4856	64.8268
4840	62.4878
4824	64.8726
4808	62.6287
4792	65.0038
4776	64.1864
4760	65.3461
4744	63.9351
4728	64.1045
4712	65.7918
4696	63.2389
4680	64.1866
4664	64.8278
4648	65.4191
4632	64.8888
4616	65.1597
4600	64.5514
4584	64.7772
4568	64.8902
4552	65.5851
4536	65.3742
4520	65.7475
4504	65.8632
4488	59.289
4472	61.5138
4456	62.8837
4440	65.5067
4424	65.9359
4408	65.3615
4392	65.5596
4376	65.6859
4360	65.1117
4344	64.9482
4328	65.1149
4312	65.0329
4296	65.2843
4280	64.6126
4264	64.6639
4248	64.7779
4232	64.5523
4216	64.6092
4200	64.6853
4184	64.5835
4168	64.7536
4152	64.83
4136	64.7848
4120	64.7518
4104	65.1261
4088	64.8201
4072	65.0353
4056	64.8936
4040	64.5336
4024	65.0605
4008	64.8715
3992	65.1846
3976	65.2126
3960	64.8719
3944	64.9626
3928	65.2183
3912	64.8446
3896	65.2027
3880	65.2275
3864	65.0589
3848	65.1456
3832	65.1392
3816	65.0415
3800	65.0531
3784	65.1228
3768	64.9243
3752	65.0856
3736	65.2781
3720	65.0395
3704	64.813
3688	65.1187
3672	65.2668
3656	65.0168
3640	65.0968
3624	65.182
3608	65.226
3592	64.9175
3576	65.105
3560	65.1558
3544	64.9606
3528	65.171
3512	65.0745
3496	65.109
3480	65.0983
3464	65.3084
3448	65.0372
3432	65.1145
3416	65.0756
3400	64.8424
3384	64.9978
3368	65.1608
3352	64.8644
3336	64.9866
3320	64.8568
3304	64.9664
3288	64.9022
3272	64.8909
3256	65.1352
3240	65.0639
3224	65.0005
3208	65.0316
3192	65.095
3176	64.9255
3160	65.0096
3144	65.1577
3128	64.9352
3112	65.1331
3096	65.1569
3080	64.8885
3064	64.9989
3048	65.159
3032	64.8659
3016	64.9406
3000	65.0386
2984	65.0596
2968	65.0325
2952	65.1006
2936	64.9212
2920	64.9461
2904	65.1032
2888	65.1343
2872	65.1457
2856	65.0417
2840	65.0082
2824	65.1115
2808	65.0466
2792	65.1019
2776	65.0375
2760	65.0859
2744	65.1818
2728	65.1237
2712	65.1336
2696	65.0746
2680	65.0799
2664	65.1942
2648	65.1429
2632	65.1206
2616	65.1603
2600	65.1556
2584	65.1293
2568	65.0501
2552	65.0815
2536	65.0615
2520	65.0761
2504	65.1611
2488	65.1632
2472	65.1714
2456	65.1825
2440	65.1625
2424	65.2201
2408	65.1685
2392	65.1757
2376	65.2247
2360	65.2193
2344	65.053
2328	65.1576
2312	65.1649
2296	65.1809
2280	65.1673
2264	65.1318
2248	65.1667
2232	65.2246
2216	65.2874
2200	65.1375
2184	65.1261
2168	65.1967
2152	65.2589
2136	65.2032
2120	65.1607
2104	65.2323
2088	65.2439
2072	65.228
2056	65.2427
2040	65.1699
2024	65.2833
2008	65.2629
1992	65.2222
1976	65.206
1960	65.1657
1944	65.2346
1928	65.3081
1912	65.0764
1896	65.2616
1880	65.3225
1864	65.2886
1848	65.3587
1832	65.3068
1816	65.2699
1800	65.3119
1784	65.239
1768	65.4494
1752	65.2181
1736	65.3372
1720	65.2634
1704	65.4168
1688	65.4421
1672	65.4937
1656	65.3968
1640	65.26
1624	65.2533
1608	65.1486
1592	65.0151
1576	65.2385
1560	65.3934
1544	65.4997
1528	65.2748
1512	65.3728
1496	65.305
1480	65.1937
1464	65.2487
1448	65.0806
1432	65.3209
1416	65.2571
1400	65.3568
1384	65.126
1368	65.1297
1352	65.2763
1336	65.1844
1320	65.2105
1304	65.2413
1288	65.0771
1272	65.1834
1256	65.1099
1240	65.2161
1224	65.2675
1208	65.3179
1192	65.0709
1176	65.0408
1160	65.2105
1144	64.9805
1128	65.0198
1112	65.1765
1096	64.9903
1080	65.1453
1064	65.1702
1048	65.1128
1032	65.0594
1016	65.0183
1000	65.2358
984	 65.2182
968	 65.0657
952	 65.2099
936	 65.2351
920	 65.2511
904	 65.4193
888	 65.3692
872	 65.2138
856	 65.5025
840	 65.3686
824	 65.0264
808	 65.3636
792	 65.3525
776	 65.5474
760	 65.4794
744	 65.0968
728	 65.1612
712	 65.3288
696	 65.1925
680	 65.4119
664	 65.3836
648	 65.4181
632	 65.3747
616	 65.5558
600	 65.5683
584	 65.5552
568	 66.6354
552	 65.9374
536	 65.6467
520	 66.2613
504	 66.4116
488	 66.1418
472	 65.8698
456	 65.2195
440	 64.7339
424	 67.4042
408	 76.5909
392	 79.1829
376	 78.9064
370	 120.947

File: BZ12041010-4_t08.asc
PE IR       SPECTRUM    SPECTRUM    ASCII       PEDS        1.60
  -1
BZ46BE~1.ASC
17/04/10
09:29:00.00
17/04/10
09:29:26.00
tln
$BZ12041010-4_t0008$<tbV0>[0.0,-9.8,9.0,0.0,22,1,0]
27.028
64

2002,4.07
MIRTGS : RIGHTBACK : INTERNAL 2
MIR : ON : INTERNAL 2
OPTKBR

0.200000
8
8.000000
FILLER
RATIO
SPECTRUM
UNLOCKED 256

DOUBLE
64
COMBINED
1
0
0

0.002000
RATIO

1
0
TRUE
51149
0
LEFT NOT FITTED RIGHT NOT FITTED 0
NONE
NONE
15600
12
4.427000
51148
TRUE
1 0 8 72 0 0 0 0

15798

#HDR
-1
-1
#GR
µM
%T
2.38419e-05
0.0
2.000000
0.002000
12515
8
80.0818
-7.580685
#DATA
2.000000	 64.3792
2.084000	 65.242
2.168000	 64.7177
2.252000	 64.9134
2.336000	 64.7225
2.420000	 65.3635
2.504000	 65.1519
2.588000	 65.1922
2.672000	 65.514
2.756000	 65.4659
2.840000	 64.9426
2.924000	 65.1255
3.008000	 65.2249
3.092000	 65.2329
3.176000	 65.2286
3.260000	 65.0168
3.344000	 65.1247
3.428000	 65.1337
3.512000	 65.216
3.596000	 65.1781
3.680000	 65.2745
3.764000	 65.2215
3.848000	 65.2675
3.932000	 65.222
4.016000	 65.2504
4.100000	 65.2164
4.184000	 65.2376
4.268000	 65.2612
4.352000	 65.1938
4.436000	 65.2988
4.520000	 65.2779
4.604000	 65.2211
4.688000	 65.2615
4.772000	 65.2963
4.856000	 65.2831
4.940000	 65.2805
5.024000	 65.1901
5.108000	 65.2765
5.192000	 65.2668
5.276000	 65.2572
5.359999	 65.2204
5.444000	 65.1973
5.528000	 65.2611
5.612000	 65.2707
5.696000	 65.1587
5.780000	 65.1841
5.864000	 65.2706
5.948000	 65.5101
6.032000	 65.2515
6.116000	 65.296
6.200000	 65.348
6.284000	 65.073
6.368000	 65.2767
6.452000	 65.4255
6.536000	 65.2666
6.620000	 65.5162
6.704000	 65.3058
6.788000	 65.3559
6.872000	 65.2143
6.956000	 65.2017
7.040000	 65.2492
7.124000	 65.1365
7.208000	 65.0819
7.292000	 65.241
7.376000	 65.1567
7.460000	 65.1295
7.544000	 65.0973
7.628000	 65.1174
7.712000	 65.1987
7.796000	 65.0435
7.880000	 65.0399
7.964000	 65.0041
8.048000	 65.0791
8.132000	 65.0947
8.216000	 65.0833
8.300000	 65.1997
8.384000	 64.9773
8.468000	 65.0052
8.552000	 65.0835
8.635999	 65.0851
8.719999	 64.9595
8.804000	 64.8639
8.888000	 65.1519
8.972000	 65.1789
9.056000	 65.0314
9.140000	 64.9915
9.224000	 65.124
9.308000	 65.0099
9.391999	 65.1486
9.475999	 65.1748
9.560000	 65.0663
9.644000	 65.0005
9.728000	 65.1141
9.812000	 65.1137
9.896000	 65.1213
9.980000	 65.2318
10.064	65.1388
10.148	65.0936
10.232	64.9593
10.316	65.1996
10.4	65.214
10.484	65.075
10.568	65.0143
10.652	65.1018
10.736	65.3485
10.82	65.1
10.904	65.0489
10.988	65.1165
11.072	65.1318
11.156	65.2605
11.24	65.3142
11.324	65.1924
11.408	65.2435
11.492	65.4575
11.576	65.3068
11.66	65.2254
11.744	65.3897
11.828	65.4575
11.912	65.355
11.996	65.2872
12.08	65.3997
12.164	65.4001
12.248	65.4603
12.332	65.4252
12.416	65.1639
12.5	65.1274
12.584	65.1436
12.668	65.2681
12.752	65.3364
12.836	65.4221
12.92	65.4542
13.004	65.3604
13.088	65.2543
13.172	65.2891
13.256	65.3491
13.34	65.3067
13.424	65.2363
13.508	65.1647
13.592	65.1561
13.676	65.169
13.76	65.1141
13.844	65.1732
13.928	65.3858
14.012	65.4514
14.096	65.4718
14.18	65.5128
14.264	65.3408
14.348	65.1965
14.432	65.2301
14.516	65.2011
14.6	65.1583
14.684	65.2743
14.768	65.3978
14.852	65.4712
14.936	65.5433
15.02	65.5288
15.104	65.4828
15.188	65.501
15.272	65.5466
15.356	65.5582
15.44	65.4982
15.524	65.4022
15.608	65.2906
15.692	65.1351
15.776	64.9823
15.86	64.9002
15.944	64.9361
16.028	65.1829
16.112	65.5936
16.196	65.8808
16.28	65.8593
16.364	65.6478
16.448	65.425
16.532	65.2608
16.616	65.196
16.7	65.2714
16.784	65.44
16.868	65.5685
16.952	65.5868
17.036	65.5421
17.12	65.477
17.204	65.3845
17.288	65.328
17.372	65.4256
17.456	65.6684
17.54	65.8928
17.624	65.9639
17.708	65.914
17.792	65.8744
17.876	65.9298
17.96	66.0339
18.044	66.0772
18.128	66.014
18.212	65.9176
18.296	65.9017
18.38	66.0096
18.464	66.1789
18.548	66.2827
18.632	66.2135
18.716	65.984
18.8	65.7539
18.884	65.7019
18.968	65.8546
19.052	66.0471
19.136	66.1038
19.22	66.0076
19.304	65.871
19.388	65.8011
19.472	65.8317
19.556	65.92
19.64	65.9927
19.724	66.0391
19.808	66.1206
19.892	66.2728
19.976	66.4279
20.06	66.4802
20.144	66.4079
20.228	66.2954
20.312	66.2335
20.396	66.2246
20.48	66.2061
20.564	66.1424
20.648	66.0562
20.732	65.9799
20.816	65.8976
20.9	65.7568
20.984	65.5319
21.068	65.2612
21.152	65.0148
21.236	64.8469
21.32	64.7824
21.404	64.8263
21.488	64.9572
21.572	65.1257
21.656	65.2793
21.74	65.3951
21.824	65.483
21.908	65.5547
21.992	65.6052
22.076	65.6264
22.16	65.6257
22.244	65.641
22.328	65.7182
22.412	65.8783
22.496	66.0975
22.58	66.3273
22.664	66.5288
22.748	66.6963
22.832	66.8464
22.916	66.9956
23	67.1408
23.084	67.2497
23.168	67.2585
23.252	67.0997
23.336	66.7282
23.42	66.1725
23.504	65.5244
23.588	64.9232
23.672	64.503
23.756	64.3356
23.84	64.3807
23.924	64.5477
24.008	64.7447
24.092	64.9004
24.176	64.9834
24.26	65.0211
24.344	65.0343
24.428	64.9966
24.512	64.8707
24.596	64.6252
24.68	64.2675
24.764	63.8558
24.848	63.3905
24.932	62.8372
25.016	62.1437
25.1	61.1549
25.184	59.9607
25.268	58.9555
25.352	58.6406
25.436	59.6785
25.52	62.4736
25.604	66.8376
25.688	72.0114
25.772	76.7373
25.856	79.6417
25.94	79.7053
26.024	76.6485
26.108	71.1476
26.192	64.3951
26.276	57.714
26.36	52.4356
26.444	49.0292
26.528	46.8725
26.612	44.7476
26.696	41.0152
26.78	34.2213
26.864	23.5317
26.948	8.958990
27.028	-7.580685

File: BZ12041010-4_t08_cm-1.asc
PE IR       SPECTRUM    SPECTRUM    ASCII       PEDS        1.60
  -1
BZABF0~1.ASC
17/04/10
09:29:00.00
17/04/10
09:29:00.00
tln
$BZ12041010-4_t0008$<tbV0>[0.0,-9.8,9.0,0.0,22,1,0]
370
64

2002,4.07
MIRTGS : RIGHTBACK : INTERNAL 2
MIR : ON : INTERNAL 2
OPTKBR

0.200000
8
8.000000
FILLER
RATIO
SPECTRUM
UNLOCKED 256

DOUBLE
64
COMBINED
1
0
0

1.000000
RATIO

1
0
TRUE
51149
0
LEFT NOT FITTED RIGHT NOT FITTED 0
NONE
NONE
15600
12
4.427000
51148
TRUE
1 0 8 72 0 0 0 0

15798

#HDR
-1
-1
#GR
CM-1
%T
2.38419e-05
0.0
5000
-1.000000
4631
8
80.0706
-7.580685
#DATA
5000	64.3792
4984	64.6936
4968	64.8136
4952	64.8622
4936	65.0387
4920	64.4814
4904	64.9159
4888	65.1481
4872	64.524
4856	64.297
4840	66.3301
4824	65.573
4808	63.5363
4792	65.4496
4776	65.0997
4760	65.1041
4744	64.8163
4728	64.5123
4712	66.0606
4696	63.6927
4680	64.2806
4664	65.0182
4648	66.1589
4632	64.6676
4616	64.5301
4600	64.2328
4584	64.6818
4568	64.7958
4552	65.2217
4536	64.3404
4520	64.5154
4504	65.2915
4488	58.4852
4472	67.1629
4456	66.5462
4440	64.8706
4424	64.8096
4408	64.7427
4392	64.578
4376	64.9502
4360	64.8042
4344	64.6717
4328	64.7891
4312	64.7109
4296	64.8925
4280	64.731
4264	64.9266
4248	65.1218
4232	65.0906
4216	64.9761
4200	65.1796
4184	65.1852
4168	65.0661
4152	65.0674
4136	65.3234
4120	65.1104
4104	65.3018
4088	65.1843
4072	65.2086
4056	64.9285
4040	64.8891
4024	65.1073
4008	65.0939
3992	65.1722
3976	65.0877
3960	65.1138
3944	65.2084
3928	65.2804
3912	65.046
3896	65.3895
3880	65.2681
3864	65.1926
3848	65.4247
3832	65.1108
3816	65.1336
3800	65.4421
3784	65.1537
3768	65.1217
3752	65.6393
3736	65.551
3720	65.1539
3704	65.1866
3688	65.2424
3672	65.6034
3656	65.3929
3640	65.2399
3624	65.3669
3608	65.4099
3592	65.2057
3576	65.3155
3560	65.4852
3544	65.1246
3528	65.1271
3512	65.1975
3496	65.3458
3480	65.0551
3464	65.3014
3448	65.0972
3432	65.2184
3416	65.1247
3400	65.1959
3384	65.3193
3368	65.1239
3352	65.1867
3336	65.2519
3320	65.2798
3304	65.1162
3288	65.3288
3272	65.1204
3256	65.2757
3240	65.25
3224	65.1273
3208	65.3354
3192	65.2281
3176	65.1259
3160	65.1567
3144	65.1719
3128	65.044
3112	65.1604
3096	65.1692
3080	65.1397
3064	65.0386
3048	65.3096
3032	65.2534
3016	65.072
3000	65.0687
2984	65.172
2968	65.0882
2952	65.1166
2936	65.1779
2920	65.1363
2904	65.1896
2888	65.1513
2872	65.2596
2856	65.119
2840	65.1742
2824	65.087
2808	65.3026
2792	65.1943
2776	65.2131
2760	65.1678
2744	65.3462
2728	65.1998
2712	65.2332
2696	65.3298
2680	65.1231
2664	65.2735
2648	65.3239
2632	65.225
2616	65.318
2600	65.2779
2584	65.2007
2568	65.2367
2552	65.2341
2536	65.1563
2520	65.1917
2504	65.2659
2488	65.2247
2472	65.2672
2456	65.2592
2440	65.2226
2424	65.2265
2408	65.1898
2392	65.2248
2376	65.2689
2360	65.2539
2344	65.2458
2328	65.1844
2312	65.3031
2296	65.1685
2280	65.3106
2264	65.1295
2248	65.2239
2232	65.2588
2216	65.31
2200	65.1695
2184	65.1826
2168	65.2024
2152	65.2823
2136	65.2542
2120	65.2314
2104	65.1498
2088	65.2151
2072	65.2875
2056	65.2353
2040	65.2761
2024	65.2778
2008	65.2167
1992	65.2118
1976	65.2174
1960	65.2851
1944	65.2016
1928	65.2643
1912	65.1938
1896	65.2539
1880	65.3151
1864	65.217
1848	65.3089
1832	65.2552
1816	65.2022
1800	65.2186
1784	65.2678
1768	65.384
1752	65.1276
1736	65.3849
1720	65.3883
1704	65.3148
1688	65.4743
1672	65.4969
1656	65.3093
1640	65.2875
1624	65.2702
1608	65.231
1592	65.0722
1576	65.2888
1560	65.5161
1544	65.5964
1528	65.3125
1512	65.4783
1496	65.2662
1480	65.2702
1464	65.3768
1448	65.1252
1432	65.2715
1416	65.2255
1400	65.125
1384	65.0847
1368	65.2357
1352	65.1688
1336	65.0795
1320	65.1675
1304	65.1283
1288	65.1061
1272	65.0466
1256	65.0047
1240	65.0634
1224	65.1098
1208	65.1809
1192	64.9712
1176	65.0954
1160	65.0768
1144	64.8983
1128	65.1261
1112	65.1833
1096	64.9884
1080	65.1241
1064	65.1614
1048	65.1111
1032	65.0034
1016	65.0002
1000	65.2207
984	 65.0808
968	 65.2305
952	 65.0501
936	 65.2344
920	 65.0266
904	 65.1237
888	 65.2966
872	 65.4143
856	 65.2673
840	 65.3682
824	 65.4163
808	 65.2751
792	 65.1973
776	 65.4584
760	 65.2748
744	 65.2211
728	 65.1301
712	 65.4476
696	 65.1956
680	 65.314
664	 65.5014
648	 65.5063
632	 64.9256
616	 65.9078
600	 65.2249
584	 65.4739
568	 65.9625
552	 66.0278
536	 66.1578
520	 65.9898
504	 66.174
488	 66.2
472	 64.9343
456	 65.5702
440	 66.6574
424	 64.9426
408	 64.8755
392	 62.0596
376	 45.2506
370	 -7.580685

File: BZ12041010-4_t09.asc
PE IR       SPECTRUM    SPECTRUM    ASCII       PEDS        1.60
  -1
BZ46B2~1.ASC
17/04/10
09:33:37.00
17/04/10
09:34:03.00
tln
$BZ12041010-4_t0009$<tbV0>[-2.6,-9.8,9.0,0.0,22,1,0]
27.028
64

2002,4.07
MIRTGS : RIGHTBACK : INTERNAL 2
MIR : ON : INTERNAL 2
OPTKBR

0.200000
8
8.000000
FILLER
RATIO
SPECTRUM
UNLOCKED 256

DOUBLE
64
COMBINED
1
0
0

0.002000
RATIO

1
0
TRUE
51149
0
LEFT NOT FITTED RIGHT NOT FITTED 0
NONE
NONE
15600
12
4.427000
51148
TRUE
1 0 8 72 0 0 0 0

15798

#HDR
-1
-1
#GR
µM
%T
2.38419e-05
0.0
2.000000
0.002000
12515
8
86.8975
25.92
#DATA
2.000000	 64.6502
2.084000	 65.7179
2.168000	 65.033
2.252000	 65.128
2.336000	 64.9471
2.420000	 65.234
2.504000	 65.1206
2.588000	 65.3407
2.672000	 65.4837
2.756000	 65.5336
2.840000	 65.2577
2.924000	 65.3758
3.008000	 65.223
3.092000	 65.2602
3.176000	 65.2101
3.260000	 65.1484
3.344000	 65.2104
3.428000	 65.2902
3.512000	 65.0842
3.596000	 65.2023
3.680000	 65.2795
3.764000	 65.3105
3.848000	 65.2839
3.932000	 65.3046
4.016000	 65.3254
4.100000	 65.2344
4.184000	 65.2044
4.268000	 65.2498
4.352000	 65.2281
4.436000	 65.3709
4.520000	 65.4532
4.604000	 65.1841
4.688000	 65.2983
4.772000	 65.3077
4.856000	 65.412
4.940000	 65.4211
5.024000	 65.1597
5.108000	 65.281
5.192000	 65.2856
5.276000	 65.2865
5.359999	 65.3419
5.444000	 65.2334
5.528000	 65.2991
5.612000	 65.2601
5.696000	 65.3046
5.780000	 65.2913
5.864000	 65.3386
5.948000	 65.5933
6.032000	 65.4457
6.116000	 65.2652
6.200000	 65.2901
6.284000	 65.1027
6.368000	 65.254
6.452000	 65.3331
6.536000	 65.2827
6.620000	 65.4287
6.704000	 65.3404
6.788000	 65.3824
6.872000	 65.287
6.956000	 65.2185
7.040000	 65.2396
7.124000	 65.178
7.208000	 65.066
7.292000	 65.1854
7.376000	 65.1643
7.460000	 65.2023
7.544000	 65.1828
7.628000	 65.1386
7.712000	 65.1315
7.796000	 65.139
7.880000	 65.1269
7.964000	 65.1086
8.048000	 65.1825
8.132000	 65.1191
8.216000	 65.1718
8.300000	 65.2889
8.384000	 65.1875
8.468000	 64.9984
8.552000	 65.2509
8.635999	 65.1178
8.719999	 65.101
8.804000	 65.1917
8.888000	 65.1447
8.972000	 65.1431
9.056000	 65.0491
9.140000	 65.0409
9.224000	 65.2222
9.308000	 65.0554
9.391999	 65.0521
9.475999	 65.2236
9.560000	 65.0213
9.644000	 65.1551
9.728000	 65.0847
9.812000	 64.9942
9.896000	 65.1007
9.980000	 65.1863
10.064	65.2152
10.148	65.1134
10.232	64.9996
10.316	65.2449
10.4	65.2654
10.484	65.3551
10.568	65.3158
10.652	65.1601
10.736	65.4185
10.82	65.4203
10.904	65.3102
10.988	65.3243
11.072	65.3687
11.156	65.1532
11.24	65.0507
11.324	65.3204
11.408	65.4145
11.492	65.4219
11.576	65.5752
11.66	65.4961
11.744	65.2517
11.828	65.3709
11.912	65.435
11.996	65.2472
12.08	65.1352
12.164	65.3036
12.248	65.4538
12.332	65.5878
12.416	65.4736
12.5	65.4897
12.584	65.4553
12.668	65.4075
12.752	65.3623
12.836	65.5404
12.92	65.6378
13.004	65.5165
13.088	65.503
13.172	65.5957
13.256	65.4639
13.34	65.3021
13.424	65.2855
13.508	65.3018
13.592	65.3029
13.676	65.2388
13.76	65.2435
13.844	65.394
13.928	65.4386
14.012	65.4539
14.096	65.4435
14.18	65.3341
14.264	65.267
14.348	65.325
14.432	65.4646
14.516	65.5557
14.6	65.5548
14.684	65.5471
14.768	65.4489
14.852	65.2882
14.936	65.2936
15.02	65.4348
15.104	65.5699
15.188	65.5924
15.272	65.5519
15.356	65.6399
15.44	65.7431
15.524	65.6939
15.608	65.6124
15.692	65.5391
15.776	65.4155
15.86	65.2699
15.944	65.1661
16.028	65.201
16.112	65.3681
16.196	65.5109
16.28	65.6074
16.364	65.727
16.448	65.7574
16.532	65.6414
16.616	65.537
16.7	65.5606
16.784	65.6958
16.868	65.8554
16.952	65.9138
17.036	65.8447
17.12	65.7429
17.204	65.6446
17.288	65.5806
17.372	65.6581
17.456	65.8676
17.54	66.0268
17.624	66.0378
17.708	66.0007
17.792	66.0071
17.876	66.039
17.96	66.0623
18.044	66.0734
18.128	66.0516
18.212	65.9689
18.296	65.8572
18.38	65.8138
18.464	65.9085
18.548	66.0928
18.632	66.2154
18.716	66.154
18.8	65.9525
18.884	65.8096
18.968	65.8824
19.052	66.1
19.136	66.2465
19.22	66.2008
19.304	66.0374
19.388	65.9138
19.472	65.9207
19.556	66.0326
19.64	66.169
19.724	66.287
19.808	66.3865
19.892	66.4569
19.976	66.4557
20.06	66.3694
20.144	66.263
20.228	66.2429
20.312	66.3612
20.396	66.5665
20.48	66.7642
20.564	66.8991
20.648	66.9649
20.732	66.9657
20.816	66.8896
20.9	66.7266
20.984	66.497
21.068	66.2537
21.152	66.0589
21.236	65.9577
21.32	65.9612
21.404	66.0344
21.488	66.1069
21.572	66.1087
21.656	66.0262
21.74	65.9251
21.824	65.9055
21.908	66.0097
21.992	66.1796
22.076	66.3007
22.16	66.283
22.244	66.1445
22.328	65.9951
22.412	65.9472
22.496	66.0336
22.58	66.1762
22.664	66.2424
22.748	66.1375
22.832	65.8801
22.916	65.5891
23	65.4293
23.084	65.4901
23.168	65.743
23.252	66.0489
23.336	66.1958
23.42	66.0449
23.504	65.5786
23.588	64.9565
23.672	64.4517
23.756	64.3358
23.84	64.7089
23.924	65.4738
24.008	66.3699
24.092	67.0744
24.176	67.3855
24.26	67.2569
24.344	66.7626
24.428	66.0012
24.512	65.005
24.596	63.6858
24.68	61.8977
24.764	59.571
24.848	56.7465
24.932	53.651
25.016	50.6581
25.1	48.0882
25.184	46.3315
25.268	45.7267
25.352	46.4106
25.436	48.5075
25.52	52.0251
25.604	56.7637
25.688	62.4167
25.772	68.5426
25.856	74.5819
25.94	79.9087
26.024	83.9429
26.108	86.3509
26.192	86.8031
26.276	85.1052
26.36	81.5447
26.444	76.5774
26.528	70.6445
26.612	64.166
26.696	57.3434
26.78	50.1897
26.864	42.641
26.948	34.4953
27.028	25.92

File: BZ12041010-4_t09_cm-1.asc
PE IR       SPECTRUM    SPECTRUM    ASCII       PEDS        1.60
  -1
BZAB70~1.ASC
17/04/10
09:33:37.00
17/04/10
09:33:37.00
tln
$BZ12041010-4_t0009$<tbV0>[-2.6,-9.8,9.0,0.0,22,1,0]
370
64

2002,4.07
MIRTGS : RIGHTBACK : INTERNAL 2
MIR : ON : INTERNAL 2
OPTKBR

0.200000
8
8.000000
FILLER
RATIO
SPECTRUM
UNLOCKED 256

DOUBLE
64
COMBINED
1
0
0

1.000000
RATIO

1
0
TRUE
51149
0
LEFT NOT FITTED RIGHT NOT FITTED 0
NONE
NONE
15600
12
4.427000
51148
TRUE
1 0 8 72 0 0 0 0

15798

#HDR
-1
-1
#GR
CM-1
%T
2.38419e-05
0.0
5000
-1.000000
4631
8
86.8815
25.92
#DATA
5000	64.6502
4984	64.3753
4968	64.9818
4952	65.2537
4936	64.7335
4920	65.0181
4904	65.3506
4888	65.0036
4872	64.3078
4856	65.4863
4840	64.7178
4824	64.8863
4808	65.5626
4792	65.2605
4776	64.266
4760	65.1167
4744	64.9446
4728	64.5415
4712	65.8844
4696	63.7451
4680	64.1855
4664	65.0175
4648	65.7732
4632	64.8145
4616	65.045
4600	64.8767
4584	64.6235
4568	64.9304
4552	65.5244
4536	65.3275
4520	65.1873
4504	65.7119
4488	59.3365
4472	65.5862
4456	71.0133
4440	64.9993
4424	65.2481
4408	65.8068
4392	65.2557
4376	65.2735
4360	64.6858
4344	65.0728
4328	65.1062
4312	65.0512
4296	65.123
4280	64.9629
4264	64.9704
4248	65.3149
4232	64.9773
4216	65.2504
4200	64.9944
4184	65.3757
4168	64.9925
4152	65.0649
4136	65.3768
4120	65.307
4104	65.121
4088	64.965
4072	64.9016
4056	65.2659
4040	64.8916
4024	65.2406
4008	65.2159
3992	65.1833
3976	65.1839
3960	65.0418
3944	65.3037
3928	65.2958
3912	65.0864
3896	65.3298
3880	65.3616
3864	65.3408
3848	65.2574
3832	65.1885
3816	65.2798
3800	65.2697
3784	65.1327
3768	65.2928
3752	65.4895
3736	65.4467
3720	65.191
3704	65.2078
3688	65.2538
3672	65.411
3656	65.1481
3640	65.3708
3624	65.3114
3608	65.308
3592	64.9674
3576	65.269
3560	65.3348
3544	64.9963
3528	65.2477
3512	65.109
3496	65.2084
3480	65.1342
3464	65.4081
3448	65.1968
3432	65.2018
3416	65.404
3400	65.2226
3384	65.116
3368	65.1318
3352	65.1452
3336	65.2632
3320	65.316
3304	65.1428
3288	65.2751
3272	65.1939
3256	65.3547
3240	65.2702
3224	64.9703
3208	65.1973
3192	65.3792
3176	65.2124
3160	65.2781
3144	65.2146
3128	65.1944
3112	65.325
3096	65.1479
3080	65.0836
3064	65.0876
3048	65.2265
3032	65.2251
3016	65.2716
3000	65.1277
2984	65.1867
2968	65.2555
2952	65.2248
2936	65.1303
2920	65.2882
2904	65.3321
2888	65.1316
2872	65.1137
2856	65.2116
2840	65.0656
2824	65.2175
2808	65.1974
2792	65.221
2776	65.1269
2760	65.1878
2744	65.2932
2728	65.2144
2712	65.1649
2696	65.2677
2680	65.2151
2664	65.3639
2648	65.1856
2632	65.3745
2616	65.2962
2600	65.29
2584	65.2469
2568	65.264
2552	65.2913
2536	65.3017
2520	65.1904
2504	65.3191
2488	65.3191
2472	65.2943
2456	65.3634
2440	65.2231
2424	65.2918
2408	65.2902
2392	65.2263
2376	65.292
2360	65.302
2344	65.2359
2328	65.301
2312	65.2913
2296	65.2119
2280	65.3535
2264	65.1864
2248	65.2884
2232	65.2404
2216	65.4854
2200	65.1581
2184	65.1801
2168	65.2649
2152	65.2765
2136	65.2823
2120	65.2598
2104	65.3651
2088	65.3406
2072	65.3481
2056	65.3741
2040	65.2536
2024	65.4248
2008	65.2596
1992	65.163
1976	65.3306
1960	65.3153
1944	65.2025
1928	65.2377
1912	65.2512
1896	65.282
1880	65.3283
1864	65.3426
1848	65.3457
1832	65.297
1816	65.3061
1800	65.345
1784	65.293
1768	65.487
1752	65.2344
1736	65.4121
1720	65.3543
1704	65.4156
1688	65.52
1672	65.5808
1656	65.4997
1640	65.2746
1624	65.2124
1608	65.1719
1592	65.106
1576	65.2545
1560	65.4655
1544	65.4816
1528	65.2693
1512	65.3777
1496	65.2997
1480	65.2138
1464	65.3523
1448	65.1266
1432	65.304
1416	65.1433
1400	65.1625
1384	65.0335
1368	65.1872
1352	65.2131
1336	65.2094
1320	65.2437
1304	65.0801
1288	65.168
1272	65.1231
1256	65.1083
1240	65.1599
1224	65.1211
1208	65.242
1192	65.17
1176	65.0564
1160	65.1584
1144	65.1175
1128	65.1844
1112	65.1891
1096	64.9842
1080	65.1588
1064	65.06
1048	65.0871
1032	65.1304
1016	64.9722
1000	65.2086
984	 65.0792
968	 65.2729
952	 65.3678
936	 65.2487
920	 65.3612
904	 65.3771
888	 65.1083
872	 65.407
856	 65.4207
840	 65.442
824	 65.2488
808	 65.5324
792	 65.4309
776	 65.6344
760	 65.5919
744	 65.2897
728	 65.2201
712	 65.4621
696	 65.3545
680	 65.5359
664	 65.5072
648	 65.7399
632	 65.3335
616	 65.5534
600	 65.535
584	 65.739
568	 66.0446
552	 66.0581
536	 66.2186
520	 66.1834
504	 66.4201
488	 66.7875
472	 66.0044
456	 66.0515
440	 66.1803
424	 64.9785
408	 65.0348
392	 51.5484
376	 65.4495
370	 25.92