Folder: Masteroppgave/Bakgrunnsmateriale/MATLAB/FTIR/ftir_data/subCa/Mapping_25 (part 8)

File: BZ12041010-4_t15.asc
PE IR       SPECTRUM    SPECTRUM    ASCII       PEDS        1.60
  -1
BZ3AB2~1.ASC
17/04/10
10:09:00.00
17/04/10
10:09:27.00
tln
$BZ12041010-4_t0015$<tbV0>[-5.2,-7.2,9.0,0.0,22,1,0]
27.028
64

2002,4.07
MIRTGS : RIGHTBACK : INTERNAL 2
MIR : ON : INTERNAL 2
OPTKBR

0.200000
8
8.000000
FILLER
RATIO
SPECTRUM
UNLOCKED 256

DOUBLE
64
COMBINED
1
0
0

0.002000
RATIO

1
0
TRUE
51149
0
LEFT NOT FITTED RIGHT NOT FITTED 0
NONE
NONE
15600
12
4.427000
51148
TRUE
1 0 8 72 0 0 0 0

15798

#HDR
-1
-1
#GR
µM
%T
2.38419e-05
0.0
2.000000
0.002000
12515
8
79.0025
31.7911
#DATA
2.000000	 64.6822
2.084000	 65.8656
2.168000	 64.9515
2.252000	 64.8131
2.336000	 64.8939
2.420000	 64.8866
2.504000	 65.0581
2.588000	 65.2098
2.672000	 65.2626
2.756000	 65.3275
2.840000	 65.3288
2.924000	 65.1765
3.008000	 65.2688
3.092000	 65.3131
3.176000	 65.245
3.260000	 65.2348
3.344000	 65.5042
3.428000	 65.1054
3.512000	 65.2912
3.596000	 65.339
3.680000	 65.4756
3.764000	 65.4174
3.848000	 65.4599
3.932000	 65.4056
4.016000	 65.3058
4.100000	 65.5349
4.184000	 65.3011
4.268000	 65.2646
4.352000	 65.2993
4.436000	 65.2304
4.520000	 65.3307
4.604000	 65.3831
4.688000	 65.2944
4.772000	 65.1759
4.856000	 65.4543
4.940000	 65.3348
5.024000	 65.4396
5.108000	 65.3858
5.192000	 65.3527
5.276000	 65.3105
5.359999	 65.3256
5.444000	 65.2942
5.528000	 65.3092
5.612000	 65.3387
5.696000	 65.3088
5.780000	 65.0478
5.864000	 65.1648
5.948000	 65.1953
6.032000	 65.2847
6.116000	 65.3176
6.200000	 65.227
6.284000	 65.2644
6.368000	 65.2569
6.452000	 65.3491
6.536000	 65.3106
6.620000	 65.3671
6.704000	 65.4072
6.788000	 65.2144
6.872000	 65.3882
6.956000	 65.3426
7.040000	 65.2801
7.124000	 65.3626
7.208000	 65.1835
7.292000	 65.3274
7.376000	 65.2626
7.460000	 65.24
7.544000	 65.3253
7.628000	 65.3291
7.712000	 65.2846
7.796000	 65.2597
7.880000	 65.1832
7.964000	 65.2638
8.048000	 65.2223
8.132000	 65.204
8.216000	 65.0892
8.300000	 65.2005
8.384000	 65.2496
8.468000	 65.1668
8.552000	 65.1848
8.635999	 65.1859
8.719999	 65.3
8.804000	 65.216
8.888000	 65.3473
8.972000	 65.1631
9.056000	 65.161
9.140000	 65.203
9.224000	 65.1195
9.308000	 64.986
9.391999	 65.3286
9.475999	 65.1771
9.560000	 65.1776
9.644000	 65.3768
9.728000	 65.0374
9.812000	 65.2963
9.896000	 65.3206
9.980000	 65.3193
10.064	65.3906
10.148	65.2685
10.232	65.1719
10.316	65.2032
10.4	65.2805
10.484	65.232
10.568	65.2848
10.652	65.1964
10.736	65.1986
10.82	65.3324
10.904	65.3055
10.988	65.203
11.072	65.1817
11.156	65.2287
11.24	65.4309
11.324	65.5393
11.408	65.4879
11.492	65.4287
11.576	65.3229
11.66	65.3762
11.744	65.4142
11.828	65.5198
11.912	65.4253
11.996	65.517
12.08	65.6749
12.164	65.4958
12.248	65.4954
12.332	65.4895
12.416	65.4849
12.5	65.4996
12.584	65.4685
12.668	65.4759
12.752	65.5638
12.836	65.5367
12.92	65.4379
13.004	65.4127
13.088	65.4182
13.172	65.5228
13.256	65.5211
13.34	65.4682
13.424	65.5424
13.508	65.5429
13.592	65.492
13.676	65.4496
13.76	65.4529
13.844	65.4565
13.928	65.3966
14.012	65.321
14.096	65.3562
14.18	65.4023
14.264	65.3893
14.348	65.3975
14.432	65.4436
14.516	65.5395
14.6	65.5968
14.684	65.5395
14.768	65.5066
14.852	65.4853
14.936	65.326
15.02	65.1713
15.104	65.2096
15.188	65.398
15.272	65.4927
15.356	65.3214
15.44	65.1009
15.524	65.0586
15.608	65.161
15.692	65.2911
15.776	65.3251
15.86	65.2955
15.944	65.3396
16.028	65.4494
16.112	65.5649
16.196	65.653
16.28	65.6107
16.364	65.4484
16.448	65.4098
16.532	65.5935
16.616	65.7297
16.7	65.5981
16.784	65.3851
16.868	65.3584
16.952	65.4388
17.036	65.4353
17.12	65.4135
17.204	65.4813
17.288	65.5286
17.372	65.4273
17.456	65.2325
17.54	65.0633
17.624	65.0014
17.708	65.1029
17.792	65.3593
17.876	65.6627
17.96	65.8956
18.044	66.0324
18.128	66.1211
18.212	66.1739
18.296	66.1295
18.38	65.9383
18.464	65.6595
18.548	65.4437
18.632	65.4129
18.716	65.5695
18.8	65.8129
18.884	66.0209
18.968	66.1036
19.052	66.0367
19.136	65.879
19.22	65.7551
19.304	65.769
19.388	65.9172
19.472	66.0971
19.556	66.2105
19.64	66.2472
19.724	66.2539
19.808	66.2512
19.892	66.2071
19.976	66.0915
20.06	65.9315
20.144	65.8074
20.228	65.7907
20.312	65.8816
20.396	66.0031
20.48	66.0512
20.564	65.9648
20.648	65.7579
20.732	65.5095
20.816	65.3126
20.9	65.2333
20.984	65.2812
21.068	65.4089
21.152	65.5474
21.236	65.6291
21.32	65.6093
21.404	65.4811
21.488	65.2832
21.572	65.0851
21.656	64.9559
21.74	64.9382
21.824	65.0594
21.908	65.3483
21.992	65.8148
22.076	66.4062
22.16	66.965
22.244	67.246
22.328	67.0659
22.412	66.3893
22.496	65.4286
22.58	64.5168
22.664	63.9383
22.748	63.7979
22.832	63.9888
22.916	64.2757
23	64.4325
23.084	64.3361
23.168	63.9989
23.252	63.5273
23.336	63.052
23.42	62.6959
23.504	62.5548
23.588	62.7616
23.672	63.5049
23.756	64.9739
23.84	67.2537
23.924	70.2053
24.008	73.4345
24.092	76.3472
24.176	78.3321
24.26	79.0022
24.344	78.3119
24.428	76.5691
24.512	74.3328
24.596	72.1273
24.68	70.2946
24.764	68.9291
24.848	67.8727
24.932	66.812
25.016	65.4779
25.1	63.7876
25.184	61.8787
25.268	60.1248
25.352	59.0797
25.436	59.0437
25.52	59.9308
25.604	61.3871
25.688	63.3364
25.772	65.3544
25.856	66.4074
25.94	65.4958
26.024	63.1549
26.108	62.1777
26.192	63.882
26.276	66.8968
26.36	65.3447
26.444	56.4637
26.528	42.4794
26.612	33.3907
26.696	36.3896
26.78	49.2977
26.864	59.0214
26.948	51.876
27.028	31.7911

File: BZ12041010-4_t15_cm-1.asc
PE IR       SPECTRUM    SPECTRUM    ASCII       PEDS        1.60
  -1
BZ2C7E~1.ASC
17/04/10
10:09:00.00
17/04/10
10:09:00.00
tln
$BZ12041010-4_t0015$<tbV0>[-5.2,-7.2,9.0,0.0,22,1,0]
370
64

2002,4.07
MIRTGS : RIGHTBACK : INTERNAL 2
MIR : ON : INTERNAL 2
OPTKBR

0.200000
8
8.000000
FILLER
RATIO
SPECTRUM
UNLOCKED 256

DOUBLE
64
COMBINED
1
0
0

1.000000
RATIO

1
0
TRUE
51149
0
LEFT NOT FITTED RIGHT NOT FITTED 0
NONE
NONE
15600
12
4.427000
51148
TRUE
1 0 8 72 0 0 0 0

15798

#HDR
-1
-1
#GR
CM-1
%T
2.38419e-05
0.0
5000
-1.000000
4631
8
78.9845
31.7911
#DATA
5000	64.6822
4984	64.9325
4968	65.1167
4952	64.2222
4936	64.9573
4920	65.0193
4904	65.3911
4888	64.3196
4872	64.4365
4856	66.101
4840	67.3813
4824	66.1535
4808	65.0063
4792	66.4113
4776	65.3003
4760	65.7311
4744	65.4368
4728	65.3816
4712	65.4282
4696	64.9652
4680	65.0048
4664	65.2832
4648	65.0077
4632	64.9877
4616	64.9635
4600	64.9362
4584	65.2136
4568	64.7534
4552	64.7757
4536	65.2536
4520	65.1096
4504	64.8258
4488	64.5206
4472	61.3386
4456	75.1398
4440	64.7767
4424	63.8383
4408	64.5185
4392	65.6615
4376	65.145
4360	64.8338
4344	64.801
4328	65.3981
4312	65.3146
4296	65.1739
4280	64.9205
4264	65.0944
4248	64.992
4232	65.1273
4216	65.1826
4200	65.2723
4184	65.3641
4168	65.4146
4152	65.1972
4136	64.9186
4120	65.1867
4104	65.09
4088	65.3741
4072	65.6398
4056	65.2234
4040	64.9949
4024	64.9132
4008	65.1348
3992	65.0232
3976	65.089
3960	65.2386
3944	64.981
3928	65.3644
3912	65.0684
3896	65.3394
3880	65.3583
3864	65.2099
3848	65.1643
3832	65.2443
3816	65.3621
3800	65.4148
3784	65.2974
3768	65.1384
3752	65.2267
3736	65.291
3720	65.4452
3704	65.2974
3688	65.2762
3672	65.2375
3656	65.1921
3640	65.185
3624	65.3719
3608	65.4766
3592	65.3309
3576	65.4181
3560	65.2357
3544	65.3517
3528	65.4551
3512	65.3809
3496	65.3753
3480	65.2894
3464	65.067
3448	65.1818
3432	65.0117
3416	65.3035
3400	65.3703
3384	65.2896
3368	65.0672
3352	65.4379
3336	65.3662
3320	65.3074
3304	65.1838
3288	65.1884
3272	65.2593
3256	65.2799
3240	65.3422
3224	65.3707
3208	65.1989
3192	65.4026
3176	65.3651
3160	65.354
3144	65.2301
3128	65.1991
3112	65.3467
3096	65.279
3080	65.3463
3064	65.2829
3048	65.2828
3032	65.4914
3016	65.2757
3000	65.1663
2984	65.3623
2968	65.3856
2952	65.1916
2936	65.1611
2920	65.0926
2904	65.2256
2888	65.2637
2872	65.0725
2856	65.1442
2840	65.3207
2824	65.3494
2808	65.4306
2792	65.4086
2776	65.2
2760	65.352
2744	65.439
2728	65.3621
2712	65.4032
2696	65.3193
2680	65.3894
2664	65.3271
2648	65.3307
2632	65.2702
2616	65.3861
2600	65.4585
2584	65.2895
2568	65.3455
2552	65.3677
2536	65.3245
2520	65.238
2504	65.3974
2488	65.2892
2472	65.2968
2456	65.2913
2440	65.5148
2424	65.3721
2408	65.3718
2392	65.2946
2376	65.2688
2360	65.3827
2344	65.2898
2328	65.3669
2312	65.3074
2296	65.3203
2280	65.2446
2264	65.3173
2248	65.2678
2232	65.3378
2216	65.3349
2200	65.4315
2184	65.3483
2168	65.3713
2152	65.215
2136	65.3
2120	65.3254
2104	65.3559
2088	65.2472
2072	65.4326
2056	65.4221
2040	65.3531
2024	65.3314
2008	65.3604
1992	65.4231
1976	65.3122
1960	65.4005
1944	65.3556
1928	65.366
1912	65.3652
1896	65.3173
1880	65.2716
1864	65.3337
1848	65.3873
1832	65.2449
1816	65.3168
1800	65.3226
1784	65.2857
1768	65.2629
1752	65.2677
1736	65.0749
1720	65.0805
1704	65.1471
1688	65.2235
1672	65.181
1656	65.3507
1640	65.2259
1624	65.2395
1608	65.2192
1592	65.2567
1576	65.3027
1560	65.3562
1544	65.2005
1528	65.2985
1512	65.3638
1496	65.4284
1480	65.1942
1464	65.3434
1448	65.2771
1432	65.2466
1416	65.253
1400	65.3916
1384	65.2282
1368	65.3758
1352	65.2124
1336	65.3148
1320	65.255
1304	65.3346
1288	65.3105
1272	65.201
1256	65.2555
1240	65.2689
1224	65.2269
1208	65.1705
1192	65.2608
1176	65.1059
1160	65.1707
1144	65.3071
1128	65.3016
1112	65.1613
1096	65.1678
1080	65.0319
1064	65.3234
1048	65.113
1032	65.145
1016	65.3461
1000	65.3869
984	 65.2559
968	 65.2218
952	 65.2478
936	 65.1751
920	 65.3517
904	 65.1774
888	 65.4948
872	 65.4661
856	 65.3854
840	 65.4366
824	 65.5521
808	 65.4803
792	 65.4589
776	 65.4685
760	 65.5046
744	 65.552
728	 65.4483
712	 65.3214
696	 65.4046
680	 65.5227
664	 65.163
648	 65.1153
632	 65.3061
616	 65.656
600	 65.6786
584	 65.4145
568	 65.0026
552	 66.1099
536	 65.4426
520	 65.748
504	 66.2412
488	 66.0477
472	 65.5912
456	 65.4528
440	 63.7943
424	 62.7453
408	 74.392
392	 59.7946
376	 34.1915
370	 31.7911

File: BZ12041010-4_t16.asc
PE IR       SPECTRUM    SPECTRUM    ASCII       PEDS        1.60
  -1
BZ3AB6~1.ASC
17/04/10
10:13:56.00
17/04/10
10:14:23.00
tln
$BZ12041010-4_t0016$<tbV0>[5.2,-4.6,9.0,0.0,22,1,0]
27.028
64

2002,4.07
MIRTGS : RIGHTBACK : INTERNAL 2
MIR : ON : INTERNAL 2
OPTKBR

0.200000
8
8.000000
FILLER
RATIO
SPECTRUM
UNLOCKED 256

DOUBLE
64
COMBINED
1
0
0

0.002000
RATIO

1
0
TRUE
51149
0
LEFT NOT FITTED RIGHT NOT FITTED 0
NONE
NONE
15600
12
4.427000
51148
TRUE
1 0 8 72 0 0 0 0

15798

#HDR
-1
-1
#GR
µM
%T
2.38419e-05
0.0
2.000000
0.002000
12515
8
80.2769
3.405593
#DATA
2.000000	 64.9091
2.084000	 64.8081
2.168000	 64.4974
2.252000	 63.2895
2.336000	 65.0768
2.420000	 65.2175
2.504000	 65.0983
2.588000	 65.0602
2.672000	 65.3144
2.756000	 65.262
2.840000	 65.0571
2.924000	 65.1368
3.008000	 65.1207
3.092000	 65.2368
3.176000	 65.0774
3.260000	 65.1791
3.344000	 65.1855
3.428000	 65.0013
3.512000	 65.0439
3.596000	 65.2642
3.680000	 65.3724
3.764000	 65.1306
3.848000	 65.1776
3.932000	 65.2994
4.016000	 65.3424
4.100000	 65.2954
4.184000	 65.2869
4.268000	 65.2493
4.352000	 65.161
4.436000	 65.2038
4.520000	 65.2029
4.604000	 65.1635
4.688000	 65.1472
4.772000	 65.2071
4.856000	 65.2496
4.940000	 65.1737
5.024000	 65.1985
5.108000	 65.1848
5.192000	 65.2207
5.276000	 65.1742
5.359999	 65.2111
5.444000	 65.1878
5.528000	 65.2446
5.612000	 65.2439
5.696000	 65.23
5.780000	 65.0668
5.864000	 65.1735
5.948000	 65.121
6.032000	 65.0648
6.116000	 65.1647
6.200000	 65.1872
6.284000	 65.0979
6.368000	 65.0766
6.452000	 65.2273
6.536000	 65.1109
6.620000	 65.1249
6.704000	 65.3052
6.788000	 65.1552
6.872000	 65.0327
6.956000	 65.2165
7.040000	 65.0059
7.124000	 65.148
7.208000	 65.132
7.292000	 65.0544
7.376000	 65.0938
7.460000	 65.1252
7.544000	 65.1118
7.628000	 65.0757
7.712000	 65.0583
7.796000	 65.1082
7.880000	 65.0936
7.964000	 65.0166
8.048000	 65.0601
8.132000	 65.1794
8.216000	 65.0488
8.300000	 65.0778
8.384000	 64.9941
8.468000	 65.0642
8.552000	 65.0816
8.635999	 65.0666
8.719999	 64.9908
8.804000	 65.1283
8.888000	 65.0687
8.972000	 64.9958
9.056000	 65.1334
9.140000	 64.9124
9.224000	 64.9649
9.308000	 64.7698
9.391999	 65.0599
9.475999	 65.0172
9.560000	 64.9716
9.644000	 65.1167
9.728000	 65.0263
9.812000	 64.9731
9.896000	 65.2453
9.980000	 65.2108
10.064	65.0069
10.148	64.9805
10.232	65.0026
10.316	65.1552
10.4	65.097
10.484	65.3105
10.568	65.3239
10.652	65.1761
10.736	65.0499
10.82	65.2154
10.904	65.1881
10.988	65.0985
11.072	65.1464
11.156	65.1425
11.24	65.1449
11.324	65.0829
11.408	65.2656
11.492	65.3467
11.576	65.2475
11.66	65.1253
11.744	65.1341
11.828	65.3095
11.912	65.2378
11.996	65.3173
12.08	65.6007
12.164	65.4501
12.248	65.2907
12.332	65.4189
12.416	65.5011
12.5	65.4469
12.584	65.1398
12.668	65.1772
12.752	65.4062
12.836	65.4687
12.92	65.4874
13.004	65.4949
13.088	65.4081
13.172	65.3058
13.256	65.3469
13.34	65.5429
13.424	65.5087
13.508	65.3461
13.592	65.2537
13.676	65.3382
13.76	65.3675
13.844	65.3238
13.928	65.3954
14.012	65.3556
14.096	65.3249
14.18	65.3931
14.264	65.3976
14.348	65.3112
14.432	65.2542
14.516	65.2965
14.6	65.4424
14.684	65.5932
14.768	65.5971
14.852	65.5031
14.936	65.4004
15.02	65.3437
15.104	65.3959
15.188	65.5449
15.272	65.5921
15.356	65.3762
15.44	65.1962
15.524	65.3346
15.608	65.5311
15.692	65.5661
15.776	65.5948
15.86	65.6809
15.944	65.7191
16.028	65.7335
16.112	65.7865
16.196	65.7822
16.28	65.6485
16.364	65.5203
16.448	65.5163
16.532	65.5157
16.616	65.3771
16.7	65.15
16.784	64.9666
16.868	64.9387
16.952	65.0615
17.036	65.1974
17.12	65.2351
17.204	65.1807
17.288	65.0853
17.372	65.0187
17.456	65.0574
17.54	65.1817
17.624	65.2928
17.708	65.3436
17.792	65.3572
17.876	65.3492
17.96	65.3091
18.044	65.2459
18.128	65.2208
18.212	65.3074
18.296	65.503
18.38	65.6766
18.464	65.6925
18.548	65.5908
18.632	65.5615
18.716	65.7079
18.8	65.9014
18.884	65.926
18.968	65.7118
19.052	65.4021
19.136	65.2178
19.22	65.2897
19.304	65.5735
19.388	65.9152
19.472	66.1895
19.556	66.379
19.64	66.5247
19.724	66.6103
19.808	66.5514
19.892	66.3034
19.976	65.949
20.06	65.6451
20.144	65.5051
20.228	65.5383
20.312	65.6686
20.396	65.7981
20.48	65.8635
20.564	65.8588
20.648	65.8283
20.732	65.8289
20.816	65.8911
20.9	65.9977
20.984	66.1022
21.068	66.1604
21.152	66.148
21.236	66.0602
21.32	65.9125
21.404	65.7404
21.488	65.5909
21.572	65.509
21.656	65.5263
21.74	65.6449
21.824	65.8308
21.908	66.0236
21.992	66.1651
22.076	66.2263
22.16	66.2189
22.244	66.1783
22.328	66.1258
22.412	66.0465
22.496	65.9154
22.58	65.7162
22.664	65.4699
22.748	65.2418
22.832	65.0803
22.916	64.9904
23	64.9314
23.084	64.8548
23.168	64.7546
23.252	64.676
23.336	64.6735
23.42	64.7856
23.504	64.9564
23.588	65.0697
23.672	65.0428
23.756	64.9155
23.84	64.9376
23.924	65.4598
24.008	66.7436
24.092	68.7926
24.176	71.2685
24.26	73.5978
24.344	75.1641
24.428	75.6293
24.512	75.0614
24.596	73.8
24.68	72.2181
24.764	70.5199
24.848	68.6592
24.932	66.4228
25.016	63.6549
25.1	60.5324
25.184	57.2793
25.268	54.1256
25.352	51.3942
25.436	49.0673
25.52	46.6888
25.604	43.6076
25.688	40.1326
25.772	37.1838
25.856	35.5148
25.94	34.8834
26.024	34.8338
26.108	35.526
26.192	36.6897
26.276	37.1288
26.36	33.516
26.444	24.6614
26.528	12.5666
26.612	4.216407
26.696	5.194616
26.78	15.5068
26.864	27.9029
26.948	34.6523
27.028	38.8155

File: BZ12041010-4_t16_cm-1.asc
PE IR       SPECTRUM    SPECTRUM    ASCII       PEDS        1.60
  -1
BZ2CFF~1.ASC
17/04/10
10:13:56.00
17/04/10
10:13:56.00
tln
$BZ12041010-4_t0016$<tbV0>[5.2,-4.6,9.0,0.0,22,1,0]
370
64

2002,4.07
MIRTGS : RIGHTBACK : INTERNAL 2
MIR : ON : INTERNAL 2
OPTKBR

0.200000
8
8.000000
FILLER
RATIO
SPECTRUM
UNLOCKED 256

DOUBLE
64
COMBINED
1
0
0

1.000000
RATIO

1
0
TRUE
51149
0
LEFT NOT FITTED RIGHT NOT FITTED 0
NONE
NONE
15600
12
4.427000
51148
TRUE
1 0 8 72 0 0 0 0

15798

#HDR
-1
-1
#GR
CM-1
%T
2.38419e-05
0.0
5000
-1.000000
4631
8
80.6662
3.688955
#DATA
5000	64.9091
4984	64.8169
4968	65.4427
4952	64.6737
4936	64.2779
4920	65.1986
4904	64.6121
4888	64.8559
4872	64.6634
4856	66.6527
4840	64.9386
4824	64.7376
4808	64.3227
4792	64.3973
4776	64.9661
4760	64.5405
4744	65.3851
4728	65.157
4712	65.3509
4696	64.7341
4680	64.7097
4664	65
4648	64.4698
4632	64.6329
4616	64.51
4600	64.3883
4584	64.5389
4568	64.2073
4552	64.8391
4536	63.8439
4520	64.8903
4504	64.3824
4488	64.498
4472	67.032
4456	79.9569
4440	63.3611
4424	63.4061
4408	63.5429
4392	64.5965
4376	64.3856
4360	64.111
4344	64.5098
4328	64.7568
4312	64.566
4296	64.7125
4280	65.1132
4264	64.6889
4248	65.1519
4232	65.0961
4216	65.1238
4200	65.017
4184	65.2043
4168	65.4363
4152	65.0858
4136	65.192
4120	65.1193
4104	65.0671
4088	65.2058
4072	65.5506
4056	65.1855
4040	65.1702
4024	64.8582
4008	65.2259
3992	65.2034
3976	65.0879
3960	64.9068
3944	64.9763
3928	65.1344
3912	65.0988
3896	65.1901
3880	65.2573
3864	65.0599
3848	65.0041
3832	65.0977
3816	65.0991
3800	65.0798
3784	65.2669
3768	65.1864
3752	65.2418
3736	65.1343
3720	65.2861
3704	65.1642
3688	65.317
3672	65.2565
3656	65.1183
3640	65.2875
3624	65.2083
3608	65.0801
3592	65.2957
3576	65.1493
3560	65.1534
3544	65.0436
3528	65.0799
3512	65.053
3496	65.0681
3480	65.0428
3464	64.9195
3448	65.0711
3432	65.1406
3416	65.106
3400	65.1223
3384	65.2329
3368	65.0734
3352	65.3912
3336	65.1794
3320	65.1704
3304	65.1882
3288	65.2122
3272	65.0684
3256	65.2495
3240	65.3301
3224	65.289
3208	65.1292
3192	65.2783
3176	65.1208
3160	64.9117
3144	65.0833
3128	65.1111
3112	65.13
3096	65.0788
3080	65.0779
3064	65.1313
3048	65.1965
3032	65.3321
3016	65.0744
3000	65.0127
2984	65.2045
2968	65.1568
2952	65.2046
2936	65.0277
2920	64.9562
2904	65.1872
2888	65.1832
2872	65.0664
2856	65.2126
2840	65.0448
2824	65.1165
2808	65.2722
2792	65.241
2776	65.3302
2760	65.2481
2744	65.3056
2728	65.2372
2712	65.2765
2696	65.1576
2680	65.1009
2664	65.236
2648	65.0556
2632	65.1662
2616	65.2034
2600	65.1917
2584	65.0843
2568	65.1992
2552	65.1835
2536	65.2956
2520	65.126
2504	65.2209
2488	65.3378
2472	65.1276
2456	65.3187
2440	65.293
2424	65.23
2408	65.3108
2392	65.2997
2376	65.0792
2360	65.2471
2344	65.2396
2328	65.257
2312	65.2557
2296	65.1545
2280	65.1291
2264	65.2749
2248	65.2311
2232	65.2308
2216	65.2108
2200	65.1877
2184	65.0514
2168	65.2373
2152	65.1606
2136	65.1768
2120	65.2105
2104	65.2169
2088	65.1582
2072	65.1959
2056	65.2273
2040	65.2144
2024	65.1731
2008	65.1507
1992	65.1654
1976	65.3587
1960	65.1708
1944	65.2143
1928	65.2293
1912	65.258
1896	65.1734
1880	65.2257
1864	65.2233
1848	65.2607
1832	65.2147
1816	65.2265
1800	65.2605
1784	65.2239
1768	65.3185
1752	65.202
1736	65.0913
1720	65.0779
1704	65.1945
1688	65.1464
1672	65.2137
1656	65.0694
1640	65.0648
1624	65.1697
1608	65.2114
1592	65.0972
1576	65.0367
1560	65.1159
1544	65.1101
1528	65.0799
1512	65.1214
1496	65.2501
1480	65.0532
1464	65.2319
1448	65.0837
1432	65.2017
1416	65.0467
1400	65.1729
1384	65.1056
1368	65.0213
1352	65.0539
1336	65.0991
1320	65.0561
1304	65.0574
1288	65.1345
1272	65.0884
1256	65.0196
1240	65.0535
1224	65.1165
1208	65.0963
1192	64.9872
1176	65.1008
1160	65.0658
1144	65.0285
1128	65.1235
1112	65.0534
1096	64.9392
1080	64.9261
1064	65.0715
1048	64.9336
1032	65.0569
1016	65.0111
1000	65.1279
984	 64.9568
968	 65.1407
952	 65.3443
936	 65.0977
920	 65.2024
904	 65.1303
888	 65.1429
872	 65.3591
856	 65.0995
840	 65.2469
824	 65.5494
808	 65.4688
792	 65.0931
776	 65.4794
760	 65.3185
744	 65.4763
728	 65.3802
712	 65.3276
696	 65.2904
680	 65.6101
664	 65.3529
648	 65.1997
632	 65.6428
616	 65.7343
600	 65.2425
584	 65.2345
568	 65.2735
552	 65.2189
536	 65.5877
520	 65.3167
504	 66.474
488	 65.8665
472	 66.1207
456	 66.0673
440	 65.293
424	 65.0678
408	 75.0861
392	 47.0003
376	 5.121016
370	 38.8155

File: BZ12041010-4_t17.asc
PE IR       SPECTRUM    SPECTRUM    ASCII       PEDS        1.60
  -1
BZ4ABA~1.ASC
17/04/10
10:18:33.00
17/04/10
10:18:59.00
tln
$BZ12041010-4_t0017$<tbV0>[2.6,-4.6,9.0,0.0,22,1,0]
27.028
64

2002,4.07
MIRTGS : RIGHTBACK : INTERNAL 2
MIR : ON : INTERNAL 2
OPTKBR

0.200000
8
8.000000
FILLER
RATIO
SPECTRUM
UNLOCKED 256

DOUBLE
64
COMBINED
1
0
0

0.002000
RATIO

1
0
TRUE
51149
0
LEFT NOT FITTED RIGHT NOT FITTED 0
NONE
NONE
15600
12
4.427000
51148
TRUE
1 0 8 72 0 0 0 0

15798

#HDR
-1
-1
#GR
µM
%T
2.38419e-05
0.0
2.000000
0.002000
12515
8
109.022
32.4323
#DATA
2.000000	 64.9986
2.084000	 66.289
2.168000	 64.2539
2.252000	 63.7346
2.336000	 64.7831
2.420000	 65.4724
2.504000	 65.0247
2.588000	 65.2455
2.672000	 65.392
2.756000	 65.4631
2.840000	 65.3192
2.924000	 65.2027
3.008000	 65.269
3.092000	 65.3007
3.176000	 65.2765
3.260000	 65.2735
3.344000	 65.4001
3.428000	 65.2385
3.512000	 65.3356
3.596000	 65.4901
3.680000	 65.4468
3.764000	 65.2906
3.848000	 65.3263
3.932000	 65.2298
4.016000	 65.384
4.100000	 65.4023
4.184000	 65.3081
4.268000	 65.3126
4.352000	 65.3193
4.436000	 65.2472
4.520000	 65.253
4.604000	 65.3417
4.688000	 65.2533
4.772000	 65.205
4.856000	 65.2939
4.940000	 65.3768
5.024000	 65.3555
5.108000	 65.3849
5.192000	 65.4567
5.276000	 65.3608
5.359999	 65.3144
5.444000	 65.3986
5.528000	 65.2903
5.612000	 65.2102
5.696000	 65.1894
5.780000	 65.158
5.864000	 65.0248
5.948000	 65.1412
6.032000	 65.3167
6.116000	 65.282
6.200000	 65.247
6.284000	 65.2493
6.368000	 65.2954
6.452000	 65.3904
6.536000	 65.2494
6.620000	 65.3497
6.704000	 65.4883
6.788000	 65.2987
6.872000	 65.4213
6.956000	 65.2726
7.040000	 65.2057
7.124000	 65.2239
7.208000	 65.2601
7.292000	 65.2691
7.376000	 65.1242
7.460000	 65.259
7.544000	 65.1161
7.628000	 65.1304
7.712000	 65.1923
7.796000	 65.2406
7.880000	 65.0866
7.964000	 65.0483
8.048000	 65.1026
8.132000	 65.1898
8.216000	 65.2192
8.300000	 65.2471
8.384000	 65.0025
8.468000	 65.2638
8.552000	 65.1444
8.635999	 65.3168
8.719999	 65.1908
8.804000	 65.1434
8.888000	 65.2641
8.972000	 65.1935
9.056000	 65.1592
9.140000	 65.1614
9.224000	 65.0413
9.308000	 65.2234
9.391999	 65.2932
9.475999	 65.1839
9.560000	 65.1023
9.644000	 65.1284
9.728000	 65.089
9.812000	 65.1587
9.896000	 65.1645
9.980000	 65.0214
10.064	65.1735
10.148	65.2462
10.232	65.2604
10.316	65.2599
10.4	65.3035
10.484	65.3801
10.568	65.4053
10.652	65.1763
10.736	65.1142
10.82	65.2555
10.904	65.186
10.988	65.1661
11.072	65.2712
11.156	65.345
11.24	65.3706
11.324	65.1708
11.408	65.1556
11.492	65.2111
11.576	65.2982
11.66	65.2191
11.744	65.2086
11.828	65.3318
11.912	65.3336
11.996	65.3081
12.08	65.4568
12.164	65.5172
12.248	65.5192
12.332	65.4169
12.416	65.44
12.5	65.4187
12.584	65.1774
12.668	65.3043
12.752	65.4186
12.836	65.4376
12.92	65.5205
13.004	65.5748
13.088	65.5764
13.172	65.4589
13.256	65.3911
13.34	65.4703
13.424	65.517
13.508	65.4777
13.592	65.4811
13.676	65.4971
13.76	65.5257
13.844	65.5556
13.928	65.5018
14.012	65.3629
14.096	65.2828
14.18	65.2949
14.264	65.3179
14.348	65.3698
14.432	65.4201
14.516	65.3848
14.6	65.3851
14.684	65.477
14.768	65.5053
14.852	65.488
14.936	65.5093
15.02	65.5368
15.104	65.5554
15.188	65.6394
15.272	65.6925
15.356	65.5305
15.44	65.328
15.524	65.318
15.608	65.4199
15.692	65.4893
15.776	65.4802
15.86	65.4094
15.944	65.3562
16.028	65.3893
16.112	65.4718
16.196	65.5143
16.28	65.4889
16.364	65.4646
16.448	65.5577
16.532	65.7439
16.616	65.8157
16.7	65.6603
16.784	65.4656
16.868	65.507
16.952	65.7535
17.036	65.8903
17.12	65.753
17.204	65.5284
17.288	65.4622
17.372	65.5719
17.456	65.7068
17.54	65.756
17.624	65.7513
17.708	65.757
17.792	65.7468
17.876	65.6618
17.96	65.5387
18.044	65.4843
18.128	65.5671
18.212	65.7488
18.296	65.9154
18.38	65.9593
18.464	65.8609
18.548	65.7151
18.632	65.6562
18.716	65.7273
18.8	65.8314
18.884	65.841
18.968	65.7213
19.052	65.5512
19.136	65.4466
19.22	65.4848
19.304	65.6603
19.388	65.9076
19.472	66.1613
19.556	66.3911
19.64	66.5825
19.724	66.6813
19.808	66.6081
19.892	66.3414
19.976	65.9717
20.06	65.6528
20.144	65.5178
20.228	65.6116
20.312	65.8531
20.396	66.0685
20.48	66.1145
20.564	65.9872
20.648	65.8044
20.732	65.6928
20.816	65.6872
20.9	65.7357
20.984	65.7628
21.068	65.7297
21.152	65.6404
21.236	65.5073
21.32	65.3258
21.404	65.096
21.488	64.8488
21.572	64.644
21.656	64.5488
21.74	64.5975
21.824	64.7896
21.908	65.1129
21.992	65.5521
22.076	66.0789
22.16	66.623
22.244	67.0499
22.328	67.2374
22.412	67.1407
22.496	66.8676
22.58	66.6068
22.664	66.5232
22.748	66.646
22.832	66.8281
22.916	66.8498
23	66.5288
23.084	65.8397
23.168	64.9497
23.252	64.1297
23.336	63.6571
23.42	63.7031
23.504	64.2681
23.588	65.2328
23.672	66.4426
23.756	67.7351
23.84	69.0513
23.924	70.382
24.008	71.7615
24.092	73.2588
24.176	74.8965
24.26	76.6499
24.344	78.4416
24.428	80.1576
24.512	81.6492
24.596	82.8255
24.68	83.6086
24.764	83.8903
24.848	83.5755
24.932	82.5398
25.016	80.6784
25.1	78.0026
25.184	74.5214
25.268	70.3201
25.352	65.6831
25.436	60.8549
25.52	56.0211
25.604	51.3252
25.688	47.3004
25.772	44.0622
25.856	40.9509
25.94	37.1748
26.024	33.419
26.108	32.6262
26.192	36.4328
26.276	43.861
26.36	49.2924
26.444	49.6164
26.528	46.0407
26.612	46.924
26.696	58.0146
26.78	76.6229
26.864	89.6499
26.948	83.7349
27.028	63.1111