Folder: Masteroppgave/Bakgrunnsmateriale/MATLAB/FTIR/ftir_data/subCa/Mapping_25 (part 3)

File: BZ12041010-4_t02_cm-1.asc
PE IR       SPECTRUM    SPECTRUM    ASCII       PEDS        1.60
  -1
BZABF1~1.ASC
17/04/10
09:00:58.00
17/04/10
09:00:58.00
tln
$BZ12041010-4_t0002$<tbV0>[2.6,-12.4,9.0,0.0,22,1,0]
370
64

2002,4.07
MIRTGS : RIGHTBACK : INTERNAL 2
MIR : ON : INTERNAL 2
OPTKBR

0.200000
8
8.000000
FILLER
RATIO
SPECTRUM
UNLOCKED 256

DOUBLE
64
COMBINED
1
0
0

1.000000
RATIO

1
0
TRUE
51149
0
LEFT NOT FITTED RIGHT NOT FITTED 0
NONE
NONE
15600
12
4.427000
51148
TRUE
1 0 8 72 0 0 0 0

15798

#HDR
-1
-1
#GR
CM-1
%T
2.38419e-05
0.0
5000
-1.000000
4631
8
84.6141
53.9797
#DATA
5000	64.9079
4984	64.4065
4968	64.933
4952	65.2763
4936	64.5049
4920	64.6838
4904	64.7333
4888	64.9403
4872	64.7209
4856	64.4124
4840	64.3251
4824	65.4675
4808	63.7048
4792	63.9746
4776	65.4621
4760	64.4619
4744	66.2485
4728	63.6751
4712	65.5809
4696	63.2951
4680	64.3169
4664	65.1669
4648	65.6477
4632	65.1055
4616	64.6631
4600	64.3551
4584	64.6586
4568	64.3027
4552	65.5398
4536	64.7515
4520	64.994
4504	65.7914
4488	58.1637
4472	70.8151
4456	64.1086
4440	64.6239
4424	65.0868
4408	65.3777
4392	65.0388
4376	64.9912
4360	64.7073
4344	64.9596
4328	64.7312
4312	64.8893
4296	64.8946
4280	65.0709
4264	64.7749
4248	64.8766
4232	64.7824
4216	64.8923
4200	65.2524
4184	64.8849
4168	65.2962
4152	65.1044
4136	64.9786
4120	65.1917
4104	64.9604
4088	65.0191
4072	65.0734
4056	64.9968
4040	65.2069
4024	65.1882
4008	65.1212
3992	64.9438
3976	64.8858
3960	65.1569
3944	65.0504
3928	65.136
3912	65.0204
3896	65.2162
3880	65.2854
3864	64.9868
3848	65.2647
3832	65.2604
3816	65.1174
3800	65.1711
3784	65.0884
3768	65.1501
3752	65.3574
3736	65.3133
3720	65.2331
3704	65.2529
3688	65.1833
3672	65.3347
3656	65.0741
3640	65.268
3624	65.401
3608	65.3047
3592	65.1072
3576	65.272
3560	65.1988
3544	64.9102
3528	65.2164
3512	65.1131
3496	64.9058
3480	65.1493
3464	65.0754
3448	65.0888
3432	65.1258
3416	65.1559
3400	65.1125
3384	65.1877
3368	65.161
3352	64.8927
3336	64.9558
3320	65.1585
3304	65.0426
3288	65.0731
3272	64.9742
3256	65.281
3240	65.0917
3224	65.0308
3208	65.1856
3192	65.2545
3176	64.887
3160	65.1151
3144	65.1658
3128	65.1849
3112	65.1647
3096	64.9908
3080	65.1891
3064	65.0649
3048	65.2191
3032	65.137
3016	65.0837
3000	64.9701
2984	65.0141
2968	65.195
2952	65.0378
2936	65.0862
2920	65.1309
2904	65.2327
2888	65.1257
2872	65.087
2856	65.1073
2840	65.2003
2824	65.0512
2808	65.2153
2792	65.0833
2776	65.1828
2760	65.2051
2744	65.2831
2728	65.1495
2712	65.0961
2696	65.2012
2680	64.9181
2664	65.1276
2648	65.1876
2632	65.1245
2616	65.1637
2600	65.1335
2584	65.1146
2568	65.0698
2552	65.2
2536	65.089
2520	65.1716
2504	65.2057
2488	65.1889
2472	65.3191
2456	65.2534
2440	65.2606
2424	65.1823
2408	65.2041
2392	65.1992
2376	65.156
2360	65.2289
2344	65.2276
2328	65.2104
2312	65.2395
2296	65.1779
2280	65.2879
2264	65.1453
2248	65.2377
2232	65.1766
2216	65.2873
2200	65.0998
2184	65.2209
2168	65.2657
2152	65.2742
2136	65.1688
2120	65.2675
2104	65.223
2088	65.1744
2072	65.1228
2056	65.142
2040	65.1967
2024	65.1929
2008	65.2712
1992	65.1736
1976	65.3232
1960	65.2043
1944	65.1834
1928	65.2345
1912	65.2557
1896	65.2815
1880	65.3224
1864	65.2103
1848	65.2936
1832	65.3211
1816	65.247
1800	65.2873
1784	65.2969
1768	65.2877
1752	65.2405
1736	65.1813
1720	65.0809
1704	65.2112
1688	65.3106
1672	65.2114
1656	65.3982
1640	65.2362
1624	65.1723
1608	65.0955
1592	65.0747
1576	65.1554
1560	65.4857
1544	65.3696
1528	65.211
1512	65.2807
1496	65.3029
1480	65.249
1464	65.3486
1448	65.1977
1432	65.2539
1416	65.2351
1400	65.2026
1384	65.0439
1368	65.0232
1352	65.1023
1336	65.0547
1320	65.1313
1304	65.0651
1288	65.0113
1272	65.07
1256	65.083
1240	65.0498
1224	65.1446
1208	65.2298
1192	65.0585
1176	65.1228
1160	65.1451
1144	65.0371
1128	65.2055
1112	65.067
1096	64.9861
1080	65.1926
1064	65.0221
1048	64.9343
1032	64.8821
1016	65.1084
1000	65.1219
984	 65.026
968	 65.258
952	 65.2411
936	 65.4228
920	 65.3077
904	 65.1329
888	 65.2788
872	 65.388
856	 65.3621
840	 65.1907
824	 65.4673
808	 65.1802
792	 65.3569
776	 65.6777
760	 65.384
744	 65.3246
728	 65.1575
712	 65.3428
696	 65.138
680	 65.1834
664	 65.5999
648	 65.525
632	 65.427
616	 65.8185
600	 65.1175
584	 65.3642
568	 66.2052
552	 66.1694
536	 66.0954
520	 65.9941
504	 66.121
488	 66.3261
472	 66.1899
456	 65.6779
440	 67.2759
424	 66.5073
408	 65.9679
392	 70.2764
376	 62.9252
370	 53.9797

File: BZ12041010-4_t03.asc
PE IR       SPECTRUM    SPECTRUM    ASCII       PEDS        1.60
  -1
BZ36BA~1.ASC
17/04/10
09:05:35.00
17/04/10
09:06:01.00
tln
$BZ12041010-4_t0003$<tbV0>[0.0,-12.4,9.0,0.0,22,1,0]
27.028
64

2002,4.07
MIRTGS : RIGHTBACK : INTERNAL 2
MIR : ON : INTERNAL 2
OPTKBR

0.200000
8
8.000000
FILLER
RATIO
SPECTRUM
UNLOCKED 256

DOUBLE
64
COMBINED
1
0
0

0.002000
RATIO

1
0
TRUE
51149
0
LEFT NOT FITTED RIGHT NOT FITTED 0
NONE
NONE
15600
12
4.427000
51148
TRUE
1 0 8 72 0 0 0 0

15798

#HDR
-1
-1
#GR
µM
%T
2.38419e-05
0.0
2.000000
0.002000
12515
8
68.9355
43.2019
#DATA
2.000000	 65.318
2.084000	 66.5699
2.168000	 65.8563
2.252000	 66.0682
2.336000	 65.4211
2.420000	 64.7369
2.504000	 65.187
2.588000	 65.2261
2.672000	 65.5152
2.756000	 65.3988
2.840000	 65.2614
2.924000	 65.2716
3.008000	 65.1909
3.092000	 65.1966
3.176000	 65.4346
3.260000	 65.0393
3.344000	 65.0855
3.428000	 65.2873
3.512000	 65.1324
3.596000	 65.1787
3.680000	 65.2752
3.764000	 65.3855
3.848000	 65.3
3.932000	 65.3104
4.016000	 65.2477
4.100000	 65.2608
4.184000	 65.292
4.268000	 65.3382
4.352000	 65.412
4.436000	 65.2688
4.520000	 65.3723
4.604000	 65.3203
4.688000	 65.2784
4.772000	 65.3683
4.856000	 65.2884
4.940000	 65.3705
5.024000	 65.3134
5.108000	 65.2956
5.192000	 65.2906
5.276000	 65.2714
5.359999	 65.3885
5.444000	 65.3566
5.528000	 65.4528
5.612000	 65.3213
5.696000	 65.3729
5.780000	 65.3665
5.864000	 65.4003
5.948000	 65.5109
6.032000	 65.4384
6.116000	 65.2596
6.200000	 65.3323
6.284000	 65.1098
6.368000	 65.2636
6.452000	 65.3296
6.536000	 65.3449
6.620000	 65.498
6.704000	 65.4142
6.788000	 65.4624
6.872000	 65.3698
6.956000	 65.4144
7.040000	 65.4908
7.124000	 65.2633
7.208000	 65.1991
7.292000	 65.2955
7.376000	 65.337
7.460000	 65.2619
7.544000	 65.2482
7.628000	 65.3086
7.712000	 65.2483
7.796000	 65.338
7.880000	 65.1429
7.964000	 65.1617
8.048000	 65.275
8.132000	 65.2308
8.216000	 65.2009
8.300000	 65.3031
8.384000	 65.2465
8.468000	 65.1108
8.552000	 65.2503
8.635999	 65.2269
8.719999	 65.1624
8.804000	 64.9567
8.888000	 65.1636
8.972000	 65.2917
9.056000	 64.9163
9.140000	 64.9238
9.224000	 65.1452
9.308000	 65.2757
9.391999	 65.1211
9.475999	 65.2877
9.560000	 65.1146
9.644000	 65.0462
9.728000	 65.043
9.812000	 65.0129
9.896000	 65.0964
9.980000	 65.3334
10.064	65.05
10.148	65.0826
10.232	65.1699
10.316	65.2102
10.4	65.1483
10.484	65.1885
10.568	65.2953
10.652	65.3428
10.736	65.4056
10.82	65.3357
10.904	65.2151
10.988	65.3146
11.072	65.4528
11.156	65.5364
11.24	65.4587
11.324	65.4472
11.408	65.3804
11.492	65.5551
11.576	65.7085
11.66	65.6248
11.744	65.445
11.828	65.3699
11.912	65.3896
11.996	65.4377
12.08	65.4822
12.164	65.4835
12.248	65.5472
12.332	65.5885
12.416	65.3734
12.5	65.3502
12.584	65.2624
12.668	65.2922
12.752	65.3933
12.836	65.5495
12.92	65.7043
13.004	65.6769
13.088	65.5012
13.172	65.4404
13.256	65.3391
13.34	65.1892
13.424	65.1827
13.508	65.2892
13.592	65.4312
13.676	65.5184
13.76	65.4847
13.844	65.2942
13.928	65.1827
14.012	65.2407
14.096	65.3349
14.18	65.3939
14.264	65.3624
14.348	65.3105
14.432	65.3291
14.516	65.3292
14.6	65.3072
14.684	65.4059
14.768	65.5994
14.852	65.7603
14.936	65.7567
15.02	65.6492
15.104	65.6891
15.188	65.7771
15.272	65.7251
15.356	65.6763
15.44	65.648
15.524	65.5157
15.608	65.393
15.692	65.3962
15.776	65.3763
15.86	65.2093
15.944	65.0992
16.028	65.2788
16.112	65.6053
16.196	65.7997
16.28	65.8195
16.364	65.7484
16.448	65.648
16.532	65.617
16.616	65.7088
16.7	65.8067
16.784	65.771
16.868	65.6328
16.952	65.5296
17.036	65.5476
17.12	65.6562
17.204	65.753
17.288	65.8012
17.372	65.8774
17.456	66.0317
17.54	66.1791
17.624	66.2002
17.708	66.0964
17.792	65.9792
17.876	65.941
17.96	65.9633
18.044	65.9774
18.128	65.981
18.212	66.0335
18.296	66.1334
18.38	66.1908
18.464	66.1463
18.548	66.0526
18.632	65.9935
18.716	65.9783
18.8	65.9698
18.884	65.9812
18.968	66.0506
19.052	66.1358
19.136	66.1504
19.22	66.0928
19.304	66.0586
19.388	66.1262
19.472	66.2843
19.556	66.4479
19.64	66.5278
19.724	66.4945
19.808	66.3843
19.892	66.2517
19.976	66.1296
20.06	66.0253
20.144	65.9298
20.228	65.8336
20.312	65.7476
20.396	65.7119
20.48	65.7674
20.564	65.912
20.648	66.0812
20.732	66.1854
20.816	66.1735
20.9	66.0616
20.984	65.9046
21.068	65.746
21.152	65.5944
21.236	65.4467
21.32	65.3103
21.404	65.2136
21.488	65.193
21.572	65.2703
21.656	65.4404
21.74	65.6684
21.824	65.9007
21.908	66.0809
21.992	66.1625
22.076	66.1196
22.16	65.9643
22.244	65.7678
22.328	65.6296
22.412	65.633
22.496	65.7991
22.58	66.0774
22.664	66.3801
22.748	66.6188
22.832	66.7371
22.916	66.7227
23	66.6058
23.084	66.4414
23.168	66.2979
23.252	66.2211
23.336	66.2124
23.42	66.2202
23.504	66.1689
23.588	66.0034
23.672	65.7236
23.756	65.3952
23.84	65.1136
23.924	64.966
24.008	64.9899
24.092	65.1684
24.176	65.4601
24.26	65.8385
24.344	66.2838
24.428	66.7569
24.512	67.1694
24.596	67.3961
24.68	67.3252
24.764	66.93
24.848	66.3164
24.932	65.7044
25.016	65.3294
25.1	65.3317
25.184	65.6982
25.268	66.2703
25.352	66.839
25.436	67.257
25.52	67.5077
25.604	67.6707
25.688	67.8951
25.772	68.2559
25.856	68.6602
25.94	68.918
26.024	68.8177
26.108	68.2424
26.192	67.2504
26.276	66.0695
26.36	65.0358
26.444	64.4738
26.528	64.5625
26.612	65.1869
26.696	66.0691
26.78	66.9055
26.864	67.5097
26.948	67.8449
27.028	67.9436

File: BZ12041010-4_t03_cm-1.asc
PE IR       SPECTRUM    SPECTRUM    ASCII       PEDS        1.60
  -1
BZAB7F~1.ASC
17/04/10
09:05:35.00
17/04/10
09:05:35.00
tln
$BZ12041010-4_t0003$<tbV0>[0.0,-12.4,9.0,0.0,22,1,0]
370
64

2002,4.07
MIRTGS : RIGHTBACK : INTERNAL 2
MIR : ON : INTERNAL 2
OPTKBR

0.200000
8
8.000000
FILLER
RATIO
SPECTRUM
UNLOCKED 256

DOUBLE
64
COMBINED
1
0
0

1.000000
RATIO

1
0
TRUE
51149
0
LEFT NOT FITTED RIGHT NOT FITTED 0
NONE
NONE
15600
12
4.427000
51148
TRUE
1 0 8 72 0 0 0 0

15798

#HDR
-1
-1
#GR
CM-1
%T
2.38419e-05
0.0
5000
-1.000000
4631
8
68.9312
43.1155
#DATA
5000	65.318
4984	64.697
4968	64.9531
4952	64.9903
4936	64.8008
4920	64.9916
4904	64.7266
4888	64.367
4872	64.4928
4856	64.8328
4840	64.1671
4824	64.7499
4808	64.7085
4792	64.2444
4776	63.5085
4760	66.581
4744	64.5044
4728	64.7908
4712	65.3286
4696	63.5434
4680	64.1119
4664	64.8446
4648	66.361
4632	65.6453
4616	65.7381
4600	65.2647
4584	66.1265
4568	66.3229
4552	66.3717
4536	66.0028
4520	66.5711
4504	67.3853
4488	59.7359
4472	43.1155
4456	66.2901
4440	66.0877
4424	66.99
4408	66.4958
4392	66.4029
4376	66.3343
4360	65.8829
4344	65.7588
4328	65.5269
4312	65.4778
4296	65.2571
4280	65.426
4264	65.0043
4248	65.2628
4232	64.9189
4216	65.0434
4200	64.7532
4184	64.2834
4168	64.9727
4152	64.8397
4136	64.7493
4120	64.8643
4104	64.9565
4088	65.1239
4072	65.0198
4056	65.0127
4040	65.1646
4024	65.204
4008	64.9777
3992	65.204
3976	65.4411
3960	65.2573
3944	65.3564
3928	65.4107
3912	65.1993
3896	65.3948
3880	65.3583
3864	65.2265
3848	65.3428
3832	65.3505
3816	65.2769
3800	65.2619
3784	65.3932
3768	65.0226
3752	65.2563
3736	65.4104
3720	65.1253
3704	65.1269
3688	65.2232
3672	65.335
3656	65.3248
3640	65.3246
3624	65.3569
3608	65.3083
3592	65.3436
3576	65.229
3560	65.3406
3544	65.1056
3528	65.3657
3512	65.325
3496	65.2088
3480	65.1232
3464	65.2237
3448	65.3338
3432	65.2251
3416	65.2615
3400	65.3701
3384	65.2741
3368	65.2519
3352	65.0577
3336	65.2457
3320	65.127
3304	65.0839
3288	65.0981
3272	65.196
3256	65.3295
3240	65.17
3224	65.0282
3208	65.2643
3192	65.2141
3176	65.1328
3160	65.2622
3144	65.4155
3128	65.2107
3112	65.1631
3096	65.1711
3080	65.073
3064	65.0396
3048	65.3154
3032	65.2099
3016	65.1185
3000	65.1695
2984	65.098
2968	65.201
2952	65.1988
2936	65.0862
2920	65.2844
2904	65.2232
2888	65.1778
2872	65.0088
2856	65.1937
2840	65.0889
2824	65.2354
2808	65.2657
2792	65.1894
2776	65.2115
2760	65.2802
2744	65.3105
2728	65.2367
2712	65.2768
2696	65.3669
2680	65.2001
2664	65.2215
2648	65.2601
2632	65.3496
2616	65.337
2600	65.3044
2584	65.2882
2568	65.2644
2552	65.3455
2536	65.3058
2520	65.2986
2504	65.2979
2488	65.2524
2472	65.3544
2456	65.3359
2440	65.2395
2424	65.3378
2408	65.2281
2392	65.2814
2376	65.3591
2360	65.264
2344	65.3335
2328	65.3568
2312	65.3127
2296	65.4088
2280	65.4153
2264	65.2596
2248	65.2379
2232	65.2601
2216	65.3916
2200	65.2546
2184	65.3241
2168	65.3074
2152	65.4594
2136	65.2996
2120	65.2582
2104	65.3286
2088	65.4287
2072	65.3535
2056	65.3047
2040	65.3819
2024	65.3661
2008	65.4105
1992	65.2923
1976	65.3446
1960	65.2962
1944	65.407
1928	65.2691
1912	65.3099
1896	65.2663
1880	65.2926
1864	65.394
1848	65.4404
1832	65.422
1816	65.3787
1800	65.4681
1784	65.3431
1768	65.5184
1752	65.3871
1736	65.4531
1720	65.381
1704	65.4579
1688	65.5038
1672	65.4166
1656	65.4823
1640	65.3138
1624	65.2611
1608	65.1404
1592	65.1098
1576	65.2507
1560	65.5497
1544	65.4396
1528	65.3199
1512	65.4527
1496	65.447
1480	65.3128
1464	65.4767
1448	65.2346
1432	65.4561
1416	65.371
1400	65.306
1384	65.2054
1368	65.3196
1352	65.3422
1336	65.3118
1320	65.305
1304	65.2376
1288	65.3433
1272	65.2044
1256	65.1633
1240	65.2624
1224	65.2542
1208	65.2788
1192	65.2301
1176	65.2097
1160	65.2233
1144	65.0848
1128	65.1197
1112	65.2895
1096	64.8823
1080	65.2146
1064	65.1334
1048	65.1666
1032	65.0435
1016	64.9894
1000	65.3247
984	 65.1068
968	 65.2155
952	 65.1954
936	 65.3842
920	 65.2763
904	 65.4426
888	 65.4449
872	 65.4851
856	 65.5799
840	 65.3863
824	 65.4952
808	 65.4641
792	 65.2543
776	 65.659
760	 65.443
744	 65.1955
728	 65.5137
712	 65.2786
696	 65.3093
680	 65.4522
664	 65.6443
648	 65.6545
632	 65.2956
616	 65.8249
600	 65.7788
584	 65.6608
568	 66.2087
552	 65.9787
536	 65.9862
520	 66.0849
504	 66.3319
488	 65.783
472	 65.5334
456	 66.1132
440	 66.5697
424	 66.0116
408	 67.1607
392	 67.4848
376	 65.039
370	 67.9436

File: BZ12041010-4_t04.asc
PE IR       SPECTRUM    SPECTRUM    ASCII       PEDS        1.60
  -1
BZ36BE~1.ASC
17/04/10
09:10:12.00
17/04/10
09:10:39.00
tln
$BZ12041010-4_t0004$<tbV0>[-2.6,-12.4,9.0,0.0,22,1,0]
27.028
64

2002,4.07
MIRTGS : RIGHTBACK : INTERNAL 2
MIR : ON : INTERNAL 2
OPTKBR

0.200000
8
8.000000
FILLER
RATIO
SPECTRUM
UNLOCKED 256

DOUBLE
64
COMBINED
1
0
0

0.002000
RATIO

1
0
TRUE
51149
0
LEFT NOT FITTED RIGHT NOT FITTED 0
NONE
NONE
15600
12
4.427000
51148
TRUE
1 0 8 72 0 0 0 0

15798

#HDR
-1
-1
#GR
µM
%T
2.38419e-05
0.0
2.000000
0.002000
12515
8
75.1307
35.0248
#DATA
2.000000	 65.035
2.084000	 65.1217
2.168000	 65.3695
2.252000	 66.3581
2.336000	 65.5478
2.420000	 65.1147
2.504000	 65.3616
2.588000	 65.3614
2.672000	 65.5391
2.756000	 65.585
2.840000	 65.3308
2.924000	 65.2761
3.008000	 65.1342
3.092000	 65.2158
3.176000	 65.2123
3.260000	 65.1128
3.344000	 65.1637
3.428000	 65.2268
3.512000	 65.2535
3.596000	 65.2554
3.680000	 65.3604
3.764000	 65.3173
3.848000	 65.3105
3.932000	 65.2549
4.016000	 65.2903
4.100000	 65.3673
4.184000	 65.3323
4.268000	 65.2931
4.352000	 65.335
4.436000	 65.3259
4.520000	 65.3204
4.604000	 65.3079
4.688000	 65.3716
4.772000	 65.4242
4.856000	 65.3305
4.940000	 65.3186
5.024000	 65.3002
5.108000	 65.3652
5.192000	 65.3322
5.276000	 65.4162
5.359999	 65.3513
5.444000	 65.377
5.528000	 65.4492
5.612000	 65.4395
5.696000	 65.3005
5.780000	 65.2017
5.864000	 65.3699
5.948000	 65.5365
6.032000	 65.5096
6.116000	 65.3249
6.200000	 65.387
6.284000	 65.2678
6.368000	 65.3058
6.452000	 65.3466
6.536000	 65.4267
6.620000	 65.47
6.704000	 65.5405
6.788000	 65.4177
6.872000	 65.3236
6.956000	 65.269
7.040000	 65.4108
7.124000	 65.2789
7.208000	 65.1874
7.292000	 65.1813
7.376000	 65.1231
7.460000	 65.3003
7.544000	 65.1114
7.628000	 65.3106
7.712000	 65.2808
7.796000	 65.1814
7.880000	 65.0975
7.964000	 65.2866
8.048000	 65.2356
8.132000	 65.2041
8.216000	 65.3653
8.300000	 65.3395
8.384000	 65.1587
8.468000	 65.1044
8.552000	 65.3633
8.635999	 65.224
8.719999	 65.1521
8.804000	 65.1212
8.888000	 65.3066
8.972000	 65.2237
9.056000	 64.9396
9.140000	 65.0563
9.224000	 65.2679
9.308000	 65.2997
9.391999	 65.1948
9.475999	 65.1888
9.560000	 65.1461
9.644000	 65.0618
9.728000	 65.2056
9.812000	 65.0745
9.896000	 65.006
9.980000	 65.2199
10.064	65.1845
10.148	65.3581
10.232	65.2448
10.316	65.2307
10.4	65.2254
10.484	65.2983
10.568	65.2071
10.652	65.2806
10.736	65.3937
10.82	65.3504
10.904	65.3455
10.988	65.2807
11.072	65.3747
11.156	65.4334
11.24	65.2809
11.324	65.4469
11.408	65.4059
11.492	65.2471
11.576	65.4162
11.66	65.3926
11.744	65.4007
11.828	65.4475
11.912	65.4234
11.996	65.2997
12.08	65.3039
12.164	65.2914
12.248	65.3396
12.332	65.4663
12.416	65.4749
12.5	65.4645
12.584	65.4844
12.668	65.4347
12.752	65.3813
12.836	65.5477
12.92	65.6291
13.004	65.4462
13.088	65.3668
13.172	65.4431
13.256	65.4714
13.34	65.5376
13.424	65.5234
13.508	65.4211
13.592	65.4391
13.676	65.3973
13.76	65.3126
13.844	65.3198
13.928	65.3703
14.012	65.4191
14.096	65.4616
14.18	65.4051
14.264	65.3624
14.348	65.4571
14.432	65.5527
14.516	65.5635
14.6	65.5479
14.684	65.5085
14.768	65.4764
14.852	65.516
14.936	65.5265
15.02	65.4437
15.104	65.3543
15.188	65.3223
15.272	65.3717
15.356	65.452
15.44	65.507
15.524	65.5854
15.608	65.6577
15.692	65.617
15.776	65.5216
15.86	65.4375
15.944	65.367
16.028	65.4325
16.112	65.6811
16.196	65.9274
16.28	66.0229
16.364	65.9517
16.448	65.7075
16.532	65.3891
16.616	65.1688
16.7	65.1222
16.784	65.2476
16.868	65.4772
16.952	65.6641
17.036	65.7325
17.12	65.7231
17.204	65.658
17.288	65.5971
17.372	65.6859
17.456	65.9493
17.54	66.2112
17.624	66.316
17.708	66.2988
17.792	66.2666
17.876	66.2555
17.96	66.2399
18.044	66.2081
18.128	66.1775
18.212	66.1453
18.296	66.0898
18.38	66.0361
18.464	66.0356
18.548	66.0855
18.632	66.1399
18.716	66.1947
18.8	66.2917
18.884	66.4343
18.968	66.5424
19.052	66.5255
19.136	66.3915
19.22	66.2455
19.304	66.1875
19.388	66.2541
19.472	66.4437
19.556	66.7082
19.64	66.9284
19.724	66.9704
19.808	66.8
19.892	66.5217
19.976	66.2966
20.06	66.2192
20.144	66.2663
20.228	66.3388
20.312	66.3462
20.396	66.2615
20.48	66.1328
20.564	66.0465
20.648	66.0636
20.732	66.1761
20.816	66.3131
20.9	66.3996
20.984	66.419
21.068	66.4153
21.152	66.434
21.236	66.4724
21.32	66.4821
21.404	66.4191
21.488	66.2669
21.572	66.0436
21.656	65.799
21.74	65.6048
21.824	65.5311
21.908	65.6087
21.992	65.8095
22.076	66.061
22.16	66.2783
22.244	66.4153
22.328	66.4733
22.412	66.4858
22.496	66.5002
22.58	66.5569
22.664	66.6903
22.748	66.9179
22.832	67.219
22.916	67.5391
23	67.8033
23.084	67.9448
23.168	67.9296
23.252	67.7634
23.336	67.4673
23.42	67.0565
23.504	66.5559
23.588	66.0108
23.672	65.4972
23.756	65.1317
23.84	65.0206
23.924	65.2188
24.008	65.7163
24.092	66.4482
24.176	67.3077
24.26	68.2024
24.344	69.0233
24.428	69.635
24.512	69.8851
24.596	69.6266
24.68	68.7941
24.764	67.497
24.848	66.0017
24.932	64.7472
25.016	64.1872
25.1	64.5877
25.184	65.9682
25.268	68.0826
25.352	70.5434
25.436	72.8097
25.52	74.4081
25.604	75.1073
25.688	74.8294
25.772	73.6703
25.856	71.839
25.94	69.4374
26.024	66.4921
26.108	63.0734
26.192	59.3386
26.276	55.5765
26.36	52.276
26.444	49.8041
26.528	48.2169
26.612	47.1814
26.696	46.1082
26.78	44.3476
26.864	41.597
26.948	38.1478
27.028	35.0248

File: BZ12041010-4_t04_cm-1.asc
PE IR       SPECTRUM    SPECTRUM    ASCII       PEDS        1.60
  -1
BZABFE~1.ASC
17/04/10
09:10:12.00
17/04/10
09:10:12.00
tln
$BZ12041010-4_t0004$<tbV0>[-2.6,-12.4,9.0,0.0,22,1,0]
370
64

2002,4.07
MIRTGS : RIGHTBACK : INTERNAL 2
MIR : ON : INTERNAL 2
OPTKBR

0.200000
8
8.000000
FILLER
RATIO
SPECTRUM
UNLOCKED 256

DOUBLE
64
COMBINED
1
0
0

1.000000
RATIO

1
0
TRUE
51149
0
LEFT NOT FITTED RIGHT NOT FITTED 0
NONE
NONE
15600
12
4.427000
51148
TRUE
1 0 8 72 0 0 0 0

15798

#HDR
-1
-1
#GR
CM-1
%T
2.38419e-05
0.0
5000
-1.000000
4631
8
75.1068
35.0248
#DATA
5000	65.035
4984	64.4205
4968	64.6317
4952	64.8144
4936	64.8793
4920	65.0564
4904	64.5732
4888	64.8318
4872	64.8133
4856	65.173
4840	64.9994
4824	64.7338
4808	62.8577
4792	64.8101
4776	63.9657
4760	66.1752
4744	64.4385
4728	64.1833
4712	66.1211
4696	63.4775
4680	64.1891
4664	64.7619
4648	66.0562
4632	65.4787
4616	65.3152
4600	65.0205
4584	65.0766
4568	65.5643
4552	65.8198
4536	65.4342
4520	65.8643
4504	66.0023
4488	60.6239
4472	50.594
4456	64.8662
4440	66.4424
4424	66.0172
4408	66.3541
4392	65.6109
4376	65.6914
4360	65.648
4344	65.8861
4328	65.5847
4312	65.6188
4296	65.1116
4280	65.5778
4264	65.2646
4248	64.9603
4232	64.6949
4216	64.9436
4200	64.6365
4184	65.0521
4168	65.1484
4152	64.6801
4136	64.9284
4120	65.1544
4104	65.0255
4088	65.2215
4072	65.0219
4056	65.112
4040	64.9994
4024	65.0616
4008	65.1747
3992	65.403
3976	65.3003
3960	65.4265
3944	65.3553
3928	65.4529
3912	65.3131
3896	65.5396
3880	65.3338
3864	65.3619
3848	65.2257
3832	65.3219
3816	65.2487
3800	65.4797
3784	65.263
3768	65.2914
3752	65.5207
3736	65.594
3720	65.0757
3704	65.3402
3688	65.2864
3672	65.441
3656	65.3657
3640	65.4167
3624	65.4506
3608	65.3773
3592	65.314
3576	65.3162
3560	65.4375
3544	65.2401
3528	65.4776
3512	65.2794
3496	65.2869
3480	65.2434
3464	65.4567
3448	65.3259
3432	65.2927
3416	65.4176
3400	65.2799
3384	65.247
3368	65.1087
3352	65.2735
3336	65.2166
3320	65.2212
3304	65.2071
3288	65.2316
3272	65.2061
3256	65.3675
3240	65.1586
3224	65.1098
3208	65.248
3192	65.1349
3176	65.1842
3160	65.208
3144	65.3012
3128	65.2293
3112	65.2463
3096	65.3814
3080	65.2322
3064	65.1712
3048	65.275
3032	65.0935
3016	65.3005
3000	65.2129
2984	65.1289
2968	65.1143
2952	65.0304
2936	65.0584
2920	65.2386
2904	65.2174
2888	65.2381
2872	65.1633
2856	65.2804
2840	65.191
2824	65.2518
2808	65.2015
2792	65.3594
2776	65.3015
2760	65.2649
2744	65.3063
2728	65.2794
2712	65.2354
2696	65.2988
2680	65.1417
2664	65.3191
2648	65.3559
2632	65.4155
2616	65.3796
2600	65.295
2584	65.3703
2568	65.4427
2552	65.2343
2536	65.317
2520	65.3221
2504	65.314
2488	65.2421
2472	65.2869
2456	65.4254
2440	65.3513
2424	65.3001
2408	65.1756
2392	65.3326
2376	65.3017
2360	65.3791
2344	65.2756
2328	65.3164
2312	65.3456
2296	65.3442
2280	65.4449
2264	65.2603
2248	65.241
2232	65.2377
2216	65.3799
2200	65.3254
2184	65.3441
2168	65.3038
2152	65.3814
2136	65.3762
2120	65.2763
2104	65.3222
2088	65.3962
2072	65.2905
2056	65.3172
2040	65.3357
2024	65.3174
2008	65.3032
1992	65.3001
1976	65.3268
1960	65.3627
1944	65.3761
1928	65.3203
1912	65.3178
1896	65.4109
1880	65.3297
1864	65.3727
1848	65.3785
1832	65.4687
1816	65.3452
1800	65.4826
1784	65.4798
1768	65.5527
1752	65.2777
1736	65.3154
1720	65.2556
1704	65.4148
1688	65.4085
1672	65.4796
1656	65.5724
1640	65.4047
1624	65.3474
1608	65.3344
1592	65.2776
1576	65.3431
1560	65.698
1544	65.583
1528	65.4287
1512	65.4201
1496	65.6053
1480	65.2919
1464	65.3473
1448	65.0769
1432	65.3928
1416	65.3342
1400	65.2837
1384	65.1868
1368	65.2071
1352	65.1774
1336	65.2674
1320	65.1764
1304	65.4156
1288	65.2242
1272	65.1181
1256	65.2866
1240	65.2391
1224	65.3501
1208	65.3513
1192	65.161
1176	65.1642
1160	65.2173
1144	65.103
1128	65.2799
1112	65.1187
1096	65.0491
1080	65.3074
1064	65.2093
1048	65.2042
1032	65.1796
1016	64.9436
1000	65.239
984	 65.3657
968	 65.2297
952	 65.2507
936	 65.3259
920	 65.3624
904	 65.3516
888	 65.2914
872	 65.2404
856	 65.3917
840	 65.4335
824	 65.312
808	 65.4782
792	 65.4746
776	 65.6363
760	 65.4309
744	 65.499
728	 65.3301
712	 65.4421
696	 65.4864
680	 65.4954
664	 65.3965
648	 65.5018
632	 65.4747
616	 65.991
600	 65.1191
584	 65.7215
568	 66.3073
552	 66.1815
536	 66.1543
520	 66.2319
504	 66.6932
488	 66.1163
472	 66.4495
456	 65.6513
440	 66.8534
424	 66.0308
408	 69.8848
392	 74.2665
376	 47.3681
370	 35.0248