Folder: Masteroppgave/Bakgrunnsmateriale/MATLAB/FTIR/ftir_data/subCa/Mapping_25 (part 2)

File: BZ12041010-4_e28.asc
PE IR       SPECTRUM    SPECTRUM    ASCII       PEDS        1.60
  -1
BZ2EBC~1.ASC
17/04/10
10:38:40.00
17/04/10
10:39:07.00
tln
$BZ12041010-4_e0028$<ebV0>[-23.0,28.0,5.5,0.0,22,1,0]
27.028
64

2002,4.07
MIRTGS : RIGHTBACK : INTERNAL 2
MIR : ON : INTERNAL 2
OPTKBR

0.200000
8
8.000000
FILLER
SINGLE
SPECTRUM
UNLOCKED 256

DOUBLE

COMBINED
1
0
0

0.002000
BACKG

1
0
TRUE
51149
0
LEFT NOT FITTED RIGHT NOT FITTED 0
NONE
NONE
15600
12
4.427000
51148
TRUE
1 0 8 72 0 0 0 0

15798

#HDR
-1
-1
#GR
µM
EGY
2.38419e-05
0.0
2.000000
0.002000
12515
8
2.462606
0.013208
#DATA
2.000000	 0.778555
2.084000	 0.879762
2.168000	 0.935828
2.252000	 1.019144
2.336000	 1.144166
2.420000	 1.247552
2.504000	 1.404083
2.588000	 1.458636
2.672000	 1.561084
2.756000	 1.583460
2.840000	 1.637852
2.924000	 1.593858
3.008000	 1.698175
3.092000	 1.792771
3.176000	 1.820684
3.260000	 1.940145
3.344000	 2.040348
3.428000	 1.847807
3.512000	 2.025029
3.596000	 2.225072
3.680000	 2.264163
3.764000	 2.230725
3.848000	 2.234944
3.932000	 2.300803
4.016000	 2.334696
4.100000	 2.295068
4.184000	 2.257725
4.268000	 2.270621
4.352000	 2.347885
4.436000	 2.386115
4.520000	 2.373639
4.604000	 2.344145
4.688000	 2.337871
4.772000	 2.343555
4.856000	 2.389141
4.940000	 2.448158
5.024000	 2.459170
5.108000	 2.435005
5.192000	 2.406439
5.276000	 2.376434
5.359999	 2.386090
5.444000	 2.409230
5.528000	 2.431739
5.612000	 2.431854
5.696000	 2.401248
5.780000	 2.326809
5.864000	 2.283791
5.948000	 2.240683
6.032000	 2.190692
6.116000	 2.140148
6.200000	 2.008022
6.284000	 2.019622
6.368000	 1.983249
6.452000	 1.959182
6.536000	 2.097348
6.620000	 2.083192
6.704000	 1.689294
6.788000	 1.974298
6.872000	 1.791074
6.956000	 1.863241
7.040000	 1.857806
7.124000	 1.728243
7.208000	 1.789118
7.292000	 1.814330
7.376000	 1.815290
7.460000	 1.815232
7.544000	 1.851545
7.628000	 1.854581
7.712000	 1.856873
7.796000	 1.850566
7.880000	 1.772783
7.964000	 1.763244
8.048000	 1.833986
8.132000	 1.826484
8.216000	 1.786937
8.300000	 1.745397
8.384000	 1.738339
8.468000	 1.712231
8.552000	 1.672591
8.635999	 1.622355
8.719999	 1.603500
8.804000	 1.575124
8.888000	 1.524739
8.972000	 1.470700
9.056000	 1.431575
9.140000	 1.422883
9.224000	 1.427957
9.308000	 1.429842
9.391999	 1.439925
9.475999	 1.358327
9.560000	 1.326794
9.644000	 1.384688
9.728000	 1.367318
9.812000	 1.360905
9.896000	 1.381271
9.980000	 1.396032
10.064	1.396890
10.148	1.384963
10.232	1.369780
10.316	1.346133
10.4	1.318576
10.484	1.291852
10.568	1.270002
10.652	1.255620
10.736	1.241305
10.82	1.225290
10.904	1.207836
10.988	1.177807
11.072	1.158932
11.156	1.147275
11.24	1.128544
11.324	1.078630
11.408	1.029659
11.492	1.045585
11.576	1.082563
11.66	1.093089
11.744	1.087791
11.828	1.078801
11.912	1.058118
11.996	0.992144
12.08	0.882099
12.164	0.851733
12.248	0.912828
12.332	0.945428
12.416	0.945952
12.5	0.945281
12.584	0.953267
12.668	0.966992
12.752	0.978151
12.836	0.980208
12.92	0.976533
13.004	0.972241
13.088	0.967491
13.172	0.962269
13.256	0.956757
13.34	0.950515
13.424	0.943094
13.508	0.934275
13.592	0.923883
13.676	0.911137
13.76	0.897368
13.844	0.885130
13.928	0.872690
14.012	0.860103
14.096	0.848298
14.18	0.835169
14.264	0.818151
14.348	0.796340
14.432	0.767098
14.516	0.738750
14.6	0.728572
14.684	0.732122
14.768	0.732792
14.852	0.727151
14.936	0.718827
15.02	0.710167
15.104	0.701446
15.188	0.692193
15.272	0.682943
15.356	0.673657
15.44	0.664059
15.524	0.654250
15.608	0.644831
15.692	0.636034
15.776	0.627633
15.86	0.619079
15.944	0.610130
16.028	0.600889
16.112	0.591692
16.196	0.581725
16.28	0.569010
16.364	0.552785
16.448	0.536332
16.532	0.525459
16.616	0.522483
16.7	0.523379
16.784	0.522593
16.868	0.518602
16.952	0.513483
17.036	0.509204
17.12	0.505943
17.204	0.503180
17.288	0.500776
17.372	0.498762
17.456	0.496656
17.54	0.493668
17.624	0.489456
17.708	0.484531
17.792	0.479874
17.876	0.476065
17.96	0.472679
18.044	0.468915
18.128	0.464309
18.212	0.459275
18.296	0.454340
18.38	0.449917
18.464	0.445872
18.548	0.441865
18.632	0.437364
18.716	0.432283
18.8	0.426480
18.884	0.420161
18.968	0.413648
19.052	0.407352
19.136	0.401602
19.22	0.396498
19.304	0.392036
19.388	0.387837
19.472	0.383649
19.556	0.379314
19.64	0.374727
19.724	0.369611
19.808	0.363710
19.892	0.357058
19.976	0.349959
20.06	0.342818
20.144	0.335599
20.228	0.328106
20.312	0.320394
20.396	0.312644
20.48	0.305150
20.564	0.298026
20.648	0.291156
20.732	0.284291
20.816	0.277376
20.9	0.270638
20.984	0.264375
21.068	0.258720
21.152	0.253560
21.236	0.248640
21.32	0.243638
21.404	0.238508
21.488	0.232982
21.572	0.226988
21.656	0.220337
21.74	0.212996
21.824	0.205260
21.908	0.197540
21.992	0.190262
22.076	0.183631
22.16	0.177734
22.244	0.172524
22.328	0.167878
22.412	0.163654
22.496	0.159689
22.58	0.155938
22.664	0.152184
22.748	0.148377
22.832	0.144338
22.916	0.139923
23	0.135177
23.084	0.130018
23.168	0.124645
23.252	0.119104
23.336	0.113556
23.42	0.108046
23.504	0.102569
23.588	0.097298
23.672	0.092312
23.756	0.087900
23.84	0.084193
23.924	0.081211
24.008	0.078739
24.092	0.076419
24.176	0.073841
24.26	0.070773
24.344	0.067043
24.428	0.062782
24.512	0.058171
24.596	0.053488
24.68	0.048964
24.764	0.044736
24.848	0.040828
24.932	0.037276
25.016	0.034081
25.1	0.031234
25.184	0.028788
25.268	0.026775
25.352	0.025257
25.436	0.024197
25.52	0.023490
25.604	0.023064
25.688	0.022758
25.772	0.022463
25.856	0.022162
25.94	0.021867
26.024	0.021536
26.108	0.021131
26.192	0.020739
26.276	0.020193
26.36	0.019432
26.444	0.018512
26.528	0.017464
26.612	0.016419
26.696	0.015483
26.78	0.014728
26.864	0.014128
26.948	0.013647
27.028	0.013208

File: BZ12041010-4_e28_cm-1.asc
PE IR       SPECTRUM    SPECTRUM    ASCII       PEDS        1.60
  -1
BZACB1~1.ASC
17/04/10
10:38:40.00
17/04/10
10:38:40.00
tln
$BZ12041010-4_e0028$<ebV0>[-23.0,28.0,5.5,0.0,22,1,0]
370
64

2002,4.07
MIRTGS : RIGHTBACK : INTERNAL 2
MIR : ON : INTERNAL 2
OPTKBR

0.200000
8
8.000000
FILLER
SINGLE
SPECTRUM
UNLOCKED 256

DOUBLE

COMBINED
1
0
0

1.000000
BACKG

1
0
TRUE
51149
0
LEFT NOT FITTED RIGHT NOT FITTED 0
NONE
NONE
15600
12
4.427000
51148
TRUE
1 0 8 72 0 0 0 0

15798

#HDR
-1
-1
#GR
CM-1
EGY
2.38419e-05
0.0
5000
-1.000000
4631
8
2.462601
0.013208
#DATA
5000	0.778555
4984	0.788116
4968	0.791931
4952	0.800657
4936	0.802397
4920	0.805830
4904	0.820374
4888	0.826096
4872	0.838923
4856	0.833201
4840	0.848460
4824	0.856733
4808	0.868868
4792	0.878143
4776	0.897622
4760	0.907182
4744	0.906777
4728	0.911855
4712	0.914692
4696	0.918197
4680	0.918197
4664	0.921940
4648	0.921893
4632	0.930380
4616	0.932455
4600	0.945425
4584	0.950074
4568	0.966024
4552	0.974059
4536	0.987267
4520	0.989389
4504	0.995469
4488	1.001381
4472	1.005768
4456	1.123738
4440	1.019525
4424	1.023483
4408	1.021814
4392	1.026010
4376	1.035976
4360	1.052904
4344	1.067185
4328	1.084661
4312	1.107978
4296	1.128125
4280	1.145219
4264	1.158905
4248	1.175475
4232	1.190328
4216	1.196980
4200	1.208114
4184	1.213216
4168	1.223587
4152	1.233077
4136	1.246380
4120	1.257133
4104	1.271820
4088	1.291370
4072	1.312422
4056	1.335716
4040	1.354622
4024	1.375770
4008	1.392745
3992	1.405286
3976	1.413655
3960	1.423239
3944	1.428127
3928	1.429891
3912	1.436543
3896	1.441836
3880	1.448082
3864	1.458621
3848	1.471281
3832	1.491236
3816	1.505875
3800	1.527214
3784	1.549935
3768	1.564455
3752	1.556539
3736	1.570773
3720	1.586675
3704	1.591372
3688	1.581764
3672	1.573014
3656	1.583957
3640	1.592278
3624	1.586937
3608	1.594638
3592	1.604819
3576	1.618266
3560	1.626801
3544	1.632666
3528	1.632881
3512	1.639556
3496	1.632881
3480	1.624679
3464	1.616096
3448	1.603960
3432	1.594281
3416	1.594686
3400	1.604461
3384	1.615810
3368	1.632213
3352	1.653909
3336	1.680469
3320	1.704621
3304	1.727247
3288	1.749348
3272	1.768183
3256	1.779890
3240	1.790976
3224	1.794838
3208	1.799988
3192	1.803135
3176	1.805591
3160	1.815366
3144	1.826405
3128	1.843285
3112	1.866769
3096	1.896190
3080	1.923823
3064	1.945924
3048	1.973867
3032	1.988768
3016	1.973581
3000	2.035546
2984	2.035355
2968	1.971220
2952	1.928758
2936	1.821780
2920	1.811671
2904	1.955032
2888	2.005290
2872	1.994681
2856	1.934599
2840	2.080368
2824	2.137851
2808	2.178740
2792	2.205610
2776	2.234482
2760	2.254748
2744	2.263021
2728	2.266502
2712	2.260875
2696	2.251267
2680	2.243375
2664	2.234268
2648	2.225661
2632	2.225446
2616	2.228975
2600	2.234148
2584	2.247333
2568	2.273654
2552	2.293777
2536	2.312636
2520	2.325177
2504	2.332568
2488	2.334141
2472	2.327084
2456	2.312445
2440	2.296113
2424	2.279877
2408	2.263951
2392	2.258563
2376	2.249145
2360	2.243375
2344	2.270388
2328	2.292919
2312	2.324771
2296	2.350878
2280	2.369880
2264	2.383041
2248	2.385473
2232	2.383565
2216	2.376699
2200	2.364706
2184	2.352738
2168	2.342104
2152	2.337861
2136	2.338123
2120	2.341437
2104	2.345633
2088	2.345275
2072	2.362895
2056	2.397274
2040	2.429103
2024	2.448368
2008	2.460050
1992	2.459907
1976	2.450537
1960	2.436304
1944	2.423906
1928	2.408957
1912	2.391886
1896	2.376651
1880	2.378249
1864	2.388644
1848	2.396583
1832	2.410197
1816	2.426910
1800	2.432417
1784	2.432560
1768	2.416801
1752	2.389717
1736	2.330493
1720	2.311253
1704	2.276539
1688	2.251052
1672	2.229666
1656	2.178955
1640	2.156186
1624	2.107000
1608	1.974534
1592	2.019405
1576	1.986789
1560	1.932477
1544	1.957583
1528	2.106356
1512	2.091169
1496	1.701688
1480	1.959657
1464	1.936316
1448	1.784420
1432	1.868820
1416	1.843762
1400	1.732730
1384	1.786351
1368	1.815891
1352	1.813578
1336	1.826524
1320	1.855182
1304	1.855349
1288	1.854705
1272	1.803851
1256	1.759290
1240	1.834535
1224	1.813435
1208	1.750063
1192	1.737451
1176	1.698303
1160	1.629662
1144	1.597881
1128	1.540017
1112	1.458764
1096	1.423335
1080	1.427197
1064	1.439070
1048	1.307010
1032	1.376438
1016	1.366376
1000	1.397466
984	 1.382541
968	 1.341366
952	 1.285719
936	 1.250672
920	 1.216578
904	 1.160526
888	 1.119184
872	 1.035022
856	 1.092529
840	 1.061105
824	 0.846362
808	 0.947237
792	 0.959849
776	 0.978255
760	 0.963163
744	 0.941443
728	 0.901150
712	 0.855422
696	 0.790143
680	 0.732946
664	 0.706028
648	 0.664973
632	 0.622916
616	 0.576448
600	 0.522971
584	 0.505828
568	 0.490474
552	 0.465011
536	 0.435948
520	 0.395894
504	 0.361156
488	 0.304126
472	 0.251531
456	 0.195574
440	 0.149321
424	 0.097489
408	 0.058293
392	 0.023555
376	 0.016617
370	 0.013208

File: BZ12041010-4_t01.asc
PE IR       SPECTRUM    SPECTRUM    ASCII       PEDS        1.60
  -1
BZ1204~4.ASC
17/04/10
08:56:20.00
17/04/10
08:56:47.00
tln
$BZ12041010-4_t0001$<tbV0>[5.2,-12.4,9.0,0.0,22,1,0]
27.028
64

2002,4.07
MIRTGS : RIGHTBACK : INTERNAL 2
MIR : ON : INTERNAL 2
OPTKBR

0.200000
8
8.000000
FILLER
RATIO
SPECTRUM
UNLOCKED 256

DOUBLE
64
COMBINED
1
0
0

0.002000
RATIO

1
0
TRUE
51149
0
LEFT NOT FITTED RIGHT NOT FITTED 0
NONE
NONE
15600
12
4.427000
51148
TRUE
1 0 8 72 0 0 0 0

15798

#HDR
-1
-1
#GR
µM
%T
2.38419e-05
0.0
2.000000
0.002000
12515
8
76.5367
59.3694
#DATA
2.000000	 64.8946
2.084000	 65.5175
2.168000	 64.9443
2.252000	 64.5502
2.336000	 64.885
2.420000	 65.156
2.504000	 65.1021
2.588000	 65.2222
2.672000	 65.4992
2.756000	 65.4724
2.840000	 65.252
2.924000	 65.1335
3.008000	 65.2602
3.092000	 65.2974
3.176000	 65.2271
3.260000	 65.1364
3.344000	 65.0906
3.428000	 65.1457
3.512000	 65.2843
3.596000	 65.2435
3.680000	 65.2638
3.764000	 65.29
3.848000	 65.2168
3.932000	 65.3314
4.016000	 65.4293
4.100000	 65.3712
4.184000	 65.2817
4.268000	 65.3254
4.352000	 65.3362
4.436000	 65.3128
4.520000	 65.3551
4.604000	 65.2413
4.688000	 65.2251
4.772000	 65.2724
4.856000	 65.2788
4.940000	 65.3862
5.024000	 65.2974
5.108000	 65.3412
5.192000	 65.366
5.276000	 65.3951
5.359999	 65.3147
5.444000	 65.3084
5.528000	 65.3971
5.612000	 65.3202
5.696000	 65.3797
5.780000	 65.1303
5.864000	 65.3363
5.948000	 65.4267
6.032000	 65.3356
6.116000	 65.2318
6.200000	 65.286
6.284000	 65.0934
6.368000	 65.1174
6.452000	 65.3516
6.536000	 65.2942
6.620000	 65.3729
6.704000	 65.3569
6.788000	 65.2997
6.872000	 65.2245
6.956000	 65.1431
7.040000	 65.259
7.124000	 65.3154
7.208000	 65.1749
7.292000	 65.2003
7.376000	 65.1662
7.460000	 65.2895
7.544000	 65.1854
7.628000	 65.164
7.712000	 65.2358
7.796000	 65.2521
7.880000	 65.1708
7.964000	 65.186
8.048000	 65.1623
8.132000	 65.1691
8.216000	 65.2026
8.300000	 65.2693
8.384000	 65.2741
8.468000	 65.0843
8.552000	 65.1372
8.635999	 65.1156
8.719999	 65.0574
8.804000	 65.0937
8.888000	 65.144
8.972000	 65.1654
9.056000	 64.9943
9.140000	 65.1351
9.224000	 65.1217
9.308000	 65.0889
9.391999	 65.1337
9.475999	 65.2258
9.560000	 65.1799
9.644000	 65.1595
9.728000	 65.1619
9.812000	 65.1518
9.896000	 65.1142
9.980000	 65.163
10.064	65.2404
10.148	65.1848
10.232	65.1419
10.316	65.1901
10.4	65.2549
10.484	65.1923
10.568	65.1918
10.652	65.2167
10.736	65.3683
10.82	65.1408
10.904	65.1254
10.988	65.3158
11.072	65.3254
11.156	65.2723
11.24	65.2827
11.324	65.4409
11.408	65.2554
11.492	65.3924
11.576	65.4984
11.66	65.5137
11.744	65.4348
11.828	65.3529
11.912	65.2464
11.996	65.2824
12.08	65.4351
12.164	65.3713
12.248	65.3371
12.332	65.4784
12.416	65.3939
12.5	65.2189
12.584	65.1249
12.668	65.2762
12.752	65.3808
12.836	65.4841
12.92	65.6098
13.004	65.6761
13.088	65.6012
13.172	65.5006
13.256	65.4895
13.34	65.4811
13.424	65.3224
13.508	65.3344
13.592	65.4862
13.676	65.3811
13.76	65.2393
13.844	65.2615
13.928	65.2433
14.012	65.179
14.096	65.1995
14.18	65.219
14.264	65.1383
14.348	65.124
14.432	65.1997
14.516	65.2488
14.6	65.3301
14.684	65.35
14.768	65.339
14.852	65.4227
14.936	65.439
15.02	65.3149
15.104	65.2478
15.188	65.3225
15.272	65.4159
15.356	65.4483
15.44	65.4452
15.524	65.4894
15.608	65.6166
15.692	65.6514
15.776	65.4628
15.86	65.2679
15.944	65.3325
16.028	65.5991
16.112	65.8218
16.196	65.8812
16.28	65.835
16.364	65.7433
16.448	65.6183
16.532	65.5103
16.616	65.503
16.7	65.6066
16.784	65.7384
16.868	65.8042
16.952	65.7483
17.036	65.5967
17.12	65.4646
17.204	65.4373
17.288	65.4934
17.372	65.5927
17.456	65.7374
17.54	65.891
17.624	65.9511
17.708	65.885
17.792	65.7945
17.876	65.792
17.96	65.8602
18.044	65.9204
18.128	65.9692
18.212	66.0376
18.296	66.0924
18.38	66.1002
18.464	66.0991
18.548	66.1348
18.632	66.1865
18.716	66.1846
18.8	66.0861
18.884	65.9372
18.968	65.8343
19.052	65.8221
19.136	65.8621
19.22	65.8815
19.304	65.8313
19.388	65.7322
19.472	65.6736
19.556	65.7235
19.64	65.8395
19.724	65.9042
19.808	65.8528
19.892	65.7391
19.976	65.6815
20.06	65.7553
20.144	65.9457
20.228	66.1776
20.312	66.3686
20.396	66.465
20.48	66.4651
20.564	66.4206
20.648	66.3959
20.732	66.4261
20.816	66.5039
20.9	66.6053
20.984	66.7193
21.068	66.831
21.152	66.8844
21.236	66.785
21.32	66.4581
21.404	65.9318
21.488	65.3531
21.572	64.9152
21.656	64.7649
21.74	64.9345
21.824	65.3314
21.908	65.7858
21.992	66.1266
22.076	66.2385
22.16	66.096
22.244	65.7715
22.328	65.3936
22.412	65.1076
22.496	65.0214
22.58	65.1557
22.664	65.4476
22.748	65.7708
22.832	65.9993
22.916	66.0543
23	65.9309
23.084	65.692
23.168	65.4509
23.252	65.3111
23.336	65.3296
23.42	65.4741
23.504	65.6369
23.588	65.6742
23.672	65.4816
23.756	65.0532
23.84	64.4808
23.924	63.9346
24.008	63.5831
24.092	63.5258
24.176	63.7616
24.26	64.2271
24.344	64.8222
24.428	65.4436
24.512	65.987
24.596	66.3628
24.68	66.5074
24.764	66.4039
24.848	66.1
24.932	65.6991
25.016	65.3306
25.1	65.1098
25.184	65.1508
25.268	65.5319
25.352	66.2645
25.436	67.3209
25.52	68.5933
25.604	69.8754
25.688	70.8762
25.772	71.2904
25.856	70.9027
25.94	69.6516
26.024	67.7021
26.108	65.4502
26.192	63.3375
26.276	61.7525
26.36	60.9948
26.444	61.1214
26.528	61.9482
26.612	63.1947
26.696	64.5216
26.78	65.5992
26.864	66.2213
26.948	66.2555
27.028	65.5787

File: BZ12041010-4_t01_cm-1.asc
PE IR       SPECTRUM    SPECTRUM    ASCII       PEDS        1.60
  -1
BZ1204~3.ASC
17/04/10
08:56:20.00
17/04/10
08:56:20.00
tln
$BZ12041010-4_t0001$<tbV0>[5.2,-12.4,9.0,0.0,22,1,0]
370
64

2002,4.07
MIRTGS : RIGHTBACK : INTERNAL 2
MIR : ON : INTERNAL 2
OPTKBR

0.200000
8
8.000000
FILLER
RATIO
SPECTRUM
UNLOCKED 256

DOUBLE
64
COMBINED
1
0
0

1.000000
RATIO

1
0
TRUE
51149
0
LEFT NOT FITTED RIGHT NOT FITTED 0
NONE
NONE
15600
12
4.427000
51148
TRUE
1 0 8 72 0 0 0 0

15798

#HDR
-1
-1
#GR
CM-1
%T
2.38419e-05
0.0
5000
-1.000000
4631
8
78.0667
58.9072
#DATA
5000	64.8946
4984	64.5728
4968	65.1153
4952	64.8967
4936	64.6597
4920	65.1053
4904	65.3178
4888	64.9276
4872	65.2085
4856	64.6488
4840	64.8066
4824	65.2128
4808	65.0652
4792	64.7339
4776	64.2054
4760	64.8782
4744	64.9485
4728	65.2157
4712	65.6704
4696	63.8806
4680	64.4343
4664	65.2193
4648	66.016
4632	65.39
4616	64.9716
4600	65.0649
4584	64.7788
4568	65.4124
4552	65.0297
4536	64.6659
4520	65.6211
4504	66.1508
4488	59.7198
4472	66.6416
4456	65.0722
4440	64.5293
4424	65.1412
4408	65.421
4392	65.0417
4376	64.9699
4360	65.193
4344	65.1119
4328	65.0818
4312	64.8062
4296	64.9411
4280	64.9028
4264	64.6875
4248	64.6159
4232	64.8301
4216	64.9218
4200	64.9872
4184	65.1499
4168	65.0467
4152	65.1851
4136	64.9541
4120	64.9914
4104	65.0837
4088	65.1566
4072	65.1369
4056	65.0438
4040	64.8093
4024	65.0091
4008	65.0922
3992	65.08
3976	65.1246
3960	65.0554
3944	65.1694
3928	65.1142
3912	65.1114
3896	65.3251
3880	65.2269
3864	65.2223
3848	65.1978
3832	65.1986
3816	65.3395
3800	65.2976
3784	65.2987
3768	65.1916
3752	65.3344
3736	65.4537
3720	65.2843
3704	65.3525
3688	65.2382
3672	65.3073
3656	65.3019
3640	65.3414
3624	65.3787
3608	65.354
3592	65.1683
3576	65.3484
3560	65.419
3544	65.2395
3528	65.2246
3512	65.2964
3496	65.3248
3480	64.9683
3464	65.4335
3448	65.2573
3432	65.2991
3416	65.2097
3400	65.2119
3384	65.2425
3368	65.2241
3352	65.205
3336	65.4685
3320	65.2355
3304	65.2108
3288	65.2111
3272	65.2002
3256	65.4159
3240	65.3224
3224	65.1093
3208	65.1463
3192	65.3745
3176	65.0147
3160	65.2623
3144	65.136
3128	65.025
3112	65.246
3096	65.1039
3080	65.1353
3064	65.1571
3048	65.17
3032	65.1995
3016	65.1968
3000	64.9867
2984	65.1963
2968	65.0602
2952	65.1456
2936	64.9764
2920	65.1292
2904	65.1914
2888	65.1845
2872	65.123
2856	65.1985
2840	65.2272
2824	65.1707
2808	65.2188
2792	65.2834
2776	65.2432
2760	65.2929
2744	65.3545
2728	65.2132
2712	65.2879
2696	65.2825
2680	65.1313
2664	65.3028
2648	65.2668
2632	65.3861
2616	65.4203
2600	65.2057
2584	65.2028
2568	65.1122
2552	65.2625
2536	65.3026
2520	65.1961
2504	65.242
2488	65.3851
2472	65.3302
2456	65.39
2440	65.3878
2424	65.342
2408	65.2377
2392	65.3131
2376	65.3858
2360	65.256
2344	65.3191
2328	65.2516
2312	65.3192
2296	65.3387
2280	65.3528
2264	65.2737
2248	65.3121
2232	65.4318
2216	65.3742
2200	65.319
2184	65.3267
2168	65.292
2152	65.3073
2136	65.1763
2120	65.2945
2104	65.2537
2088	65.3074
2072	65.4078
2056	65.2755
2040	65.2913
2024	65.3864
2008	65.3363
1992	65.3233
1976	65.4187
1960	65.3629
1944	65.3685
1928	65.3561
1912	65.2714
1896	65.3886
1880	65.357
1864	65.3124
1848	65.3518
1832	65.3727
1816	65.242
1800	65.4474
1784	65.3486
1768	65.3013
1752	65.3532
1736	65.2
1720	65.2183
1704	65.34
1688	65.3151
1672	65.4436
1656	65.3175
1640	65.2477
1624	65.281
1608	65.1711
1592	65.0954
1576	65.2502
1560	65.3129
1544	65.2878
1528	65.2881
1512	65.3553
1496	65.3637
1480	65.2393
1464	65.3281
1448	65.155
1432	65.1958
1416	65.2148
1400	65.2636
1384	65.1315
1368	65.1932
1352	65.1945
1336	65.3183
1320	65.2419
1304	65.1493
1288	65.2087
1272	65.2254
1256	65.1914
1240	65.1623
1224	65.1603
1208	65.2786
1192	65.2664
1176	65.0977
1160	65.1372
1144	65.0822
1128	65.1293
1112	65.1084
1096	65.1192
1080	65.1562
1064	65.1366
1048	65.1849
1032	65.1501
1016	65.0968
1000	65.1882
984	 65.1902
968	 65.2269
952	 65.1602
936	 65.2929
920	 65.1028
904	 65.3303
888	 65.3364
872	 65.3461
856	 65.4889
840	 65.253
824	 65.4243
808	 65.4552
792	 65.1878
776	 65.5628
760	 65.5121
744	 65.2981
728	 65.2611
712	 65.1764
696	 65.1409
680	 65.3415
664	 65.2634
648	 65.445
632	 65.3324
616	 65.8681
600	 65.5564
584	 65.4614
568	 65.95
552	 65.9611
536	 66.1948
520	 65.8794
504	 65.8087
488	 66.4601
472	 66.8681
456	 65.8915
440	 65.6956
424	 65.6767
408	 65.9747
392	 68.4409
376	 62.9398
370	 65.5787

File: BZ12041010-4_t02.asc
PE IR       SPECTRUM    SPECTRUM    ASCII       PEDS        1.60
  -1
BZ26B6~1.ASC
17/04/10
09:00:58.00
17/04/10
09:01:24.00
tln
$BZ12041010-4_t0002$<tbV0>[2.6,-12.4,9.0,0.0,22,1,0]
27.028
64

2002,4.07
MIRTGS : RIGHTBACK : INTERNAL 2
MIR : ON : INTERNAL 2
OPTKBR

0.200000
8
8.000000
FILLER
RATIO
SPECTRUM
UNLOCKED 256

DOUBLE
64
COMBINED
1
0
0

0.002000
RATIO

1
0
TRUE
51149
0
LEFT NOT FITTED RIGHT NOT FITTED 0
NONE
NONE
15600
12
4.427000
51148
TRUE
1 0 8 72 0 0 0 0

15798

#HDR
-1
-1
#GR
µM
%T
2.38419e-05
0.0
2.000000
0.002000
12515
8
84.7473
53.9797
#DATA
2.000000	 64.9079
2.084000	 64.4855
2.168000	 64.572
2.252000	 64.6371
2.336000	 65.0728
2.420000	 65.1082
2.504000	 64.939
2.588000	 64.9865
2.672000	 65.2478
2.756000	 65.45
2.840000	 65.0969
2.924000	 65.1266
3.008000	 65.1165
3.092000	 65.1317
3.176000	 65.1489
3.260000	 65.0407
3.344000	 65.0043
3.428000	 65.1933
3.512000	 65.1527
3.596000	 65.1885
3.680000	 65.1475
3.764000	 65.1768
3.848000	 65.143
3.932000	 65.1525
4.016000	 65.213
4.100000	 65.2559
4.184000	 65.2249
4.268000	 65.2147
4.352000	 65.1604
4.436000	 65.2675
4.520000	 65.3085
4.604000	 65.2607
4.688000	 65.1689
4.772000	 65.1755
4.856000	 65.1497
4.940000	 65.1888
5.024000	 65.1728
5.108000	 65.1917
5.192000	 65.2256
5.276000	 65.2892
5.359999	 65.2057
5.444000	 65.2586
5.528000	 65.2751
5.612000	 65.2452
5.696000	 65.2108
5.780000	 65.0991
5.864000	 65.1713
5.948000	 65.2921
6.032000	 65.3364
6.116000	 65.1689
6.200000	 65.2094
6.284000	 65.0762
6.368000	 65.1178
6.452000	 65.285
6.536000	 65.2052
6.620000	 65.3394
6.704000	 65.2697
6.788000	 65.3597
6.872000	 65.3868
6.956000	 65.1776
7.040000	 65.3279
7.124000	 65.1849
7.208000	 65.1252
7.292000	 65.0825
7.376000	 65.0835
7.460000	 65.0553
7.544000	 65.0834
7.628000	 65.1077
7.712000	 65.0004
7.796000	 65.0322
7.880000	 65.0271
7.964000	 65.0835
8.048000	 65.0502
8.132000	 65.0326
8.216000	 65.2031
8.300000	 65.2382
8.384000	 65.0739
8.468000	 65.0143
8.552000	 65.1447
8.635999	 65.1987
8.719999	 65.092
8.804000	 64.9794
8.888000	 65.1903
8.972000	 65.0362
9.056000	 65.0383
9.140000	 65.0193
9.224000	 65.1675
9.308000	 65.1341
9.391999	 65.0099
9.475999	 65.1104
9.560000	 64.8648
9.644000	 64.9309
9.728000	 64.9676
9.812000	 65.1709
9.896000	 65.151
9.980000	 65.1302
10.064	65.1667
10.148	65.0917
10.232	64.9275
10.316	65.2479
10.4	65.2506
10.484	65.2613
10.568	65.2511
10.652	65.33
10.736	65.516
10.82	65.2873
10.904	65.3248
10.988	65.1844
11.072	65.1284
11.156	65.1466
11.24	65.2841
11.324	65.1539
11.408	65.177
11.492	65.4629
11.576	65.5116
11.66	65.4084
11.744	65.289
11.828	65.2168
11.912	65.1989
11.996	65.1894
12.08	65.1613
12.164	65.5789
12.248	65.4451
12.332	65.2236
12.416	65.179
12.5	65.2569
12.584	65.3362
12.668	65.3681
12.752	65.4009
12.836	65.5742
12.92	65.6876
13.004	65.4788
13.088	65.3028
13.172	65.4071
13.256	65.4165
13.34	65.2641
13.424	65.2967
13.508	65.3721
13.592	65.2164
13.676	65.1247
13.76	65.1805
13.844	65.2714
13.928	65.3213
14.012	65.3319
14.096	65.3719
14.18	65.3768
14.264	65.2708
14.348	65.165
14.432	65.018
14.516	64.8695
14.6	64.8937
14.684	65.1054
14.768	65.4102
14.852	65.5831
14.936	65.5387
15.02	65.5269
15.104	65.7073
15.188	65.7836
15.272	65.6422
15.356	65.5539
15.44	65.5196
15.524	65.4503
15.608	65.4931
15.692	65.628
15.776	65.5706
15.86	65.3026
15.944	65.186
16.028	65.3704
16.112	65.6282
16.196	65.7841
16.28	65.8349
16.364	65.7836
16.448	65.6123
16.532	65.3576
16.616	65.149
16.7	65.1493
16.784	65.3827
16.868	65.6525
16.952	65.7121
17.036	65.5463
17.12	65.3686
17.204	65.3355
17.288	65.4455
17.372	65.6562
17.456	65.9148
17.54	66.1245
17.624	66.2145
17.708	66.2036
17.792	66.144
17.876	66.0756
17.96	66.0412
18.044	66.0788
18.128	66.1885
18.212	66.3388
18.296	66.4959
18.38	66.6114
18.464	66.6036
18.548	66.4269
18.632	66.165
18.716	65.9744
18.8	65.9207
18.884	65.9343
18.968	65.9302
19.052	65.9108
19.136	65.9289
19.22	65.9872
19.304	66.0148
19.388	65.9674
19.472	65.912
19.556	65.9481
19.64	66.0706
19.724	66.1685
19.808	66.1546
19.892	66.06
19.976	66.002
20.06	66.0707
20.144	66.2479
20.228	66.4218
20.312	66.4831
20.396	66.4191
20.48	66.3319
20.564	66.3532
20.648	66.5179
20.732	66.7214
20.816	66.8097
20.9	66.7142
20.984	66.5034
21.068	66.3101
21.152	66.209
21.236	66.1664
21.32	66.0827
21.404	65.896
21.488	65.6361
21.572	65.4013
21.656	65.288
21.74	65.3282
21.824	65.4763
21.908	65.6425
21.992	65.7443
22.076	65.7436
22.16	65.6652
22.244	65.5939
22.328	65.6193
22.412	65.7941
22.496	66.1032
22.58	66.4966
22.664	66.933
22.748	67.3888
22.832	67.8342
22.916	68.2118
23	68.4265
23.084	68.4057
23.168	68.1443
23.252	67.7191
23.336	67.2627
23.42	66.8912
23.504	66.6517
23.588	66.5022
23.672	66.3576
23.756	66.1396
23.84	65.7911
23.924	65.3244
24.008	64.8043
24.092	64.3208
24.176	63.9847
24.26	63.9206
24.344	64.2345
24.428	64.9506
24.512	65.9978
24.596	67.1895
24.68	68.2743
24.764	69.0267
24.848	69.3095
24.932	69.0878
25.016	68.4478
25.1	67.5381
25.184	66.6645
25.268	66.2253
25.352	66.5823
25.436	68.0315
25.52	70.632
25.604	74.1363
25.688	77.9963
25.772	81.4798
25.856	83.8872
25.94	84.7473
26.024	83.9135
26.108	81.6003
26.192	78.2602
26.276	74.4301
26.36	70.6225
26.444	67.2474
26.528	64.5375
26.612	62.609
26.696	61.3266
26.78	60.3214
26.864	59.0686
26.948	57.0312
27.028	53.9797