Folder: Masteroppgave/Bakgrunnsmateriale/MATLAB/FTIR/ftir_data/subCa/Mapping_25

File: BZ12041010-4_e26.asc
PE IR       SPECTRUM    SPECTRUM    ASCII       PEDS        1.60
  -1
BZ1204~2.ASC
17/04/10
08:50:16.00
17/04/10
08:50:43.00
tln
$BZ12041010-4_e0026$<ebV0>[-23.0,28.0,5.5,0.0,22,1,0]
27.028
64

2002,4.07
MIRTGS : RIGHTBACK : INTERNAL 2
MIR : ON : INTERNAL 2
OPTKBR

0.200000
8
8.000000
FILLER
SINGLE
SPECTRUM
UNLOCKED 256

DOUBLE

COMBINED
1
0
0

0.002000
BACKG

1
0
TRUE
51149
0
LEFT NOT FITTED RIGHT NOT FITTED 0
NONE
NONE
15600
12
4.427000
51148
TRUE
1 0 8 72 0 0 0 0

15798

#HDR
-1
-1
#GR
µM
EGY
2.38419e-05
0.0
2.000000
0.002000
12515
8
2.464744
0.007033
#DATA
2.000000	 0.778388
2.084000	 0.874739
2.168000	 0.937373
2.252000	 1.018410
2.336000	 1.148362
2.420000	 1.245346
2.504000	 1.404742
2.588000	 1.456856
2.672000	 1.551757
2.756000	 1.577335
2.840000	 1.636943
2.924000	 1.595103
3.008000	 1.698439
3.092000	 1.793164
3.176000	 1.822180
3.260000	 1.946558
3.344000	 2.044737
3.428000	 1.846544
3.512000	 2.023484
3.596000	 2.229003
3.680000	 2.265346
3.764000	 2.228768
3.848000	 2.236338
3.932000	 2.306011
4.016000	 2.334593
4.100000	 2.296572
4.184000	 2.258224
4.268000	 2.271888
4.352000	 2.349328
4.436000	 2.386957
4.520000	 2.374545
4.604000	 2.346100
4.688000	 2.341948
4.772000	 2.344562
4.856000	 2.390519
4.940000	 2.447986
5.024000	 2.462291
5.108000	 2.436511
5.192000	 2.406967
5.276000	 2.376402
5.359999	 2.384568
5.444000	 2.410765
5.528000	 2.433040
5.612000	 2.430910
5.696000	 2.396744
5.780000	 2.321092
5.864000	 2.277175
5.948000	 2.230006
6.032000	 2.183835
6.116000	 2.135186
6.200000	 2.005615
6.284000	 2.022515
6.368000	 1.977232
6.452000	 1.953443
6.536000	 2.093317
6.620000	 2.073241
6.704000	 1.686619
6.788000	 1.969526
6.872000	 1.786007
6.956000	 1.861072
7.040000	 1.852878
7.124000	 1.726591
7.208000	 1.787764
7.292000	 1.814793
7.376000	 1.817639
7.460000	 1.816118
7.544000	 1.851692
7.628000	 1.857037
7.712000	 1.857097
7.796000	 1.851796
7.880000	 1.775698
7.964000	 1.762052
8.048000	 1.834361
8.132000	 1.826580
8.216000	 1.786202
8.300000	 1.742988
8.384000	 1.742288
8.468000	 1.715548
8.552000	 1.672926
8.635999	 1.621489
8.719999	 1.604078
8.804000	 1.576326
8.888000	 1.524978
8.972000	 1.470082
9.056000	 1.435898
9.140000	 1.426494
9.224000	 1.428282
9.308000	 1.429518
9.391999	 1.438944
9.475999	 1.358401
9.560000	 1.326953
9.644000	 1.388027
9.728000	 1.370018
9.812000	 1.362091
9.896000	 1.382647
9.980000	 1.398654
10.064	1.399481
10.148	1.387234
10.232	1.372273
10.316	1.349389
10.4	1.322000
10.484	1.294042
10.568	1.272143
10.652	1.257967
10.736	1.239115
10.82	1.225133
10.904	1.208221
10.988	1.179623
11.072	1.159591
11.156	1.150286
11.24	1.130266
11.324	1.077923
11.408	1.032069
11.492	1.046384
11.576	1.081282
11.66	1.091989
11.744	1.086857
11.828	1.078206
11.912	1.058037
11.996	0.992696
12.08	0.882143
12.164	0.852016
12.248	0.913923
12.332	0.945384
12.416	0.947229
12.5	0.945925
12.584	0.953342
12.668	0.967190
12.752	0.976988
12.836	0.977026
12.92	0.973530
13.004	0.970145
13.088	0.966924
13.172	0.962793
13.256	0.958262
13.34	0.953006
13.424	0.945425
13.508	0.935921
13.592	0.924485
13.676	0.912413
13.76	0.900090
13.844	0.887437
13.928	0.874789
14.012	0.861928
14.096	0.848383
14.18	0.834535
14.264	0.819454
14.348	0.798602
14.432	0.768661
14.516	0.740312
14.6	0.730432
14.684	0.733673
14.768	0.733591
14.852	0.726836
14.936	0.718029
15.02	0.710008
15.104	0.701987
15.188	0.692979
15.272	0.683359
15.356	0.673244
15.44	0.663744
15.524	0.655236
15.608	0.646443
15.692	0.637034
15.776	0.628518
15.86	0.621428
15.944	0.614126
16.028	0.604788
16.112	0.593613
16.196	0.581389
16.28	0.567360
16.364	0.551187
16.448	0.536059
16.532	0.526990
16.616	0.524616
16.7	0.524579
16.784	0.522595
16.868	0.518503
16.952	0.514160
17.036	0.510780
17.12	0.508187
17.204	0.505933
17.288	0.503661
17.372	0.500830
17.456	0.496951
17.54	0.492624
17.624	0.488678
17.708	0.485181
17.792	0.481673
17.876	0.477788
17.96	0.473319
18.044	0.468575
18.128	0.463865
18.212	0.459372
18.296	0.454996
18.38	0.450662
18.464	0.446122
18.548	0.441394
18.632	0.436730
18.716	0.432123
18.8	0.427403
18.884	0.422175
18.968	0.416396
19.052	0.410440
19.136	0.404797
19.22	0.399572
19.304	0.394524
19.388	0.389570
19.472	0.384488
19.556	0.379145
19.64	0.373617
19.724	0.368013
19.808	0.362265
19.892	0.356267
19.976	0.349716
20.06	0.342486
20.144	0.334686
20.228	0.326725
20.312	0.318938
20.396	0.311470
20.48	0.304338
20.564	0.297281
20.648	0.290165
20.732	0.283189
20.816	0.276577
20.9	0.270507
20.984	0.264920
21.068	0.259607
21.152	0.254392
21.236	0.249149
21.32	0.243907
21.404	0.238541
21.488	0.232948
21.572	0.226973
21.656	0.220415
21.74	0.213404
21.824	0.205959
21.908	0.198541
21.992	0.191492
22.076	0.185161
22.16	0.179723
22.244	0.175055
22.328	0.170789
22.412	0.166678
22.496	0.162357
22.58	0.157741
22.664	0.152831
22.748	0.147819
22.832	0.142779
22.916	0.137842
23	0.133077
23.084	0.128344
23.168	0.123576
23.252	0.118694
23.336	0.113676
23.42	0.108551
23.504	0.103497
23.588	0.098650
23.672	0.094077
23.756	0.089830
23.84	0.085807
23.924	0.081966
24.008	0.078189
24.092	0.074418
24.176	0.070599
24.26	0.066712
24.344	0.062841
24.428	0.059020
24.512	0.055437
24.596	0.052137
24.68	0.049154
24.764	0.046575
24.848	0.044162
24.932	0.041921
25.016	0.039667
25.1	0.037345
25.184	0.034928
25.268	0.032473
25.352	0.030053
25.436	0.027779
25.52	0.025662
25.604	0.023822
25.688	0.022159
25.772	0.020690
25.856	0.019430
25.94	0.018216
26.024	0.017050
26.108	0.015901
26.192	0.014734
26.276	0.013588
26.36	0.012474
26.444	0.011430
26.528	0.010508
26.612	0.009672
26.696	0.008980
26.78	0.008362
26.864	0.007843
26.948	0.007397
27.028	0.007033

File: BZ12041010-4_e26_cm-1.asc
PE IR       SPECTRUM    SPECTRUM    ASCII       PEDS        1.60
  -1
BZ1204~1.ASC
17/04/10
08:50:16.00
17/04/10
08:50:16.00
tln
$BZ12041010-4_e0026$<ebV0>[-23.0,28.0,5.5,0.0,22,1,0]
370
64

2002,4.07
MIRTGS : RIGHTBACK : INTERNAL 2
MIR : ON : INTERNAL 2
OPTKBR

0.200000
8
8.000000
FILLER
SINGLE
SPECTRUM
UNLOCKED 256

DOUBLE

COMBINED
1
0
0

1.000000
BACKG

1
0
TRUE
51149
0
LEFT NOT FITTED RIGHT NOT FITTED 0
NONE
NONE
15600
12
4.427000
51148
TRUE
1 0 8 72 0 0 0 0

15798

#HDR
-1
-1
#GR
CM-1
EGY
2.38419e-05
0.0
5000
-1.000000
4631
8
2.464747
0.007033
#DATA
5000	0.778388
4984	0.790381
4968	0.794339
4952	0.796127
4936	0.806093
4920	0.811743
4904	0.817322
4888	0.823760
4872	0.831723
4856	0.843095
4840	0.852847
4824	0.858211
4808	0.872611
4792	0.882554
4776	0.894618
4760	0.896549
4744	0.910305
4728	0.917077
4712	0.900626
4696	0.934910
4680	0.927495
4664	0.921392
4648	0.910663
4632	0.925898
4616	0.936698
4600	0.947213
4584	0.956034
4568	0.964140
4552	0.971698
4536	0.986218
4520	0.994563
4504	0.993514
4488	1.098346
4472	1.016688
4456	1.017189
4440	1.018667
4424	1.021862
4408	1.023054
4392	1.033496
4376	1.042413
4360	1.057291
4344	1.071357
4328	1.089835
4312	1.111125
4296	1.129031
4280	1.148796
4264	1.166844
4248	1.176047
4232	1.190972
4216	1.198959
4200	1.207041
4184	1.214647
4168	1.221799
4152	1.230764
4136	1.242589
4120	1.255488
4104	1.270747
4088	1.292133
4072	1.311469
4056	1.334095
4040	1.357316
4024	1.378560
4008	1.392102
3992	1.405382
3976	1.414251
3960	1.423478
3944	1.426553
3928	1.429915
3912	1.438856
3896	1.436972
3880	1.446199
3864	1.456832
3848	1.467967
3832	1.488566
3816	1.501989
3800	1.519966
3784	1.549768
3768	1.562738
3752	1.548242
3736	1.560902
3720	1.583576
3704	1.585268
3688	1.576447
3672	1.565670
3656	1.579713
3640	1.589465
3624	1.584815
3608	1.592254
3592	1.604127
3576	1.616501
3560	1.622080
3544	1.634263
3528	1.632857
3512	1.637721
3496	1.632094
3480	1.625204
3464	1.614093
3448	1.603317
3432	1.594495
3416	1.597046
3400	1.606965
3384	1.617503
3368	1.631832
3352	1.657438
3336	1.680803
3320	1.704740
3304	1.729512
3288	1.749610
3272	1.768827
3256	1.779484
3240	1.791930
3224	1.799511
3208	1.800036
3192	1.801800
3176	1.810526
3160	1.815104
3144	1.826095
3128	1.846194
3112	1.865768
3096	1.895785
3080	1.929426
3064	1.951217
3048	1.975870
3032	1.990437
3016	1.977610
3000	2.039623
2984	2.038431
2968	1.970076
2952	1.931095
2936	1.825809
2920	1.811599
2904	1.955652
2888	2.008509
2872	1.995682
2856	1.937484
2840	2.082133
2824	2.141952
2808	2.179336
2792	2.207636
2776	2.238321
2760	2.256655
2744	2.263593
2728	2.268624
2712	2.263212
2696	2.253532
2680	2.249264
2664	2.233862
2648	2.227449
2632	2.226614
2616	2.228617
2600	2.235889
2584	2.250576
2568	2.275753
2552	2.296495
2536	2.313637
2520	2.329778
2504	2.335071
2488	2.334761
2472	2.327704
2456	2.312850
2440	2.297806
2424	2.279734
2408	2.271175
2392	2.259016
2376	2.248954
2360	2.243256
2344	2.271771
2328	2.292275
2312	2.325057
2296	2.351975
2280	2.369594
2264	2.385640
2248	2.389264
2232	2.387261
2216	2.376222
2200	2.368164
2184	2.353930
2168	2.343869
2152	2.339196
2136	2.341866
2120	2.343225
2104	2.346611
2088	2.345895
2072	2.363634
2056	2.398085
2040	2.430796
2024	2.448153
2008	2.462077
1992	2.463030
1976	2.451539
1960	2.438282
1944	2.424311
1928	2.409791
1912	2.393412
1896	2.377057
1880	2.380657
1864	2.386903
1848	2.395701
1832	2.410387
1816	2.429914
1800	2.431893
1784	2.430629
1768	2.410411
1752	2.384376
1736	2.319264
1720	2.304077
1704	2.267980
1688	2.243828
1672	2.220797
1656	2.168202
1640	2.150726
1624	2.105093
1608	1.976203
1592	2.022051
1576	1.979827
1560	1.915979
1544	1.947546
1528	2.101516
1512	2.082681
1496	1.698136
1480	1.959848
1464	1.932358
1448	1.785254
1432	1.867437
1416	1.842069
1400	1.731204
1384	1.786684
1368	1.817035
1352	1.816225
1336	1.826882
1320	1.854467
1304	1.856017
1288	1.855421
1272	1.806759
1256	1.758098
1240	1.835465
1224	1.813960
1208	1.747250
1192	1.741337
1176	1.699662
1160	1.628494
1144	1.598978
1128	1.539683
1112	1.457786
1096	1.427125
1080	1.426506
1064	1.437973
1048	1.306629
1032	1.380324
1016	1.368546
1000	1.400208
984	 1.384830
968	 1.344776
952	 1.288151
936	 1.251101
920	 1.216650
904	 1.161193
888	 1.119899
872	 1.036715
856	 1.091480
840	 1.060914
824	 0.846242
808	 0.947809
792	 0.960111
776	 0.974965
760	 0.963568
744	 0.943684
728	 0.903606
712	 0.856685
696	 0.792241
680	 0.734376
664	 0.706291
648	 0.664591
632	 0.624465
616	 0.575399
600	 0.524663
584	 0.508093
568	 0.489521
552	 0.464534
536	 0.435376
520	 0.398921
504	 0.359940
488	 0.303339
472	 0.252246
456	 0.196647
440	 0.149059
424	 0.098824
408	 0.055527
392	 0.025892
376	 0.009822
370	 0.007033

File: BZ12041010-4_e27.asc
PE IR       SPECTRUM    SPECTRUM    ASCII       PEDS        1.60
  -1
BZ2EB8~1.ASC
17/04/10
09:44:36.00
17/04/10
09:45:02.00
tln
$BZ12041010-4_e0027$<ebV0>[-23.0,28.0,5.5,0.0,22,1,0]
27.028
64

2002,4.07
MIRTGS : RIGHTBACK : INTERNAL 2
MIR : ON : INTERNAL 2
OPTKBR

0.200000
8
8.000000
FILLER
SINGLE
SPECTRUM
UNLOCKED 256

DOUBLE

COMBINED
1
0
0

0.002000
BACKG

1
0
TRUE
51149
0
LEFT NOT FITTED RIGHT NOT FITTED 0
NONE
NONE
15600
12
4.427000
51148
TRUE
1 0 8 72 0 0 0 0

15798

#HDR
-1
-1
#GR
µM
EGY
2.38419e-05
0.0
2.000000
0.002000
12515
8
2.461099
0.010108
#DATA
2.000000	 0.777316
2.084000	 0.878508
2.168000	 0.945334
2.252000	 1.051592
2.336000	 1.149619
2.420000	 1.241370
2.504000	 1.406823
2.588000	 1.458018
2.672000	 1.558506
2.756000	 1.580937
2.840000	 1.636204
2.924000	 1.597893
3.008000	 1.696677
3.092000	 1.792492
3.176000	 1.822424
3.260000	 1.942322
3.344000	 2.038538
3.428000	 1.845990
3.512000	 2.021994
3.596000	 2.224274
3.680000	 2.261116
3.764000	 2.229241
3.848000	 2.234937
3.932000	 2.304112
4.016000	 2.331933
4.100000	 2.292185
4.184000	 2.254759
4.268000	 2.270452
4.352000	 2.348311
4.436000	 2.389020
4.520000	 2.376453
4.604000	 2.344364
4.688000	 2.341461
4.772000	 2.345601
4.856000	 2.388940
4.940000	 2.448568
5.024000	 2.458630
5.108000	 2.432219
5.192000	 2.404766
5.276000	 2.375653
5.359999	 2.383923
5.444000	 2.408376
5.528000	 2.434270
5.612000	 2.433287
5.696000	 2.400467
5.780000	 2.324907
5.864000	 2.282010
5.948000	 2.240581
6.032000	 2.191387
6.116000	 2.139252
6.200000	 2.007180
6.284000	 2.016842
6.368000	 1.980795
6.452000	 1.957181
6.536000	 2.098349
6.620000	 2.080829
6.704000	 1.688150
6.788000	 1.973967
6.872000	 1.789858
6.956000	 1.862090
7.040000	 1.857315
7.124000	 1.726868
7.208000	 1.786748
7.292000	 1.813618
7.376000	 1.817384
7.460000	 1.816187
7.544000	 1.848839
7.628000	 1.856559
7.712000	 1.855859
7.796000	 1.850534
7.880000	 1.773913
7.964000	 1.761459
8.048000	 1.834369
8.132000	 1.824489
8.216000	 1.785712
8.300000	 1.743943
8.384000	 1.742450
8.468000	 1.712510
8.552000	 1.671750
8.635999	 1.620476
8.719999	 1.601454
8.804000	 1.573423
8.888000	 1.523750
8.972000	 1.470315
9.056000	 1.431458
9.140000	 1.422957
9.224000	 1.428058
9.308000	 1.431223
9.391999	 1.434691
9.475999	 1.356885
9.560000	 1.324569
9.644000	 1.383734
9.728000	 1.369671
9.812000	 1.360349
9.896000	 1.378518
9.980000	 1.397151
10.064	1.397777
10.148	1.385598
10.232	1.368832
10.316	1.347355
10.4	1.320463
10.484	1.292314
10.568	1.270050
10.652	1.257758
10.736	1.243721
10.82	1.225295
10.904	1.205141
10.988	1.178104
11.072	1.159948
11.156	1.149716
11.24	1.129863
11.324	1.079032
11.408	1.031265
11.492	1.046963
11.576	1.083811
11.66	1.094635
11.744	1.088319
11.828	1.077360
11.912	1.057205
11.996	0.991594
12.08	0.879896
12.164	0.850495
12.248	0.913694
12.332	0.945404
12.416	0.945390
12.5	0.944709
12.584	0.954423
12.668	0.967959
12.752	0.977170
12.836	0.978707
12.92	0.974887
13.004	0.969761
13.088	0.965446
13.172	0.962403
13.256	0.957885
13.34	0.950449
13.424	0.942283
13.508	0.933905
13.592	0.923689
13.676	0.911065
13.76	0.897879
13.844	0.884378
13.928	0.871383
14.012	0.860263
14.096	0.848387
14.18	0.834441
14.264	0.818135
14.348	0.796961
14.432	0.767700
14.516	0.739816
14.6	0.729853
14.684	0.732602
14.768	0.732593
14.852	0.727199
14.936	0.719639
15.02	0.711253
15.104	0.702080
15.188	0.692265
15.272	0.682917
15.356	0.674391
15.44	0.665635
15.524	0.656219
15.608	0.646738
15.692	0.637293
15.776	0.628043
15.86	0.619439
15.944	0.611177
16.028	0.602464
16.112	0.592785
16.196	0.581577
16.28	0.568238
16.364	0.552566
16.448	0.536933
16.532	0.526120
16.616	0.522754
16.7	0.523560
16.784	0.523340
16.868	0.520117
16.952	0.515598
17.036	0.511852
17.12	0.509387
17.204	0.507489
17.288	0.505392
17.372	0.502895
17.456	0.500213
17.54	0.497385
17.624	0.494057
17.708	0.489787
17.792	0.484755
17.876	0.479625
17.96	0.474763
18.044	0.470053
18.128	0.465219
18.212	0.460340
18.296	0.455731
18.38	0.451555
18.464	0.447779
18.548	0.443910
18.632	0.439392
18.716	0.434075
18.8	0.428230
18.884	0.422597
18.968	0.417273
19.052	0.412193
19.136	0.406883
19.22	0.401222
19.304	0.395275
19.388	0.389378
19.472	0.383814
19.556	0.378405
19.64	0.372822
19.724	0.367012
19.808	0.361227
19.892	0.355670
19.976	0.350146
20.06	0.344093
20.144	0.337379
20.228	0.329919
20.312	0.322049
20.396	0.314303
20.48	0.306935
20.564	0.299979
20.648	0.293287
20.732	0.286703
20.816	0.280099
20.9	0.273523
20.984	0.267124
21.068	0.261038
21.152	0.255422
21.236	0.250254
21.32	0.245214
21.404	0.239930
21.488	0.234198
21.572	0.227805
21.656	0.220898
21.74	0.213641
21.824	0.206132
21.908	0.198607
21.992	0.191147
22.076	0.183932
22.16	0.177209
22.244	0.171371
22.328	0.166637
22.412	0.163010
22.496	0.160024
22.58	0.156981
22.664	0.153412
22.748	0.149050
22.832	0.144114
22.916	0.138967
23	0.133910
23.084	0.129128
23.168	0.124426
23.252	0.119693
23.336	0.114676
23.42	0.109358
23.504	0.103757
23.588	0.098092
23.672	0.092515
23.756	0.087144
23.84	0.082057
23.924	0.077240
24.008	0.072761
24.092	0.068565
24.176	0.064708
24.26	0.061169
24.344	0.058043
24.428	0.055329
24.512	0.052966
24.596	0.050918
24.68	0.049036
24.764	0.047108
24.848	0.045100
24.932	0.042880
25.016	0.040483
25.1	0.037914
25.184	0.035250
25.268	0.032649
25.352	0.030246
25.436	0.028169
25.52	0.026533
25.604	0.025309
25.688	0.024436
25.772	0.023755
25.856	0.023147
25.94	0.022456
26.024	0.021537
26.108	0.020431
26.192	0.019198
26.276	0.017958
26.36	0.016826
26.444	0.015911
26.528	0.015189
26.612	0.014633
26.696	0.014121
26.78	0.013454
26.864	0.012588
26.948	0.011420
27.028	0.010108

File: BZ12041010-4_e27_cm-1.asc
PE IR       SPECTRUM    SPECTRUM    ASCII       PEDS        1.60
  -1
BZAC31~1.ASC
17/04/10
09:44:36.00
17/04/10
09:44:36.00
tln
$BZ12041010-4_e0027$<ebV0>[-23.0,28.0,5.5,0.0,22,1,0]
370
64

2002,4.07
MIRTGS : RIGHTBACK : INTERNAL 2
MIR : ON : INTERNAL 2
OPTKBR

0.200000
8
8.000000
FILLER
SINGLE
SPECTRUM
UNLOCKED 256

DOUBLE

COMBINED
1
0
0

1.000000
BACKG

1
0
TRUE
51149
0
LEFT NOT FITTED RIGHT NOT FITTED 0
NONE
NONE
15600
12
4.427000
51148
TRUE
1 0 8 72 0 0 0 0

15798

#HDR
-1
-1
#GR
CM-1
EGY
2.38419e-05
0.0
5000
-1.000000
4631
8
2.461099
0.010108
#DATA
5000	0.777316
4984	0.789189
4968	0.792145
4952	0.799679
4936	0.810003
4920	0.809431
4904	0.814890
4888	0.823307
4872	0.829124
4856	0.829029
4840	0.839114
4824	0.850725
4808	0.871586
4792	0.881671
4776	0.887608
4760	0.898575
4744	0.901246
4728	0.904941
4712	0.911068
4696	0.914049
4680	0.916767
4664	0.921177
4648	0.926804
4632	0.935220
4616	0.941991
4600	0.952839
4584	0.963544
4568	0.977206
4552	0.991129
4536	1.001429
4520	1.004743
4504	1.011490
4488	1.011514
4472	0.982117
4456	0.795483
4440	1.051473
4424	1.055049
4408	1.048636
4392	1.049017
4376	1.057720
4360	1.067924
4344	1.083540
4328	1.097249
4312	1.116108
4296	1.135611
4280	1.150012
4264	1.165485
4248	1.178479
4232	1.185107
4216	1.196002
4200	1.203012
4184	1.208662
4168	1.213908
4152	1.226258
4136	1.238131
4120	1.254129
4104	1.266407
4088	1.284813
4072	1.306462
4056	1.335716
4040	1.356387
4024	1.378583
4008	1.394033
3992	1.407289
3976	1.420402
3960	1.424694
3944	1.429510
3928	1.431822
3912	1.439952
3896	1.443719
3880	1.448965
3864	1.458001
3848	1.472997
3832	1.492953
3816	1.503825
3800	1.522660
3784	1.548552
3768	1.561522
3752	1.555228
3736	1.566576
3720	1.579976
3704	1.583743
3688	1.575541
3672	1.570272
3656	1.580739
3640	1.587748
3624	1.586365
3608	1.592707
3592	1.601600
3576	1.615142
3560	1.625299
3544	1.632046
3528	1.632928
3512	1.638865
3496	1.632761
3480	1.628017
3464	1.619315
3448	1.605510
3432	1.596164
3416	1.598978
3400	1.606154
3384	1.617574
3368	1.631379
3352	1.653194
3336	1.677417
3320	1.703000
3304	1.725077
3288	1.746344
3272	1.767182
3256	1.778769
3240	1.789760
3224	1.793408
3208	1.799511
3192	1.800704
3176	1.805448
3160	1.814627
3144	1.826024
3128	1.843762
3112	1.864242
3096	1.893877
3080	1.926469
3064	1.947784
3048	1.974368
3032	1.986455
3016	1.976323
3000	2.036237
2984	2.033567
2968	1.965904
2952	1.928830
2936	1.824831
2920	1.811552
2904	1.953911
2888	2.004265
2872	1.992344
2856	1.936054
2840	2.078270
2824	2.136325
2808	2.174448
2792	2.204132
2776	2.235198
2760	2.253484
2744	2.262687
2728	2.264928
2712	2.260637
2696	2.252578
2680	2.244663
2664	2.232241
2648	2.226901
2632	2.227258
2616	2.227163
2600	2.234721
2584	2.250409
2568	2.273106
2552	2.295565
2536	2.311921
2520	2.326798
2504	2.333641
2488	2.331495
2472	2.326869
2456	2.310681
2440	2.293348
2424	2.279019
2408	2.264308
2392	2.255368
2376	2.248311
2360	2.243018
2344	2.270102
2328	2.290678
2312	2.322959
2296	2.350902
2280	2.372765
2264	2.381205
2248	2.388858
2232	2.386260
2216	2.378773
2200	2.364468
2184	2.352905
2168	2.341389
2152	2.341771
2136	2.341246
2120	2.340722
2104	2.342772
2088	2.345490
2072	2.362847
2056	2.396178
2040	2.428245
2024	2.448844
2008	2.459907
1992	2.459764
1976	2.449536
1960	2.434515
1944	2.422189
1928	2.407193
1912	2.390098
1896	2.375936
1880	2.379560
1864	2.386307
1848	2.395391
1832	2.411508
1816	2.428269
1800	2.434897
1784	2.434706
1768	2.414846
1752	2.387166
1736	2.327156
1720	2.311635
1704	2.274632
1688	2.251172
1672	2.228403
1656	2.178287
1640	2.157211
1624	2.106404
1608	1.973462
1592	2.016758
1576	1.984524
1560	1.927685
1544	1.958942
1528	2.107310
1512	2.088594
1496	1.700329
1480	1.961159
1464	1.934719
1448	1.783227
1432	1.870298
1416	1.844763
1400	1.730060
1384	1.785159
1368	1.815891
1352	1.816940
1336	1.826333
1320	1.854801
1304	1.855397
1288	1.854562
1272	1.805257
1256	1.757550
1240	1.834774
1224	1.813173
1208	1.747107
1192	1.741099
1176	1.697468
1160	1.627779
1144	1.596164
1128	1.538181
1112	1.457905
1096	1.423430
1080	1.427984
1064	1.433753
1048	1.305937
1032	1.378536
1016	1.365327
1000	1.398921
984	 1.382875
968	 1.342868
952	 1.285815
936	 1.253366
920	 1.214528
904	 1.161527
888	 1.120162
872	 1.036596
856	 1.093959
840	 1.060056
824	 0.844407
808	 0.946831
792	 0.961422
776	 0.976753
760	 0.962901
744	 0.940656
728	 0.901579
712	 0.855851
696	 0.790786
680	 0.733208
664	 0.706982
648	 0.666499
632	 0.623178
616	 0.575876
600	 0.523138
584	 0.509309
568	 0.494861
552	 0.465917
536	 0.437903
520	 0.400471
504	 0.359010
488	 0.305938
472	 0.253272
456	 0.196647
440	 0.150179
424	 0.098299
408	 0.053024
392	 0.026702
376	 0.014734
370	 0.010108