Folder: Masteroppgave/Bakgrunnsmateriale/MATLAB/FTIR/ftir_data/CMT801/Mapping_1

File: CMT801_t01-um.asc
PE IR       SPECTRUM    SPECTRUM    ASCII       PEDS        1.60
  -1
CMT801~2.ASC
17/06/01
09:36:16.00
17/06/01
09:36:57.00
tln
$CMT801_t0001$<tbV0>[0.0,-7.7,9.0,0.0,22,1,0]
27.028
64

2002,4.07
MIRTGS : RIGHTBACK : INTERNAL 2
MIR : ON : INTERNAL 2
OPTKBR

0.200000
8
8.000000
FILLER
RATIO
SPECTRUM
UNLOCKED 256

DOUBLE
64
COMBINED
1
0
0

0.002000
RATIO

1
0
TRUE
51149
0
LEFT NOT FITTED RIGHT NOT FITTED 0
NONE
NONE
15600
12
4.427000
51148
TRUE
1 0 8 72 0 0 0 0

15798

#HDR
-1
-1
#GR
µM
%T
2.38419e-05
0.0
1.282000
0.002000
12874
8
63.3337
-7.139003
#DATA
1.282000	 1.126790
1.368000	 -0.975131
1.454000	 -0.109407
1.540000	 -0.524810
1.626000	 0.793976
1.712000	 0.912836
1.798000	 -0.450199
1.884000	 -0.231319
1.970000	 -0.178965
2.056000	 0.273867
2.142000	 -2.091621
2.228000	 0.088290
2.314000	 0.176021
2.400000	 0.419791
2.486000	 0.024213
2.572000	 -0.099633
2.658000	 0.022312
2.744000	 0.150430
2.830000	 0.471312
2.916000	 0.156601
3.002000	 -0.072845
3.088000	 0.121693
3.174000	 0.136783
3.260000	 0.042912
3.346000	 0.036557
3.432000	 -0.012904
3.518000	 0.094815
3.604000	 0.060983
3.690000	 0.037381
3.776000	 0.039517
3.862000	 -0.099671
3.948000	 0.061941
4.034000	 0.006951
4.120000	 -0.081593
4.206000	 0.083916
4.292000	 -0.010449
4.378000	 0.189933
4.464000	 0.086841
4.550000	 0.092416
4.636000	 0.228232
4.722000	 0.324990
4.808000	 0.146697
4.894000	 0.461203
4.980000	 0.587074
5.066000	 0.750266
5.152000	 0.802118
5.238000	 1.175174
5.324000	 1.413957
5.410000	 1.855703
5.496000	 2.392546
5.582000	 2.994618
5.668000	 3.997803
5.754000	 5.102410
5.840000	 6.803730
5.926000	 8.590369
6.012000	 10.7839
6.098000	 13.8626
6.184000	 18.1669
6.270000	 23.2029
6.356000	 27.0106
6.442000	 29.5021
6.528000	 32.7559
6.614000	 38.89
6.700000	 46.2696
6.786000	 50.1361
6.872000	 48.8808
6.958000	 45.9477
7.044000	 45.4648
7.130000	 48.2896
7.216000	 53.7232
7.302000	 58.9641
7.388000	 60.253
7.474000	 57.0216
7.560000	 52.582
7.646000	 49.5145
7.732000	 48.9022
7.818000	 50.4814
7.904000	 54.4462
7.990000	 58.836
8.076000	 61.953
8.161999	 62.205
8.248000	 59.5615
8.334000	 55.884
8.420000	 51.9954
8.506000	 50.0134
8.592000	 49.666
8.678000	 50.5086
8.763999	 53.3026
8.850000	 56.459
8.936000	 59.916
9.022000	 62.0808
9.108000	 62.5538
9.193999	 61.5685
9.280000	 58.6924
9.366000	 55.6323
9.452000	 52.8736
9.538000	 50.832
9.624000	 49.835
9.710000	 49.718
9.795999	 51.1578
9.882000	 52.7502
9.968000	 55.1553
10.054	57.7353
10.14	60.3104
10.226	62.2846
10.312	63.0165
10.398	62.7514
10.484	61.5816
10.57	59.6136
10.656	56.8504
10.742	54.7417
10.828	52.9267
10.914	51.4442
11	50.6578
11.086	50.2949
11.172	50.3292
11.258	51.0287
11.344	52.2741
11.43	53.8216
11.516	55.7613
11.602	57.7059
11.688	59.31
11.774	61.1297
11.86	62.6293
11.946	63.2292
12.032	63.2768
12.118	62.8515
12.204	61.7926
12.29	60.2533
12.376	58.3222
12.462	56.6925
12.548	55.357
12.634	54.0278
12.72	52.7792
12.806	51.7209
12.892	50.9317
12.978	50.5734
13.064	50.6036
13.15	50.7313
13.236	51.2606
13.322	52.0418
13.408	53.0046
13.494	54.0224
13.58	55.1254
13.666	56.6018
13.752	57.922
13.838	59.0519
13.924	60.3974
14.01	61.5866
14.096	62.4073
14.182	63.0223
14.268	63.3198
14.354	63.2389
14.44	62.7414
14.526	61.879
14.612	61.0748
14.698	60.2868
14.784	59.2776
14.87	58.0518
14.956	56.7896
15.042	55.8313
15.128	54.8778
15.214	53.6917
15.3	52.7662
15.386	52.1966
15.472	51.7195
15.558	51.2802
15.644	50.7809
15.73	50.2224
15.816	49.8894
15.902	49.9798
15.988	50.3895
16.074	50.9088
16.16	51.366
16.246	51.6611
16.332	51.8737
16.418	52.3914
16.504	53.412
16.59	54.5183
16.676	55.3648
16.762	56.1755
16.848	57.1993
16.934	58.3164
17.02	59.298
17.106	60.0148
17.192	60.4766
17.278	60.8693
17.364	61.4152
17.45	62.1174
17.536	62.7416
17.622	63.0707
17.708	63.0671
17.794	62.8426
17.88	62.5552
17.966	62.2748
18.052	61.9469
18.138	61.532
18.224	61.1153
18.31	60.7767
18.396	60.4253
18.482	59.8729
18.568	59.0468
18.654	58.0581
18.74	57.0782
18.826	56.2059
18.912	55.4356
18.998	54.6928
19.084	53.9314
19.17	53.2385
19.256	52.789
19.342	52.6504
19.428	52.6694
19.514	52.6053
19.6	52.3294
19.686	51.9061
19.772	51.4783
19.858	51.1194
19.944	50.822
20.03	50.5775
20.116	50.4231
20.202	50.3528
20.288	50.3038
20.374	50.2304
20.46	50.1864
20.546	50.2931
20.632	50.6197
20.718	51.1155
20.804	51.6479
20.89	52.1033
20.976	52.4484
21.062	52.753
21.148	53.1534
21.234	53.7663
21.32	54.5459
21.406	55.249
21.492	55.5784
21.578	55.4295
21.664	55.0084
21.75	54.7167
21.836	54.8936
21.922	55.5983
22.008	56.5988
22.094	57.5684
22.18	58.3
22.266	58.7944
22.352	59.1822
22.438	59.5844
22.524	60.0225
22.61	60.4402
22.696	60.7791
22.782	61.0468
22.868	61.2897
22.954	61.5473
23.04	61.817
23.126	62.0215
23.212	62.0848
23.298	61.9561
23.384	61.6331
23.47	61.1498
23.556	60.5498
23.642	59.8882
23.728	59.2063
23.814	58.5816
23.9	58.1161
23.986	57.8911
24.072	57.9363
24.158	58.1388
24.244	58.2664
24.33	58.0147
24.416	57.1161
24.502	55.4195
24.588	52.9707
24.674	50.0437
24.76	47.1149
24.846	44.6562
24.932	42.9838
25.018	42.1074
25.104	41.751
25.19	41.4646
25.276	40.8613
25.362	39.7439
25.448	38.1021
25.534	36.014
25.62	33.5602
25.706	30.8775
25.792	28.1186
25.878	25.4957
25.964	23.3759
26.05	22.1568
26.136	22.1093
26.222	23.2747
26.308	25.376
26.394	27.8703
26.48	30.047
26.566	31.2708
26.652	31.2339
26.738	30.0859
26.824	28.3833
26.91	26.9105
26.996	26.4936
27.028	26.5685

File: CMT801_t01_cm-1.asc
PE IR       SPECTRUM    SPECTRUM    ASCII       PEDS        1.60
  -1
CMT801~1.ASC
17/06/01
09:36:16.00
17/06/01
09:36:16.00
tln
$CMT801_t0001$<tbV0>[0.0,-7.7,9.0,0.0,22,1,0]
370
64

2002,4.07
MIRTGS : RIGHTBACK : INTERNAL 2
MIR : ON : INTERNAL 2
OPTKBR

0.200000
8
8.000000
FILLER
RATIO
SPECTRUM
UNLOCKED 256

DOUBLE
64
COMBINED
1
0
0

1.000000
RATIO

1
0
TRUE
51149
0
LEFT NOT FITTED RIGHT NOT FITTED 0
NONE
NONE
15600
12
4.427000
51148
TRUE
1 0 8 72 0 0 0 0

15798

#HDR
-1
-1
#GR
CM-1
%T
2.38419e-05
0.0
7800
-1.000000
7431
8
63.333
-11.3376
#DATA
7800	1.126790
7775	10.897
7750	1.005315
7725	5.549669
7700	3.308248
7675	4.614949
7650	3.348684
7625	-0.396132
7600	1.544189
7575	1.932072
7550	3.774046
7525	0.345897
7500	2.103996
7475	-1.198959
7450	1.311492
7425	2.003931
7400	0.309467
7375	-0.001955
7350	2.271580
7325	0.402045
7300	-1.070737
7275	-1.310634
7250	1.850152
7225	2.310824
7200	-0.811052
7175	0.910186
7150	-0.624299
7125	0.263118
7100	1.878857
7075	-0.075101
7050	-1.511216
7025	0.050401
7000	2.918958
6975	-0.639128
6950	1.020359
6925	0.424480
6900	-0.882458
6875	-0.131869
6850	-0.212931
6825	0.499963
6800	1.110744
6775	0.692248
6750	-0.554847
6725	0.671625
6700	0.914812
6675	-0.483012
6650	1.324272
6625	1.253342
6600	1.572489
6575	-1.761746
6550	-0.058531
6525	0.214433
6500	-1.015067
6475	0.241494
6450	0.196790
6425	0.636029
6400	-0.677108
6375	-0.956463
6350	-0.461721
6325	0.343751
6300	1.105237
6275	-0.370287
6250	1.578593
6225	0.260996
6200	0.393533
6175	-0.052809
6150	0.787997
6125	0.987339
6100	0.205397
6075	-0.229859
6050	0.304317
6025	0.193238
6000	-0.519108
5975	0.589299
5950	0.011920
5925	-0.500631
5900	-0.075173
5875	0.392174
5850	0.408816
5825	0.119304
5800	-0.133848
5775	0.181841
5750	0.150680
5725	0.427889
5700	0.266098
5675	0.094652
5650	-0.116729
5625	0.837159
5600	-0.452733
5575	1.024889
5550	0.133013
5525	0.428748
5500	0.140690
5475	0.441551
5450	0.060033
5425	0.616574
5400	0.007390
5375	-0.149583
5350	-0.002050
5325	0.689220
5300	-0.279378
5275	0.094866
5250	-0.454211
5225	-0.967049
5200	0.241160
5175	0.268912
5150	0.330305
5125	-0.085449
5100	0.118589
5075	-0.130105
5050	0.339031
5025	0.062632
5000	0.279903
4975	0.039339
4950	0.425362
4925	0.261330
4900	0.013852
4875	-0.047063
4850	0.273132
4825	0.418853
4800	0.465917
4775	0.037312
4750	0.059819
4725	-0.169754
4700	-0.064039
4675	-0.922656
4650	-1.329755
4625	0.200867
4600	0.576496
4575	0.045347
4550	-0.034093
4525	-0.095081
4500	0.198101
4475	-0.094985
4450	-0.109958
4425	-0.272059
4400	0.001883
4375	0.030326
4350	-0.092816
4325	0.174164
4300	0.339603
4275	0.256967
4250	-0.166511
4225	0.076556
4200	0.261878
4175	0.616264
4150	-0.044107
4125	0.145626
4100	0.176262
4075	0.000214
4050	0.253939
4025	0.026988
4000	-0.002455
3975	0.085186
3950	0.187349
3925	0.187373
3900	-0.024056
3875	0.141835
3850	0.101590
3825	0.262856
3800	0.052952
3775	0.155735
3750	-0.014066
3725	0.081920
3700	-0.069856
3675	0.078320
3650	0.246524
3625	0.029730
3600	-0.170683
3575	0.418353
3550	-0.310134
3525	0.261592
3500	0.417995
3475	0.478219
3450	-0.224089
3425	0.042796
3400	0.105714
3375	0.052642
3350	-0.077795
3325	-0.121951
3300	-0.055313
3275	0.188136
3250	0.129532
3225	0.096559
3200	0.097274
3175	0.055098
3150	0.149631
3125	0.002241
3100	-0.098252
3075	-0.082063
3050	0.003433
3025	0.067925
3000	0.014424
2975	0.130105
2950	-0.052547
2925	0.065231
2900	0.008964
2875	0.056624
2850	-0.066041
2825	0.062441
2800	0.018906
2775	0.061607
2750	0.015473
2725	0.110650
2700	0.132441
2675	-0.008893
2650	0.043654
2625	-0.042366
2600	0.197815
2575	0.051760
2550	0.116086
2525	0.147557
2500	0.162100
2475	0.068974
2450	0.120472
2425	-0.094127
2400	0.069642
2375	0.069284
2350	0.057625
2325	0.025916
2300	0.127410
2275	0.241875
2250	0.213885
2225	0.260090
2200	0.117635
2175	0.212740
2150	0.130796
2125	0.306916
2100	0.277543
2075	0.020051
2050	0.400638
2025	0.427675
2000	0.639557
1975	0.756454
1950	0.827574
1925	0.944185
1900	1.182699
1875	1.458024
1850	1.837706
1825	2.301025
1800	2.745604
1775	3.486824
1750	4.672884
1725	5.992317
1700	7.603287
1675	9.585952
1650	12.4298
1625	16.501
1600	22.1172
1575	26.7898
1550	29.7348
1525	34.6566
1500	43.3558
1475	50.0473
1450	47.9551
1425	45.2154
1400	48.9633
1375	57.5045
1350	59.8905
1325	53.2448
1300	48.9381
1275	51.5239
1250	59.2622
1225	62.1898
1200	55.9182
1175	49.9116
1150	51.028
1125	57.8844
1100	62.59
1075	57.8564
1050	51.1102
1025	50.3158
1000	56.0003
975	 62.6475
950	 60.7508
925	 53.286
900	 50.1965
875	 53.7956
850	 60.9319
825	 62.8208
800	 56.0834
775	 50.8557
750	 52.156
725	 58.4466
700	 63.333
675	 58.861
650	 52.2047
625	 50.4601
600	 55.2816
575	 61.6288
550	 61.3124
525	 54.2537
500	 50.6544
475	 52.7175
450	 58.566
425	 60.7443
400	 42.2363
375	 31.1112
370	 26.5685