Folder: Masteroppgave/Bakgrunnsmateriale/MATLAB/FTIR/ftir_data/LPE453/Mapping_121 (part 39)

File: LPE453_t89.asc
PE IR       SPECTRUM    SPECTRUM    ASCII       PEDS        1.60
  -1
LPE3BD~1.ASC
17/05/16
21:43:36.00
17/05/16
21:44:02.00
tln
$LPE453_t0089$<tbV0>[13.0,7.8,8.0,0.0,27,1,0]
27.028
64

2002,4.07
MIRTGS : RIGHTBACK : INTERNAL 2
MIR : ON : INTERNAL 2
OPTKBR

0.200000
8
8.000000
FILLER
RATIO
SPECTRUM
UNLOCKED 256

DOUBLE
64
COMBINED
1
0
0

0.002000
RATIO

1
0
TRUE
51149
0
LEFT NOT FITTED RIGHT NOT FITTED 0
NONE
NONE
15600
12
4.427000
51148
TRUE
1 0 8 72 0 0 0 0

15798

#HDR
-1
-1
#GR
µM
%T
2.38419e-05
0.0
2.000000
0.002000
12515
8
24.8753
-5.700245
#DATA
2.000000	 -0.293803
2.084000	 0.445650
2.168000	 -1.200498
2.252000	 -0.222088
2.336000	 -0.368284
2.420000	 0.186600
2.504000	 -0.139613
2.588000	 0.207323
2.672000	 -0.061546
2.756000	 0.052667
2.840000	 -0.027437
2.924000	 0.060718
3.008000	 -0.077514
3.092000	 0.169812
3.176000	 -0.004940
3.260000	 0.080582
3.344000	 -0.016714
3.428000	 0.062103
3.512000	 -0.009068
3.596000	 -0.000158
3.680000	 0.037430
3.764000	 -0.014621
3.848000	 0.071751
3.932000	 -0.019845
4.016000	 -0.097773
4.100000	 0.192292
4.184000	 -0.011799
4.268000	 -0.094527
4.352000	 0.080069
4.436000	 0.401683
4.520000	 0.973692
4.604000	 2.304513
4.688000	 4.502792
4.772000	 7.379065
4.856000	 10.2907
4.940000	 13.1322
5.024000	 15.5137
5.108000	 17.5347
5.192000	 18.9995
5.276000	 20.19
5.359999	 21.1368
5.444000	 21.9162
5.528000	 22.4513
5.612000	 22.8296
5.696000	 23.1891
5.780000	 23.3803
5.864000	 23.6975
5.948000	 23.9809
6.032000	 24.1231
6.116000	 24.2745
6.200000	 24.3387
6.284000	 24.4966
6.368000	 24.3603
6.452000	 24.5099
6.536000	 24.6274
6.620000	 24.5807
6.704000	 24.6832
6.788000	 24.6581
6.872000	 24.7282
6.956000	 24.8681
7.040000	 24.8026
7.124000	 24.7933
7.208000	 24.7534
7.292000	 24.7346
7.376000	 24.7455
7.460000	 24.6994
7.544000	 24.8311
7.628000	 24.7807
7.712000	 24.6718
7.796000	 24.5752
7.880000	 24.5203
7.964000	 24.5852
8.048000	 24.6237
8.132000	 24.5311
8.216000	 24.4703
8.300000	 24.4808
8.384000	 24.4292
8.468000	 24.3122
8.552000	 24.3274
8.635999	 24.4041
8.719999	 24.4335
8.804000	 24.276
8.888000	 24.1229
8.972000	 24.0946
9.056000	 24.1827
9.140000	 24.0083
9.224000	 24.0945
9.308000	 24.0334
9.391999	 23.9125
9.475999	 23.9184
9.560000	 23.8139
9.644000	 23.8801
9.728000	 23.6151
9.812000	 23.7311
9.896000	 23.7783
9.980000	 23.5177
10.064	23.4289
10.148	23.4187
10.232	23.4033
10.316	23.312
10.4	23.1328
10.484	23.1806
10.568	23.2167
10.652	23.0985
10.736	22.9846
10.82	22.888
10.904	22.8226
10.988	22.8099
11.072	22.8553
11.156	22.6001
11.24	22.446
11.324	22.382
11.408	22.3834
11.492	22.1878
11.576	22.1592
11.66	22.1389
11.744	21.9029
11.828	21.896
11.912	21.9197
11.996	21.7495
12.08	21.6411
12.164	21.6559
12.248	21.6929
12.332	21.5494
12.416	21.3911
12.5	21.3381
12.584	21.2203
12.668	21.1382
12.752	21.0963
12.836	21.0186
12.92	20.9415
13.004	21.0337
13.088	21.0432
13.172	20.9125
13.256	20.7462
13.34	20.8235
13.424	20.919
13.508	20.7612
13.592	20.4916
13.676	20.2578
13.76	20.2746
13.844	20.3236
13.928	20.2033
14.012	20.0226
14.096	19.9047
14.18	19.9488
14.264	19.9821
14.348	19.9318
14.432	19.9186
14.516	19.9032
14.6	19.7359
14.684	19.4404
14.768	19.3146
14.852	19.3696
14.936	19.2313
15.02	18.8904
15.104	18.7572
15.188	18.9265
15.272	19.1026
15.356	19.0703
15.44	18.876
15.524	18.7076
15.608	18.6326
15.692	18.6291
15.776	18.7485
15.86	18.8805
15.944	18.7879
16.028	18.5026
16.112	18.2426
16.196	18.1052
16.28	18.0477
16.364	17.9584
16.448	17.7765
16.532	17.5769
16.616	17.4798
16.7	17.4945
16.784	17.5311
16.868	17.5652
16.952	17.6516
17.036	17.7581
17.12	17.743
17.204	17.5389
17.288	17.2358
17.372	16.9665
17.456	16.8232
17.54	16.8495
17.624	16.9948
17.708	17.1177
17.792	17.1172
17.876	17.0226
17.96	16.8924
18.044	16.724
18.128	16.5328
18.212	16.4198
18.296	16.4707
18.38	16.6395
18.464	16.7885
18.548	16.8102
18.632	16.6789
18.716	16.4459
18.8	16.2127
18.884	16.0627
18.968	15.9944
19.052	15.9301
19.136	15.8016
19.22	15.6155
19.304	15.4439
19.388	15.3441
19.472	15.3061
19.556	15.277
19.64	15.2193
19.724	15.1406
19.808	15.0782
19.892	15.0653
19.976	15.1089
20.06	15.1781
20.144	15.2055
20.228	15.1226
20.312	14.9283
20.396	14.7076
20.48	14.5556
20.564	14.4943
20.648	14.4769
20.732	14.4635
20.816	14.4601
20.9	14.4847
20.984	14.5106
21.068	14.4694
21.152	14.3211
21.236	14.103
21.32	13.9036
21.404	13.7812
21.488	13.7288
21.572	13.6955
21.656	13.6363
21.74	13.5477
21.824	13.4656
21.908	13.4391
21.992	13.4964
22.076	13.6223
22.16	13.7619
22.244	13.8472
22.328	13.8303
22.412	13.693
22.496	13.448
22.58	13.1146
22.664	12.7047
22.748	12.2356
22.832	11.7549
22.916	11.3527
23	11.1573
23.084	11.2632
23.168	11.6896
23.252	12.3453
23.336	13.0287
23.42	13.5425
23.504	13.7522
23.588	13.6554
23.672	13.3672
23.756	13.0708
23.84	12.9244
23.924	13.0044
24.008	13.267
24.092	13.5637
24.176	13.7243
24.26	13.6381
24.344	13.2767
24.428	12.6712
24.512	11.8515
24.596	10.795
24.68	9.418615
24.764	7.636704
24.848	5.471701
24.932	3.090285
25.016	0.779216
25.1	-1.144683
25.184	-2.409965
25.268	-2.897919
25.352	-2.655446
25.436	-1.839359
25.52	-0.647805
25.604	0.747868
25.688	2.244833
25.772	3.767670
25.856	5.198637
25.94	6.344729
26.024	6.950740
26.108	6.796831
26.192	5.849833
26.276	4.329770
26.36	2.698176
26.444	1.531797
26.528	1.323004
26.612	2.286894
26.696	4.331776
26.78	7.085770
26.864	10.0572
26.948	12.7828
27.028	14.822

File: LPE453_t89_cm-1.asc
PE IR       SPECTRUM    SPECTRUM    ASCII       PEDS        1.60
  -1
LP6BDC~1.ASC
17/05/16
21:43:36.00
17/05/16
21:43:36.00
tln
$LPE453_t0089$<tbV0>[13.0,7.8,8.0,0.0,27,1,0]
370
64

2002,4.07
MIRTGS : RIGHTBACK : INTERNAL 2
MIR : ON : INTERNAL 2
OPTKBR

0.200000
8
8.000000
FILLER
RATIO
SPECTRUM
UNLOCKED 256

DOUBLE
64
COMBINED
1
0
0

1.000000
RATIO

1
0
TRUE
51149
0
LEFT NOT FITTED RIGHT NOT FITTED 0
NONE
NONE
15600
12
4.427000
51148
TRUE
1 0 8 72 0 0 0 0

15798

#HDR
-1
-1
#GR
CM-1
%T
2.38419e-05
0.0
5000
-1.000000
4631
8
24.8751
-7.317805
#DATA
5000	-0.293803
4984	0.034999
4968	-0.005769
4952	0.211834
4936	0.029802
4920	0.399899
4904	0.171113
4888	-0.498628
4872	0.259256
4856	0.014185
4840	0.271368
4824	0.045251
4808	0.258159
4792	0.257349
4776	0.379228
4760	0.398468
4744	0.099682
4728	0.432682
4712	0.249338
4696	0.591635
4680	0.108170
4664	0.666737
4648	-0.359654
4632	0.493502
4616	-0.589203
4600	-0.274252
4584	1.724314
4568	-0.181722
4552	0.710988
4536	0.583004
4520	-0.274729
4504	-4.470300
4488	0.591850
4472	0.972437
4456	0.509023
4440	-0.233483
4424	0.762534
4408	0.160264
4392	0.320219
4376	0.404787
4360	-0.121140
4344	0.201702
4328	0.270605
4312	-0.167131
4296	-0.113821
4280	-0.364017
4264	0.134205
4248	0.000739
4232	0.265026
4216	0.073242
4200	0.293517
4184	0.085806
4168	0.370192
4152	0.002813
4136	0.217771
4120	0.337123
4104	0.106739
4088	0.141286
4072	0.230598
4056	0.122380
4040	0.121665
4024	0.269699
4008	0.003218
3992	-0.086975
3976	-0.172114
3960	0.286245
3944	0.095605
3928	-0.051522
3912	-0.003004
3896	0.055360
3880	-0.044751
3864	0.207281
3848	0.015664
3832	0.097250
3816	-0.002193
3800	-0.012421
3784	0.089454
3768	0.142836
3752	0.176048
3736	-0.097060
3720	0.067067
3704	-0.056171
3688	0.018405
3672	0.050783
3656	-0.033807
3640	0.133275
3624	0.059437
3608	0.128197
3592	0.093841
3576	0.037240
3560	0.127291
3544	0.104594
3528	0.142908
3512	-0.031399
3496	0.050044
3480	0.144457
3464	0.047707
3448	0.075531
3432	0.002813
3416	0.193834
3400	-0.046920
3384	0.073575
3368	0.088334
3352	0.045228
3336	0.027036
3320	-0.040984
3304	0.116991
3288	-0.034093
3272	0.005030
3256	0.060629
3240	0.080060
3224	0.035905
3208	-0.095868
3192	-0.066304
3176	-0.027012
3160	-0.024652
3144	-0.071334
3128	0.166344
3112	-0.019121
3096	-0.037407
3080	0.095129
3064	0.024533
3048	0.099492
3032	0.059437
3016	0.151515
3000	0.104618
2984	-0.014805
2968	-0.169277
2952	-0.013589
2936	0.122761
2920	0.087499
2904	0.039076
2888	0.141310
2872	-0.062227
2856	0.093007
2840	0.017499
2824	0.133371
2808	0.119328
2792	-0.013256
2776	0.018358
2760	0.054693
2744	-0.075221
2728	0.053954
2712	0.095272
2696	0.005578
2680	0.062584
2664	0.071501
2648	0.075125
2632	0.011038
2616	0.043272
2600	0.040316
2584	-0.006771
2568	-0.019121
2552	0.025892
2536	0.062417
2520	-0.016617
2504	0.078773
2488	-0.014877
2472	-0.062298
2456	-0.047898
2440	0.181055
2424	0.008010
2408	0.015044
2392	0.027012
2376	0.063681
2360	0.022315
2344	-0.112843
2328	-0.003600
2312	0.052881
2296	0.084424
2280	0.132822
2264	0.217914
2248	0.350832
2232	0.572323
2216	0.857615
2200	1.335835
2184	1.701188
2168	2.565574
2152	3.432464
2136	4.364037
2120	5.501389
2104	6.728434
2088	8.015298
2072	9.357070
2056	10.5561
2040	11.9607
2024	13.1499
2008	14.379
1992	15.4176
1976	16.3589
1960	17.3639
1944	18.1626
1928	18.9076
1912	19.5911
1896	20.1615
1880	20.7739
1864	21.1732
1848	21.6103
1832	21.9922
1816	22.2421
1800	22.6146
1784	22.8013
1768	23.1519
1752	23.2836
1736	23.3153
1720	23.6536
1704	23.7008
1688	23.8803
1672	24.0082
1656	24.141
1640	24.2595
1624	24.3588
1608	24.4028
1592	24.5044
1576	24.4225
1560	24.5632
1544	24.5647
1528	24.6385
1512	24.5995
1496	24.6741
1480	24.7609
1464	24.8252
1448	24.8207
1432	24.7587
1416	24.7961
1400	24.8004
1384	24.7421
1368	24.6248
1352	24.6849
1336	24.6957
1320	24.7369
1304	24.7609
1288	24.6287
1272	24.5275
1256	24.5852
1240	24.6416
1224	24.4633
1208	24.4947
1192	24.4273
1176	24.2866
1160	24.3838
1144	24.4548
1128	24.1257
1112	24.0898
1096	23.9968
1080	24.0992
1064	23.9092
1048	23.8442
1032	23.754
1016	23.7813
1000	23.4414
984	 23.4001
968	 23.2874
952	 23.227
936	 23.0647
920	 22.8709
904	 22.8584
888	 22.4509
872	 22.2794
856	 22.0601
840	 21.9249
824	 21.6397
808	 21.4435
792	 21.1698
776	 20.9558
760	 20.9413
744	 20.9039
728	 20.2492
712	 19.9597
696	 19.9234
680	 19.3804
664	 18.7809
648	 18.8958
632	 18.8383
616	 18.0755
600	 17.4808
584	 17.7385
568	 16.9595
552	 16.5584
536	 16.6169
520	 15.5911
504	 15.066
488	 14.542
472	 14.2353
456	 13.4456
440	 12.3549
424	 13.663
408	 11.8758
392	 -0.798988
376	 2.008962
370	 14.822

File: LPE453_t90.asc
PE IR       SPECTRUM    SPECTRUM    ASCII       PEDS        1.60
  -1
LPC7B9~1.ASC
17/05/16
21:48:13.00
17/05/16
21:48:39.00
tln
$LPE453_t0090$<tbV0>[10.4,7.8,8.0,0.0,27,1,0]
27.028
64

2002,4.07
MIRTGS : RIGHTBACK : INTERNAL 2
MIR : ON : INTERNAL 2
OPTKBR

0.200000
8
8.000000
FILLER
RATIO
SPECTRUM
UNLOCKED 256

DOUBLE
64
COMBINED
1
0
0

0.002000
RATIO

1
0
TRUE
51149
0
LEFT NOT FITTED RIGHT NOT FITTED 0
NONE
NONE
15600
12
4.427000
51148
TRUE
1 0 8 72 0 0 0 0

15798

#HDR
-1
-1
#GR
µM
%T
2.38419e-05
0.0
2.000000
0.002000
12515
8
33.5304
-5.198629
#DATA
2.000000	 0.354862
2.084000	 0.203784
2.168000	 -0.141619
2.252000	 0.358559
2.336000	 -0.153251
2.420000	 0.229005
2.504000	 -0.068733
2.588000	 0.027621
2.672000	 0.036582
2.756000	 0.082850
2.840000	 0.111661
2.924000	 0.114886
3.008000	 0.018101
3.092000	 0.124729
3.176000	 0.090006
3.260000	 0.074374
3.344000	 0.030207
3.428000	 -0.075405
3.512000	 0.028843
3.596000	 -0.013801
3.680000	 0.081371
3.764000	 0.088933
3.848000	 -0.030961
3.932000	 -0.065034
4.016000	 -0.030366
4.100000	 0.007232
4.184000	 -0.017367
4.268000	 0.019147
4.352000	 0.307845
4.436000	 0.491266
4.520000	 1.521183
4.604000	 3.137165
4.688000	 5.742463
4.772000	 8.574046
4.856000	 11.7731
4.940000	 14.3007
5.024000	 16.28
5.108000	 18.3034
5.192000	 19.5896
5.276000	 20.7292
5.359999	 21.658
5.444000	 22.3249
5.528000	 22.8588
5.612000	 23.1494
5.696000	 23.5922
5.780000	 23.915
5.864000	 24.11
5.948000	 24.3228
6.032000	 24.4653
6.116000	 24.7131
6.200000	 24.7172
6.284000	 25.0829
6.368000	 25.1366
6.452000	 25.3038
6.536000	 25.3163
6.620000	 25.471
6.704000	 25.535
6.788000	 25.704
6.872000	 25.7435
6.956000	 26.153
7.040000	 25.9357
7.124000	 26.192
7.208000	 26.2634
7.292000	 26.3832
7.376000	 26.3401
7.460000	 26.3996
7.544000	 26.5103
7.628000	 26.49
7.712000	 26.6161
7.796000	 26.7364
7.880000	 26.7323
7.964000	 26.7554
8.048000	 26.883
8.132000	 27.0785
8.216000	 26.9751
8.300000	 26.9994
8.384000	 27.0642
8.468000	 27.1764
8.552000	 27.2616
8.635999	 27.0748
8.719999	 27.2943
8.804000	 27.4598
8.888000	 27.4554
8.972000	 27.4075
9.056000	 27.3843
9.140000	 27.4317
9.224000	 27.6906
9.308000	 27.5846
9.391999	 27.4617
9.475999	 27.4881
9.560000	 27.3918
9.644000	 27.4403
9.728000	 27.552
9.812000	 27.574
9.896000	 27.5056
9.980000	 27.4555
10.064	27.5073
10.148	27.5632
10.232	27.6862
10.316	27.5382
10.4	27.4038
10.484	27.3493
10.568	27.2043
10.652	27.4662
10.736	27.2878
10.82	27.2058
10.904	27.244
10.988	27.2566
11.072	27.0702
11.156	26.8766
11.24	27.0341
11.324	27.0712
11.408	27.2232
11.492	27.0596
11.576	27.0358
11.66	26.9396
11.744	26.7531
11.828	26.6647
11.912	26.7239
11.996	26.643
12.08	26.6055
12.164	26.8254
12.248	26.9964
12.332	26.6767
12.416	26.4665
12.5	26.542
12.584	26.4231
12.668	26.2315
12.752	26.3282
12.836	26.4931
12.92	26.3868
13.004	26.2587
13.088	26.2352
13.172	26.2072
13.256	26.0693
13.34	25.689
13.424	25.4542
13.508	25.3655
13.592	25.4068
13.676	25.6598
13.76	25.8324
13.844	25.7064
13.928	25.5742
14.012	25.5764
14.096	25.3703
14.18	24.9997
14.264	24.8021
14.348	24.876
14.432	25.0375
14.516	25.0375
14.6	24.8833
14.684	24.8268
14.768	24.8834
14.852	24.8922
14.936	24.9374
15.02	25.0542
15.104	25.0576
15.188	24.8605
15.272	24.6005
15.356	24.4595
15.44	24.4015
15.524	24.3235
15.608	24.2561
15.692	24.1998
15.776	24.1237
15.86	24.0304
15.944	23.8932
16.028	23.7541
16.112	23.725
16.196	23.7799
16.28	23.7754
16.364	23.7049
16.448	23.735
16.532	23.8768
16.616	23.9077
16.7	23.7054
16.784	23.3686
16.868	23.0151
16.952	22.7207
17.036	22.581
17.12	22.6231
17.204	22.7355
17.288	22.7789
17.372	22.7016
17.456	22.5495
17.54	22.4336
17.624	22.4524
17.708	22.5761
17.792	22.6592
17.876	22.6017
17.96	22.4555
18.044	22.3336
18.128	22.2866
18.212	22.2879
18.296	22.2969
18.38	22.2869
18.464	22.2127
18.548	22.0205
18.632	21.7254
18.716	21.4437
18.8	21.2965
18.884	21.2807
18.968	21.2833
19.052	21.2311
19.136	21.1656
19.22	21.1734
19.304	21.2742
19.388	21.3879
19.472	21.3925
19.556	21.2263
19.64	20.9423
19.724	20.6592
19.808	20.464
19.892	20.359
19.976	20.2973
20.06	20.2531
20.144	20.2486
20.228	20.3174
20.312	20.4471
20.396	20.5677
20.48	20.588
20.564	20.4562
20.648	20.2001
20.732	19.9136
20.816	19.697
20.9	19.5935
20.984	19.5682
21.068	19.5517
21.152	19.5035
21.236	19.4488
21.32	19.4616
21.404	19.5968
21.488	19.8368
21.572	20.0931
21.656	20.2695
21.74	20.3198
21.824	20.2659
21.908	20.1696
21.992	20.0804
22.076	20.0137
22.16	19.9615
22.244	19.9158
22.328	19.8722
22.412	19.817
22.496	19.7174
22.58	19.5488
22.664	19.3137
22.748	19.04
22.832	18.7536
22.916	18.4582
23	18.1437
23.084	17.8206
23.168	17.5399
23.252	17.3677
23.336	17.3455
23.42	17.4536
23.504	17.599
23.588	17.6596
23.672	17.5533
23.756	17.2753
23.84	16.8737
23.924	16.4303
24.008	16.0041
24.092	15.6028
24.176	15.2194
24.26	14.8547
24.344	14.5421
24.428	14.3498
24.512	14.3698
24.596	14.6659
24.68	15.1952
24.764	15.7698
24.848	16.1384
24.932	16.0437
25.016	15.3593
25.1	14.1663
25.184	12.7305
25.268	11.4231
25.352	10.6158
25.436	10.6235
25.52	11.6108
25.604	13.5673
25.688	16.2604
25.772	19.2299
25.856	21.9017
25.94	23.7916
26.024	24.6007
26.108	24.2958
26.192	23.1274
26.276	21.5614
26.36	20.1837
26.444	19.5026
26.528	19.808
26.612	21.1217
26.696	23.2474
26.78	25.8596
26.864	28.6287
26.948	31.2995
27.028	33.5304

File: LPE453_t90_cm-1.asc
PE IR       SPECTRUM    SPECTRUM    ASCII       PEDS        1.60
  -1
LPDB55~1.ASC
17/05/16
21:48:13.00
17/05/16
21:48:13.00
tln
$LPE453_t0090$<tbV0>[10.4,7.8,8.0,0.0,27,1,0]
370
64

2002,4.07
MIRTGS : RIGHTBACK : INTERNAL 2
MIR : ON : INTERNAL 2
OPTKBR

0.200000
8
8.000000
FILLER
RATIO
SPECTRUM
UNLOCKED 256

DOUBLE
64
COMBINED
1
0
0

1.000000
RATIO

1
0
TRUE
51149
0
LEFT NOT FITTED RIGHT NOT FITTED 0
NONE
NONE
15600
12
4.427000
51148
TRUE
1 0 8 72 0 0 0 0

15798

#HDR
-1
-1
#GR
CM-1
%T
2.38419e-05
0.0
5000
-1.000000
4631
8
33.5304
-5.241775
#DATA
5000	0.354862
4984	0.440835
4968	0.062179
4952	-0.245046
4936	0.132298
4920	-0.218892
4904	0.403976
4888	0.250792
4872	0.153684
4856	-0.045776
4840	-0.030660
4824	0.042057
4808	0.137257
4792	0.402379
4776	0.152683
4760	-0.405979
4744	-0.018167
4728	-0.096225
4712	-0.005769
4696	0.330114
4680	0.488305
4664	0.781726
4648	-0.562381
4632	-0.129199
4616	-0.033473
4600	1.035046
4584	-0.546193
4568	0.618433
4552	0.499939
4536	0.480389
4520	-2.028775
4504	12.0101
4488	-0.900340
4472	-1.044416
4456	-0.094461
4440	0.362730
4424	0.094676
4408	-0.092601
4392	0.281667
4376	0.261855
4360	-0.123715
4344	0.414633
4328	0.061726
4312	0.098013
4296	0.017237
4280	-0.132465
4264	0.234484
4248	-0.397253
4232	-0.034070
4216	0.142550
4200	0.039839
4184	-0.091314
4168	0.249195
4152	0.399827
4136	0.276732
4120	0.081300
4104	0.008010
4088	-0.079894
4072	0.166058
4056	0.061440
4040	0.179862
4024	-0.020623
4008	0.024080
3992	-0.060057
3976	-0.063395
3960	0.164508
3944	0.062108
3928	-0.010180
3912	0.144410
3896	-0.023531
3880	0.120806
3864	0.027203
3848	0.110387
3832	-0.066351
3816	-0.034785
3800	0.065279
3784	0.134062
3768	0.033569
3752	0.189781
3736	0.050592
3720	0.057578
3704	-0.106859
3688	0.044965
3672	0.074458
3656	0.105357
3640	0.040030
3624	0.171685
3608	-0.021290
3592	0.035023
3576	-0.037550
3560	-0.036716
3544	-0.156950
3528	0.063753
3512	-0.120115
3496	0.210499
3480	-0.154328
3464	0.120472
3448	0.027441
3432	0.033473
3416	0.139045
3400	0.207376
3384	-0.011396
3368	0.017118
3352	0.229644
3336	0.063991
3320	0.060868
3304	-0.018286
3288	0.156068
3272	0.070834
3256	-0.106787
3240	0.150847
3224	0.077199
3208	-0.113034
3192	-0.055575
3176	0.121498
3160	0.095391
3144	0.165891
3128	0.083804
3112	-0.177836
3096	0.144195
3080	-0.007033
3064	0.042700
3048	-0.086975
3032	-0.030636
3016	0.152707
3000	0.104737
2984	0.069451
2968	0.036835
2952	-0.081396
2936	-0.006532
2920	-0.105905
2904	0.062179
2888	0.066804
2872	-0.053453
2856	0.169420
2840	-0.014495
2824	0.023198
2808	-0.001430
2792	0.013303
2776	-0.018739
2760	-0.038290
2744	-0.051999
2728	0.114083
2712	0.097513
2696	-0.078654
2680	0.098204
2664	0.007176
2648	0.029420
2632	0.051164
2616	-0.008487
2600	-0.037240
2584	0.143647
2568	0.024914
2552	0.062942
2536	0.043797
2520	0.033068
2504	0.084018
2488	-0.029706
2472	0.037837
2456	-0.066423
2440	0.004315
2424	0.090122
2408	0.059700
2392	0.007247
2376	0.060987
2360	-0.023746
2344	0.035309
2328	0.031375
2312	0.149226
2296	0.300908
2280	0.216889
2264	0.340008
2248	0.566172
2232	0.922536
2216	1.391649
2200	1.988172
2184	2.529644
2168	3.312492
2152	4.606890
2136	5.543112
2120	6.704616
2104	7.928514
2088	9.271693
2072	10.6116
2056	11.9894
2040	13.1023
2024	14.3216
2008	15.2771
1992	16.2147
1976	17.2688
1960	18.173
1944	18.8747
1928	19.5121
1912	20.1272
1896	20.712
1880	21.1302
1864	21.6764
1848	22.1695
1832	22.3906
1816	22.7006
1800	23.0403
1784	23.154
1768	23.4167
1752	23.654
1736	23.8191
1720	23.9227
1704	24.1185
1688	24.2171
1672	24.4502
1656	24.4684
1640	24.6977
1624	24.8022
1608	24.918
1592	25.0766
1576	25.0903
1560	25.2513
1544	25.2978
1528	25.2685
1512	25.4665
1496	25.5347
1480	25.6689
1464	25.6506
1448	25.7941
1432	25.9866
1416	25.91
1400	26.1775
1384	26.3201
1368	26.3579
1352	26.3449
1336	26.4128
1320	26.5507
1304	26.5154
1288	26.7431
1272	26.809
1256	26.7523
1240	26.9464
1224	26.987
1208	26.9697
1192	27.088
1176	27.1852
1160	27.0947
1144	27.3361
1128	27.5076
1112	27.4086
1096	27.3852
1080	27.7069
1064	27.4646
1048	27.4121
1032	27.4833
1016	27.5832
1000	27.4376
984	 27.5806
968	 27.5145
952	 27.2812
936	 27.4184
920	 27.2505
904	 27.1117
888	 27.0506
872	 27.1179
856	 26.8799
840	 26.7189
824	 26.7248
808	 26.5142
792	 26.3035
776	 26.4566
760	 26.2119
744	 25.4322
728	 25.813
712	 25.5326
696	 24.9167
680	 24.8388
664	 25.0807
648	 24.4073
632	 24.0751
616	 23.7915
600	 23.81
584	 22.6271
568	 22.4356
552	 22.2893
536	 21.6343
520	 21.1818
504	 20.414
488	 20.579
472	 19.478
456	 20.1444
440	 19.1093
424	 17.6602
408	 14.3659
392	 11.4438
376	 20.7972
370	 33.5304

File: LPE453_t91.asc
PE IR       SPECTRUM    SPECTRUM    ASCII       PEDS        1.60
  -1
LPC7BD~1.ASC
17/05/16
21:52:49.00
17/05/16
21:53:16.00
tln
$LPE453_t0091$<tbV0>[7.8,7.8,8.0,0.0,27,1,0]
27.028
64

2002,4.07
MIRTGS : RIGHTBACK : INTERNAL 2
MIR : ON : INTERNAL 2
OPTKBR

0.200000
8
8.000000
FILLER
RATIO
SPECTRUM
UNLOCKED 256

DOUBLE
64
COMBINED
1
0
0

0.002000
RATIO

1
0
TRUE
51149
0
LEFT NOT FITTED RIGHT NOT FITTED 0
NONE
NONE
15600
12
4.427000
51148
TRUE
1 0 8 72 0 0 0 0

15798

#HDR
-1
-1
#GR
µM
%T
2.38419e-05
0.0
2.000000
0.002000
12515
8
35.9927
-8.822702
#DATA
2.000000	 -0.374388
2.084000	 0.191616
2.168000	 0.566913
2.252000	 0.037939
2.336000	 -0.034691
2.420000	 -0.230588
2.504000	 0.401063
2.588000	 0.158880
2.672000	 -0.015004
2.756000	 0.062321
2.840000	 0.155618
2.924000	 0.068711
3.008000	 -0.059064
3.092000	 0.056723
3.176000	 0.115549
3.260000	 -0.041273
3.344000	 0.000570
3.428000	 0.017642
3.512000	 -0.007376
3.596000	 0.003797
3.680000	 0.029538
3.764000	 0.160252
3.848000	 0.056585
3.932000	 0.068805
4.016000	 0.032217
4.100000	 0.127418
4.184000	 0.039356
4.268000	 0.231396
4.352000	 0.560984
4.436000	 1.501294
4.520000	 3.343027
4.604000	 6.463580
4.688000	 10.8538
4.772000	 15.6503
4.856000	 20.1635
4.940000	 24.0748
5.024000	 27.1077
5.108000	 29.5778
5.192000	 31.3029
5.276000	 32.5705
5.359999	 33.3955
5.444000	 34.2058
5.528000	 34.6341
5.612000	 34.9578
5.696000	 35.1938
5.780000	 35.4239
5.864000	 35.5014
5.948000	 35.6625
6.032000	 35.7445
6.116000	 35.7955
6.200000	 35.7998
6.284000	 35.8432
6.368000	 35.876
6.452000	 35.7395
6.536000	 35.8293
6.620000	 35.7974
6.704000	 35.707
6.788000	 35.8133
6.872000	 35.7096
6.956000	 35.5383
7.040000	 35.5493
7.124000	 35.5736
7.208000	 35.6251
7.292000	 35.3814
7.376000	 35.5137
7.460000	 35.4203
7.544000	 35.5041
7.628000	 35.4662
7.712000	 35.3126
7.796000	 35.2805
7.880000	 35.2539
7.964000	 35.2588
8.048000	 35.1871
8.132000	 35.1185
8.216000	 35.077
8.300000	 34.9602
8.384000	 34.9829
8.468000	 34.8361
8.552000	 35.0163
8.635999	 34.9499
8.719999	 34.8054
8.804000	 34.582
8.888000	 34.7537
8.972000	 34.8063
9.056000	 34.8665
9.140000	 34.6307
9.224000	 34.644
9.308000	 34.531
9.391999	 34.4006
9.475999	 34.23
9.560000	 34.1907
9.644000	 34.2269
9.728000	 33.9989
9.812000	 34.0821
9.896000	 33.8351
9.980000	 33.9094
10.064	33.9897
10.148	33.9362
10.232	33.8541
10.316	33.5576
10.4	33.656
10.484	33.692
10.568	33.4716
10.652	33.232
10.736	33.1509
10.82	33.161
10.904	33.0491
10.988	32.8534
11.072	32.8634
11.156	32.8209
11.24	32.7143
11.324	32.699
11.408	32.6452
11.492	32.5139
11.576	32.5027
11.66	32.425
11.744	32.3302
11.828	32.1646
11.912	32.0573
11.996	31.8524
12.08	31.7546
12.164	31.5274
12.248	31.5728
12.332	31.8342
12.416	31.8747
12.5	31.8584
12.584	31.8068
12.668	31.5602
12.752	31.5139
12.836	31.5195
12.92	31.4079
13.004	31.3473
13.088	31.0674
13.172	30.8692
13.256	30.9711
13.34	30.8821
13.424	30.7137
13.508	30.6635
13.592	30.8245
13.676	30.9882
13.76	30.8235
13.844	30.4966
13.928	30.4049
14.012	30.3937
14.096	30.052
14.18	29.724
14.264	29.6615
14.348	29.5908
14.432	29.6054
14.516	29.6705
14.6	29.6479
14.684	29.7437
14.768	29.9075
14.852	29.9305
14.936	29.7533
15.02	29.4295
15.104	29.1289
15.188	28.9011
15.272	28.7187
15.356	28.649
15.44	28.6603
15.524	28.6459
15.608	28.6726
15.692	28.8487
15.776	29.0003
15.86	28.9145
15.944	28.718
16.028	28.5882
16.112	28.4994
16.196	28.4485
16.28	28.4487
16.364	28.3682
16.448	28.1191
16.532	27.8266
16.616	27.6806
16.7	27.7181
16.784	27.7975
16.868	27.7811
16.952	27.661
17.036	27.5071
17.12	27.3979
17.204	27.4007
17.288	27.5013
17.372	27.5647
17.456	27.4625
17.54	27.2213
17.624	26.9889
17.708	26.8549
17.792	26.788
17.876	26.7372
17.96	26.6989
18.044	26.6774
18.128	26.67
18.212	26.6838
18.296	26.7089
18.38	26.6774
18.464	26.5135
18.548	26.2332
18.632	25.9521
18.716	25.7678
18.8	25.6679
18.884	25.5601
18.968	25.3858
19.052	25.1822
19.136	25.0276
19.22	24.9596
19.304	24.9497
19.388	24.9345
19.472	24.8603
19.556	24.7338
19.64	24.6349
19.724	24.6523
19.808	24.7974
19.892	24.9937
19.976	25.1454
20.06	25.2181
20.144	25.2464
20.228	25.2752
20.312	25.31
20.396	25.3226
20.48	25.2853
20.564	25.2005
20.648	25.098
20.732	24.997
20.816	24.869
20.9	24.6561
20.984	24.3387
21.068	23.9778
21.152	23.6717
21.236	23.4744
21.32	23.3545
21.404	23.2356
21.488	23.0853
21.572	22.9484
21.656	22.901
21.74	22.9708
21.824	23.1089
21.908	23.2291
21.992	23.2685
22.076	23.2218
22.16	23.1396
22.244	23.0984
22.328	23.1597
22.412	23.3407
22.496	23.6051
22.58	23.8785
22.664	24.0819
22.748	24.1641
22.832	24.1078
22.916	23.908
23	23.5802
23.084	23.1324
23.168	22.5989
23.252	22.0564
23.336	21.6055
23.42	21.3621
23.504	21.3672
23.588	21.5777
23.672	21.8965
23.756	22.1976
23.84	22.4207
23.924	22.5957
24.008	22.8062
24.092	23.1103
24.176	23.4579
24.26	23.6593
24.344	23.4187
24.428	22.488
24.512	20.7666
24.596	18.3941
24.68	15.6704
24.764	12.9101
24.848	10.3038
24.932	7.862270
25.016	5.447926
25.1	2.895510
25.184	0.140966
25.268	-2.693942
25.352	-5.355594
25.436	-7.449064
25.52	-8.624144
25.604	-8.745895
25.688	-7.931489
25.772	-6.567447
25.856	-5.166507
25.94	-4.189257
26.024	-3.877710
26.108	-4.149670
26.192	-4.684635
26.276	-5.061220
26.36	-4.914028
26.444	-4.070333
26.528	-2.618452
26.612	-0.764704
26.696	1.106371
26.78	2.505525
26.864	3.006609
26.948	2.344433
27.028	0.586509