Folder: Masteroppgave/Bakgrunnsmateriale/MATLAB/FTIR/ftir_data/LPE453/Mapping_121 (part 45)

File: LPE453_t104.asc
PE IR       SPECTRUM    SPECTRUM    ASCII       PEDS        1.60
  -1
LP9386~1.ASC
17/05/16
22:53:23.00
17/05/16
22:53:49.00
tln
$LPE453_t0104$<tbV0>[2.6,10.4,8.0,0.0,27,1,0]
27.028
64

2002,4.07
MIRTGS : RIGHTBACK : INTERNAL 2
MIR : ON : INTERNAL 2
OPTKBR

0.200000
8
8.000000
FILLER
RATIO
SPECTRUM
UNLOCKED 256

DOUBLE
64
COMBINED
1
0
0

0.002000
RATIO

1
0
TRUE
51149
0
LEFT NOT FITTED RIGHT NOT FITTED 0
NONE
NONE
15600
12
4.427000
51148
TRUE
1 0 8 72 0 0 0 0

15798

#HDR
-1
-1
#GR
µM
%T
2.38419e-05
0.0
2.000000
0.002000
12515
8
36.6557
-11.6789
#DATA
2.000000	 -0.154924
2.084000	 0.135051
2.168000	 1.452812
2.252000	 -1.526204
2.336000	 -0.384554
2.420000	 0.254432
2.504000	 0.118208
2.588000	 -0.027501
2.672000	 0.034741
2.756000	 0.039960
2.840000	 0.097800
2.924000	 0.033362
3.008000	 0.031369
3.092000	 -0.050230
3.176000	 0.050990
3.260000	 0.060748
3.344000	 -0.065183
3.428000	 0.090624
3.512000	 -0.025442
3.596000	 0.131898
3.680000	 0.030208
3.764000	 0.023650
3.848000	 0.045383
3.932000	 0.059737
4.016000	 0.126135
4.100000	 0.000428
4.184000	 0.091100
4.268000	 0.298521
4.352000	 0.988595
4.436000	 2.184576
4.520000	 4.649856
4.604000	 8.328593
4.688000	 12.9832
4.772000	 17.8854
4.856000	 22.3023
4.940000	 25.9634
5.024000	 28.8537
5.108000	 30.9795
5.192000	 32.5781
5.276000	 33.7165
5.359999	 34.6445
5.444000	 35.0927
5.528000	 35.6837
5.612000	 35.7096
5.696000	 36.0993
5.780000	 36.2403
5.864000	 36.3095
5.948000	 36.4365
6.032000	 36.4352
6.116000	 36.4504
6.200000	 36.4207
6.284000	 36.4933
6.368000	 36.4209
6.452000	 36.4116
6.536000	 36.4455
6.620000	 36.5514
6.704000	 36.4448
6.788000	 36.4604
6.872000	 36.3534
6.956000	 36.3099
7.040000	 36.3471
7.124000	 36.4536
7.208000	 36.2625
7.292000	 36.2812
7.376000	 36.2713
7.460000	 36.3858
7.544000	 36.3112
7.628000	 36.2768
7.712000	 36.2871
7.796000	 36.2414
7.880000	 36.126
7.964000	 35.9921
8.048000	 35.9179
8.132000	 36.1225
8.216000	 36.1032
8.300000	 36.0368
8.384000	 35.9795
8.468000	 35.9282
8.552000	 35.8162
8.635999	 36.0744
8.719999	 35.8995
8.804000	 35.6854
8.888000	 35.7296
8.972000	 35.5607
9.056000	 35.7371
9.140000	 35.7072
9.224000	 35.8596
9.308000	 35.8032
9.391999	 35.4347
9.475999	 35.3206
9.560000	 35.3723
9.644000	 35.3873
9.728000	 35.5641
9.812000	 35.44
9.896000	 35.2377
9.980000	 34.9547
10.064	34.8256
10.148	34.9718
10.232	35.1557
10.316	35.1059
10.4	35.106
10.484	35.104
10.568	34.8177
10.652	34.6462
10.736	34.5553
10.82	34.5566
10.904	34.3608
10.988	34.4678
11.072	34.6362
11.156	34.5897
11.24	34.4341
11.324	34.2329
11.408	34.032
11.492	33.9801
11.576	33.9693
11.66	33.9932
11.744	33.9093
11.828	33.8994
11.912	33.9637
11.996	33.8727
12.08	33.5937
12.164	33.3252
12.248	33.2936
12.332	33.3357
12.416	33.386
12.5	33.3975
12.584	33.4557
12.668	33.3245
12.752	33.2638
12.836	33.2796
12.92	33.1887
13.004	32.8537
13.088	32.5458
13.172	32.3401
13.256	32.5124
13.34	32.9143
13.424	32.9584
13.508	32.8112
13.592	32.7382
13.676	32.6406
13.76	32.4932
13.844	32.307
13.928	32.1651
14.012	32.2375
14.096	32.2487
14.18	32.0424
14.264	31.8136
14.348	31.7287
14.432	31.6551
14.516	31.3959
14.6	31.1845
14.684	31.1701
14.768	31.2491
14.852	31.3454
14.936	31.4423
15.02	31.4664
15.104	31.3298
15.188	31.1351
15.272	31.0724
15.356	31.176
15.44	31.1908
15.524	30.9036
15.608	30.5393
15.692	30.3981
15.776	30.4385
15.86	30.4574
15.944	30.3409
16.028	30.1319
16.112	29.9593
16.196	29.8917
16.28	29.9277
16.364	30.0372
16.448	30.1291
16.532	30.1233
16.616	30.0765
16.7	30.0636
16.784	30.0389
16.868	29.9878
16.952	29.9918
17.036	30.0409
17.12	29.9828
17.204	29.7319
17.288	29.4007
17.372	29.1514
17.456	29.0162
17.54	28.9247
17.624	28.8308
17.708	28.7381
17.792	28.6452
17.876	28.5509
17.96	28.4943
18.044	28.5231
18.128	28.6276
18.212	28.7476
18.296	28.8535
18.38	28.9738
18.464	29.1238
18.548	29.2423
18.632	29.2311
18.716	29.05
18.8	28.7564
18.884	28.4542
18.968	28.2213
19.052	28.075
19.136	27.9878
19.22	27.9232
19.304	27.8659
19.388	27.811
19.472	27.7406
19.556	27.6349
19.64	27.5047
19.724	27.3832
19.808	27.2897
19.892	27.2061
19.976	27.0986
20.06	26.9522
20.144	26.7907
20.228	26.667
20.312	26.6377
20.396	26.7332
20.48	26.938
20.564	27.1975
20.648	27.4616
20.732	27.7151
20.816	27.9668
20.9	28.2018
20.984	28.352
21.068	28.3175
21.152	28.0331
21.236	27.5276
21.32	26.9225
21.404	26.3821
21.488	26.0277
21.572	25.8893
21.656	25.9029
21.74	25.9526
21.824	25.9436
21.908	25.8472
21.992	25.6808
22.076	25.4627
22.16	25.1819
22.244	24.8141
22.328	24.3717
22.412	23.9256
22.496	23.5958
22.58	23.5029
22.664	23.7182
22.748	24.2111
22.832	24.853
22.916	25.4648
23	25.8564
23.084	25.9179
23.168	25.6572
23.252	25.1846
23.336	24.6694
23.42	24.2986
23.504	24.1922
23.588	24.3822
23.672	24.8188
23.756	25.3585
23.84	25.8302
23.924	26.0565
24.008	25.9201
24.092	25.4288
24.176	24.7365
24.26	24.15
24.344	24.0581
24.428	24.7263
24.512	26.1925
24.596	28.1769
24.68	30.1113
24.764	31.3102
24.848	31.2333
24.932	29.6162
25.016	26.6016
25.1	22.6409
25.184	18.3668
25.268	14.3631
25.352	11.0235
25.436	8.546588
25.52	6.938522
25.604	6.088499
25.688	5.745819
25.772	5.585266
25.856	5.311809
25.94	4.717208
26.024	3.744158
26.108	2.499405
26.192	1.168653
26.276	-0.085866
26.36	-1.215222
26.444	-2.258339
26.528	-3.304681
26.612	-4.418041
26.696	-5.643933
26.78	-6.993410
26.864	-8.482373
26.948	-10.1003
27.028	-11.6789

File: LPE453_t104_cm-1.asc
PE IR       SPECTRUM    SPECTRUM    ASCII       PEDS        1.60
  -1
LP0778~1.ASC
17/05/16
22:53:23.00
17/05/16
22:53:23.00
tln
$LPE453_t0104$<tbV0>[2.6,10.4,8.0,0.0,27,1,0]
370
64

2002,4.07
MIRTGS : RIGHTBACK : INTERNAL 2
MIR : ON : INTERNAL 2
OPTKBR

0.200000
8
8.000000
FILLER
RATIO
SPECTRUM
UNLOCKED 256

DOUBLE
64
COMBINED
1
0
0

1.000000
RATIO

1
0
TRUE
51149
0
LEFT NOT FITTED RIGHT NOT FITTED 0
NONE
NONE
15600
12
4.427000
51148
TRUE
1 0 8 72 0 0 0 0

15798

#HDR
-1
-1
#GR
CM-1
%T
2.38419e-05
0.0
5000
-1.000000
4631
8
36.6546
-11.6789
#DATA
5000	-0.154924
4984	0.029277
4968	-0.232577
4952	0.068831
4936	-0.051331
4920	0.146389
4904	-0.039792
4888	0.121974
4872	0.765728
4856	0.134515
4840	0.431036
4824	0.338983
4808	0.455904
4792	0.209999
4776	0.308442
4760	-0.296711
4744	0.335216
4728	-0.045943
4712	0.401163
4696	0.592255
4680	0.610756
4664	2.020120
4648	0.766706
4632	0.102949
4616	1.002454
4600	0.470328
4584	0.091123
4568	-0.585484
4552	-1.057839
4536	-0.989174
4520	-0.620770
4504	1.351714
4488	29.3538
4472	-1.312470
4456	-2.140498
4440	-1.510071
4424	-1.262879
4408	-0.017213
4392	1.092576
4376	0.788426
4360	0.575947
4344	0.113463
4328	0.411343
4312	0.133705
4296	0.442576
4280	-0.393748
4264	-0.213575
4248	0.593376
4232	0.084757
4216	-0.041723
4200	0.267338
4184	0.488138
4168	0.731229
4152	0.133609
4136	0.148367
4120	0.101304
4104	-0.174140
4088	0.182533
4072	-0.093173
4056	-0.064539
4040	-0.140118
4024	-0.097465
4008	0.014495
3992	0.086450
3976	0.117301
3960	-0.073194
3944	0.243973
3928	0.033092
3912	0.074052
3896	0.035238
3880	0.071215
3864	-0.027608
3848	-0.005030
3832	0.035047
3816	0.269842
3800	0.173640
3784	0.227785
3768	-0.010943
3752	0.169444
3736	-0.109457
3720	-0.020337
3704	0.265645
3688	0.074934
3672	-0.026679
3656	-0.189638
3640	0.112032
3624	0.060343
3608	-0.023078
3592	0.122594
3576	0.122427
3560	-0.062060
3544	0.037550
3528	0.047707
3512	0.083017
3496	0.072526
3480	0.294709
3464	0.140142
3448	0.082635
3432	0.205397
3416	-0.054049
3400	0.116539
3384	0.057172
3368	-0.120615
3352	0.008559
3336	0.178360
3320	0.045037
3304	0.054407
3288	0.064110
3272	0.074553
3256	0.120735
3240	-0.062751
3224	0.065732
3208	-0.012660
3192	0.196838
3176	0.051403
3160	0.016903
3144	0.120782
3128	0.066804
3112	0.096130
3096	0.122761
3080	0.024628
3064	0.062489
3048	0.058889
3032	-0.082683
3016	0.035071
3000	0.008630
2984	0.035262
2968	0.031518
2952	0.016951
2936	0.125527
2920	0.120306
2904	0.165414
2888	-0.026988
2872	0.085949
2856	0.101494
2840	-0.015568
2824	0.040197
2808	0.013899
2792	0.062870
2776	0.140452
2760	0.122499
2744	0.033903
2728	-0.016546
2712	0.068569
2696	0.007605
2680	0.057411
2664	0.058507
2648	0.074362
2632	0.004887
2616	0.007772
2600	0.045275
2584	0.028777
2568	-0.024223
2552	0.053238
2536	-0.061869
2520	-0.036907
2504	0.085926
2488	0.138401
2472	-0.086998
2456	-0.023770
2440	0.026416
2424	0.052618
2408	0.025987
2392	0.081396
2376	0.164985
2360	0.335168
2344	0.291037
2328	0.441098
2312	0.706028
2296	1.039171
2280	1.347684
2264	1.814055
2248	2.467966
2232	3.387713
2216	4.404258
2200	5.655384
2184	7.033753
2168	8.724832
2152	10.702
2136	12.6397
2120	14.6555
2104	16.7675
2088	18.8722
2072	20.7268
2056	22.7201
2040	24.3697
2024	25.9893
2008	27.5177
1992	28.7261
1976	29.9399
1960	30.8345
1944	31.6369
1928	32.4618
1912	33.1427
1896	33.6941
1880	34.1626
1864	34.674
1848	34.9055
1832	35.2094
1816	35.6084
1800	35.7469
1784	35.6961
1768	36.0366
1752	36.1547
1736	36.2404
1720	36.2703
1704	36.3363
1688	36.4956
1672	36.3569
1656	36.4241
1640	36.3619
1624	36.5361
1608	36.4413
1592	36.4884
1576	36.3695
1560	36.4568
1544	36.5079
1528	36.4301
1512	36.5976
1496	36.3828
1480	36.4783
1464	36.4257
1448	36.3311
1432	36.3707
1416	36.2456
1400	36.4856
1384	36.2151
1368	36.2978
1352	36.3211
1336	36.3254
1320	36.3301
1304	36.2882
1288	36.2528
1272	36.1487
1256	35.9988
1240	35.9451
1224	36.1188
1208	36.0902
1192	35.9853
1176	35.9902
1160	36.0333
1144	35.8237
1128	35.7211
1112	35.5678
1096	35.7263
1080	35.9027
1064	35.415
1048	35.3715
1032	35.4604
1016	35.3718
1000	34.904
984	 35.0142
968	 35.0967
952	 35.073
936	 34.5994
920	 34.4485
904	 34.6192
888	 34.3989
872	 33.9837
856	 33.9731
840	 33.9585
824	 33.393
808	 33.3723
792	 33.4048
776	 33.255
760	 32.3588
744	 32.929
728	 32.5374
712	 32.2699
696	 31.7228
680	 31.1863
664	 31.4196
648	 31.2021
632	 30.4624
616	 29.8959
600	 30.0658
584	 29.9765
568	 28.8516
552	 28.6102
536	 29.1948
520	 27.9155
504	 27.2573
488	 26.9725
472	 27.8472
456	 25.8095
440	 24.0696
424	 24.3704
408	 26.1464
392	 7.084274
376	 -4.194211
370	 -11.6789

File: LPE453_t105.asc
PE IR       SPECTRUM    SPECTRUM    ASCII       PEDS        1.60
  -1
LP9786~1.ASC
17/05/16
22:57:59.00
17/05/16
22:58:25.00
tln
$LPE453_t0105$<tbV0>[0.0,10.4,8.0,0.0,27,1,0]
27.028
64

2002,4.07
MIRTGS : RIGHTBACK : INTERNAL 2
MIR : ON : INTERNAL 2
OPTKBR

0.200000
8
8.000000
FILLER
RATIO
SPECTRUM
UNLOCKED 256

DOUBLE
64
COMBINED
1
0
0

0.002000
RATIO

1
0
TRUE
51149
0
LEFT NOT FITTED RIGHT NOT FITTED 0
NONE
NONE
15600
12
4.427000
51148
TRUE
1 0 8 72 0 0 0 0

15798

#HDR
-1
-1
#GR
µM
%T
2.38419e-05
0.0
2.000000
0.002000
12515
8
36.5715
-8.855609
#DATA
2.000000	 0.472474
2.084000	 0.153664
2.168000	 -0.247543
2.252000	 -0.269015
2.336000	 0.183015
2.420000	 0.001277
2.504000	 0.305348
2.588000	 0.090451
2.672000	 -0.033719
2.756000	 0.131576
2.840000	 0.005929
2.924000	 0.046918
3.008000	 0.150643
3.092000	 0.084580
3.176000	 0.042590
3.260000	 0.067812
3.344000	 0.066011
3.428000	 -0.039496
3.512000	 0.035218
3.596000	 0.016553
3.680000	 0.153694
3.764000	 -0.000467
3.848000	 0.092283
3.932000	 0.057800
4.016000	 -0.020342
4.100000	 0.043220
4.184000	 0.086004
4.268000	 0.238104
4.352000	 0.782771
4.436000	 1.960642
4.520000	 4.323467
4.604000	 7.822456
4.688000	 12.51
4.772000	 17.3271
4.856000	 21.8314
4.940000	 25.6425
5.024000	 28.4552
5.108000	 30.8046
5.192000	 32.4029
5.276000	 33.5308
5.359999	 34.4301
5.444000	 34.8534
5.528000	 35.4783
5.612000	 35.7169
5.696000	 35.8105
5.780000	 36.0445
5.864000	 35.8749
5.948000	 36.3688
6.032000	 36.1698
6.116000	 36.3298
6.200000	 36.3779
6.284000	 36.074
6.368000	 36.3715
6.452000	 36.421
6.536000	 35.9708
6.620000	 36.3638
6.704000	 36.1836
6.788000	 35.9028
6.872000	 35.9356
6.956000	 36.1499
7.040000	 35.8695
7.124000	 35.5788
7.208000	 36.0384
7.292000	 36.0969
7.376000	 35.703
7.460000	 35.574
7.544000	 35.8967
7.628000	 35.8352
7.712000	 35.4504
7.796000	 35.2746
7.880000	 35.6229
7.964000	 35.7562
8.048000	 35.565
8.132000	 35.129
8.216000	 35.1734
8.300000	 35.3618
8.384000	 35.6429
8.468000	 35.3215
8.552000	 35.0186
8.635999	 34.9545
8.719999	 35.1731
8.804000	 35.3553
8.888000	 35.3135
8.972000	 34.8078
9.056000	 34.4678
9.140000	 34.6105
9.224000	 35.0194
9.308000	 35.0635
9.391999	 35.0069
9.475999	 34.6699
9.560000	 34.2451
9.644000	 34.1881
9.728000	 34.199
9.812000	 34.6491
9.896000	 34.7602
9.980000	 34.5564
10.064	34.1669
10.148	34.0851
10.232	33.953
10.316	33.6722
10.4	34.0113
10.484	34.3278
10.568	34.121
10.652	34.0659
10.736	33.6725
10.82	33.2195
10.904	33.1493
10.988	33.1139
11.072	33.4009
11.156	33.6688
11.24	33.7273
11.324	33.518
11.408	33.1485
11.492	32.8196
11.576	32.7934
11.66	32.5383
11.744	32.3337
11.828	32.4607
11.912	32.7415
11.996	32.9203
12.08	32.9864
12.164	32.8113
12.248	32.7323
12.332	32.3437
12.416	31.8238
12.5	31.5483
12.584	31.4654
12.668	31.5663
12.752	31.7147
12.836	31.828
12.92	32.0912
13.004	32.188
13.088	32.0657
13.172	31.9012
13.256	31.8447
13.34	31.6667
13.424	31.1933
13.508	30.8447
13.592	30.7393
13.676	30.6321
13.76	30.6024
13.844	30.678
13.928	30.7729
14.012	30.9058
14.096	31.0398
14.18	31.1572
14.264	31.1667
14.348	31.0483
14.432	30.8327
14.516	30.4792
14.6	30.1274
14.684	29.8787
14.768	29.5705
14.852	29.2219
14.936	29.1668
15.02	29.4648
15.104	29.7285
15.188	29.8137
15.272	29.9427
15.356	30.1113
15.44	30.1661
15.524	30.1424
15.608	30.076
15.692	29.9357
15.776	29.7447
15.86	29.4605
15.944	29.0255
16.028	28.6029
16.112	28.4075
16.196	28.3859
16.28	28.3121
16.364	28.1307
16.448	28.011
16.532	28.052
16.616	28.1827
16.7	28.3715
16.784	28.6369
16.868	28.8638
16.952	28.8963
17.036	28.7489
17.12	28.5463
17.204	28.3576
17.288	28.1955
17.372	28.0764
17.456	28.0127
17.54	27.9848
17.624	27.9434
17.708	27.8515
17.792	27.7182
17.876	27.5643
17.96	27.3731
18.044	27.1263
18.128	26.8669
18.212	26.6673
18.296	26.5487
18.38	26.4727
18.464	26.4024
18.548	26.3333
18.632	26.2778
18.716	26.2629
18.8	26.3229
18.884	26.4517
18.968	26.5837
19.052	26.6508
19.136	26.6463
19.22	26.623
19.304	26.644
19.388	26.7318
19.472	26.8456
19.556	26.8989
19.64	26.8252
19.724	26.6435
19.808	26.4482
19.892	26.3071
19.976	26.1941
20.06	26.0275
20.144	25.7737
20.228	25.4888
20.312	25.2561
20.396	25.1033
20.48	24.9904
20.564	24.8733
20.648	24.7611
20.732	24.7115
20.816	24.781
20.9	24.9679
20.984	25.1883
21.068	25.3106
21.152	25.2268
21.236	24.919
21.32	24.4799
21.404	24.0717
21.488	23.8467
21.572	23.8757
21.656	24.1169
21.74	24.4466
21.824	24.7308
21.908	24.8954
21.992	24.9467
22.076	24.938
22.16	24.9235
22.244	24.917
22.328	24.8893
22.412	24.7935
22.496	24.5916
22.58	24.2893
22.664	23.9378
22.748	23.6187
22.832	23.4088
22.916	23.3526
23	23.4227
23.084	23.543
23.168	23.6346
23.252	23.6702
23.336	23.6741
23.42	23.6933
23.504	23.7528
23.588	23.8295
23.672	23.8582
23.756	23.7497
23.84	23.4441
23.924	22.9171
24.008	22.2
24.092	21.3942
24.176	20.6412
24.26	20.1277
24.344	20.0294
24.428	20.3986
24.512	21.1204
24.596	21.9414
24.68	22.572
24.764	22.8173
24.848	22.6755
24.932	22.3226
25.016	21.9895
25.1	21.7903
25.184	21.6687
25.268	21.4232
25.352	20.8299
25.436	19.6987
25.52	17.991
25.604	15.8346
25.688	13.4228
25.772	10.9301
25.856	8.461189
25.94	6.041080
26.024	3.679451
26.108	1.442641
26.192	-0.434985
26.276	-1.607112
26.36	-1.720670
26.444	-0.685568
26.528	1.189757
26.612	3.187212
26.696	4.435665
26.78	4.224098
26.864	2.292400
26.948	-1.053508
27.028	-4.836201

File: LPE453_t105_cm-1.asc
PE IR       SPECTRUM    SPECTRUM    ASCII       PEDS        1.60
  -1
LP0878~1.ASC
17/05/16
22:57:59.00
17/05/16
22:57:59.00
tln
$LPE453_t0105$<tbV0>[0.0,10.4,8.0,0.0,27,1,0]
370
64

2002,4.07
MIRTGS : RIGHTBACK : INTERNAL 2
MIR : ON : INTERNAL 2
OPTKBR

0.200000
8
8.000000
FILLER
RATIO
SPECTRUM
UNLOCKED 256

DOUBLE
64
COMBINED
1
0
0

1.000000
RATIO

1
0
TRUE
51149
0
LEFT NOT FITTED RIGHT NOT FITTED 0
NONE
NONE
15600
12
4.427000
51148
TRUE
1 0 8 72 0 0 0 0

15798

#HDR
-1
-1
#GR
CM-1
%T
2.38419e-05
0.0
5000
-1.000000
4631
8
36.5716
-8.763027
#DATA
5000	0.472474
4984	0.381708
4968	0.274085
4952	0.114464
4936	-0.183987
4920	-0.126171
4904	0.453686
4888	-0.042223
4872	-0.073051
4856	-0.044226
4840	0.172543
4824	-0.271749
4808	-0.012493
4792	0.263929
4776	-0.072860
4760	-0.032043
4744	-0.096249
4728	0.006914
4712	-0.046753
4696	0.948023
4680	1.006937
4664	0.485658
4648	1.574039
4632	0.077414
4616	-0.469851
4600	0.852656
4584	0.075650
4568	-0.297188
4552	-0.215625
4536	0.356841
4520	0.366592
4504	-4.699444
4488	17.6631
4472	-1.434206
4456	0.271463
4440	-0.292658
4424	-0.205278
4408	-0.228762
4392	-0.133204
4376	-0.026607
4360	0.057387
4344	0.248122
4328	-0.226807
4312	0.039625
4296	0.093102
4280	0.162339
4264	0.193047
4248	-0.149106
4232	0.199246
4216	-0.001287
4200	0.172948
4184	-0.105142
4168	-0.138807
4152	0.087690
4136	0.048828
4120	0.137352
4104	0.141143
4088	0.409650
4072	0.039243
4056	0.179672
4040	0.066018
4024	0.042152
4008	0.020813
3992	0.393748
3976	0.146794
3960	0.037431
3944	0.100588
3928	0.015354
3912	0.048899
3896	0.064325
3880	0.023007
3864	0.090360
3848	0.138378
3832	0.061988
3816	-0.041699
3800	-0.148272
3784	0.116372
3768	0.163531
3752	-0.081658
3736	-0.084805
3720	-0.060009
3704	0.138258
3688	0.130629
3672	0.007748
3656	0.055599
3640	0.060725
3624	0.098967
3608	-0.085377
3592	0.036787
3576	0.065088
3560	0.041651
3544	0.084996
3528	0.078177
3512	0.036859
3496	0.005722
3480	-0.011229
3464	0.044655
3448	0.097584
3432	-0.084829
3416	0.082921
3400	0.167870
3384	-0.045156
3368	0.057792
3352	0.093722
3336	0.081634
3320	0.159287
3304	0.066781
3288	0.093626
3272	-0.119423
3256	0.056123
3240	0.081777
3224	0.172734
3208	0.042510
3192	0.054597
3176	0.046610
3160	-0.108194
3144	0.038838
3128	-0.030899
3112	0.066590
3096	-0.072002
3080	0.026059
3064	0.093865
3048	-0.036525
3032	-0.009560
3016	0.046300
3000	0.100636
2984	-0.033617
2968	-0.028872
2952	-0.021743
2936	0.043821
2920	-0.016641
2904	0.111508
2888	-0.053238
2872	0.075912
2856	0.013804
2840	0.004768
2824	0.000882
2808	-0.070357
2792	0.067949
2776	0.025892
2760	0.058507
2744	-0.013971
2728	-0.030422
2712	0.116395
2696	-0.043749
2680	0.067639
2664	0.062155
2648	-0.032949
2632	0.039267
2616	0.060367
2600	0.097608
2584	0.093054
2568	0.002670
2552	0.027370
2536	0.090479
2520	0.055456
2504	0.031757
2488	-0.021576
2472	0.027799
2456	0.026106
2440	0.024127
2424	0.035429
2408	0.089192
2392	0.050139
2376	0.162649
2360	0.158262
2344	0.234270
2328	0.380730
2312	0.578403
2296	0.816655
2280	1.055622
2264	1.562881
2248	2.295708
2232	2.936506
2216	4.025697
2200	5.199670
2184	6.645393
2168	8.208847
2152	10.1594
2136	12.1139
2120	14.1264
2104	16.1625
2088	18.347
2072	20.3777
2056	22.2021
2040	23.9496
2024	25.6696
2008	27.1627
1992	28.3428
1976	29.6896
1960	30.6804
1944	31.3354
1928	32.294
1912	33.0194
1896	33.5212
1880	33.8938
1864	34.4742
1848	34.8259
1832	34.8997
1816	35.2263
1800	35.6906
1784	35.7397
1768	35.5938
1752	35.9053
1736	36.1405
1720	36.0741
1704	35.904
1688	36.2869
1672	36.2481
1656	36.1381
1640	36.2318
1624	36.5691
1608	36.3225
1592	36.077
1576	36.2285
1560	36.4983
1544	36.2308
1528	35.9895
1512	36.3582
1496	36.2248
1480	36.0744
1464	35.7925
1448	36.206
1432	36.1356
1416	35.7239
1400	35.6664
1384	36.1434
1368	35.9972
1352	35.6042
1336	35.7029
1320	35.9462
1304	35.7263
1288	35.3023
1272	35.5502
1256	35.7545
1240	35.5134
1224	35.0425
1208	35.2929
1192	35.6449
1176	35.1799
1160	34.8995
1144	35.2498
1128	35.3355
1112	34.6522
1096	34.5843
1080	35.1072
1064	34.9823
1048	34.3221
1032	34.2349
1016	34.8048
1000	34.4756
984	 34.0818
968	 33.6715
952	 34.2809
936	 33.9537
920	 33.1543
904	 33.3613
888	 33.6709
872	 32.8585
856	 32.458
840	 32.721
824	 32.8723
808	 32.0371
792	 31.5017
776	 31.9796
760	 31.9238
744	 31.0989
728	 30.5951
712	 30.9593
696	 31.008
680	 29.8109
664	 29.6181
648	 30.1659
632	 29.6049
616	 28.3696
600	 28.2868
584	 28.5385
568	 27.9562
552	 26.9018
536	 26.2674
520	 26.6222
504	 26.385
488	 24.9747
472	 25.1246
456	 24.9181
440	 23.6899
424	 23.8272
408	 21.0995
392	 18.2157
376	 2.841091
370	 -4.836201

File: LPE453_t106.asc
PE IR       SPECTRUM    SPECTRUM    ASCII       PEDS        1.60
  -1
LP9B86~1.ASC
17/05/16
23:02:36.00
17/05/16
23:03:02.00
tln
$LPE453_t0106$<tbV0>[-2.6,10.4,8.0,0.0,27,1,0]
27.028
64

2002,4.07
MIRTGS : RIGHTBACK : INTERNAL 2
MIR : ON : INTERNAL 2
OPTKBR

0.200000
8
8.000000
FILLER
RATIO
SPECTRUM
UNLOCKED 256

DOUBLE
64
COMBINED
1
0
0

0.002000
RATIO

1
0
TRUE
51149
0
LEFT NOT FITTED RIGHT NOT FITTED 0
NONE
NONE
15600
12
4.427000
51148
TRUE
1 0 8 72 0 0 0 0

15798

#HDR
-1
-1
#GR
µM
%T
2.38419e-05
0.0
2.000000
0.002000
12515
8
36.4056
-9.694430
#DATA
2.000000	 0.073504
2.084000	 0.122091
2.168000	 0.083679
2.252000	 -0.264796
2.336000	 0.215444
2.420000	 0.164948
2.504000	 0.328694
2.588000	 0.214390
2.672000	 -0.030927
2.756000	 0.051516
2.840000	 -0.002510
2.924000	 0.094108
3.008000	 0.136873
3.092000	 0.006005
3.176000	 -0.060715
3.260000	 0.208586
3.344000	 -0.087601
3.428000	 0.063924
3.512000	 -0.014895
3.596000	 0.099178
3.680000	 -0.043332
3.764000	 0.046552
3.848000	 0.067027
3.932000	 0.156708
4.016000	 0.073372
4.100000	 0.011344
4.184000	 0.086810
4.268000	 0.304049
4.352000	 0.720419
4.436000	 1.751200
4.520000	 3.891913
4.604000	 7.560445
4.688000	 12.0558
4.772000	 16.8225
4.856000	 21.1863
4.940000	 25.4009
5.024000	 27.9138
5.108000	 30.2595
5.192000	 32.0433
5.276000	 32.7376
5.359999	 34.331
5.444000	 34.2562
5.528000	 35.3391
5.612000	 34.9463
5.696000	 35.7805
5.780000	 35.3847
5.864000	 35.7839
5.948000	 35.9794
6.032000	 35.4301
6.116000	 36.398
6.200000	 35.6652
6.284000	 35.8076
6.368000	 36.2225
6.452000	 35.3365
6.536000	 35.9197
6.620000	 36.1793
6.704000	 35.381
6.788000	 35.8827
6.872000	 36.2581
6.956000	 35.2161
7.040000	 35.2827
7.124000	 36.0082
7.208000	 35.5641
7.292000	 34.8311
7.376000	 35.4458
7.460000	 35.8953
7.544000	 35.2504
7.628000	 34.7768
7.712000	 35.2157
7.796000	 35.7954
7.880000	 35.2534
7.964000	 34.4825
8.048000	 34.856
8.132000	 35.4863
8.216000	 35.4456
8.300000	 34.7834
8.384000	 34.289
8.468000	 34.7586
8.552000	 35.3967
8.635999	 35.3102
8.719999	 34.5477
8.804000	 34.029
8.888000	 34.2767
8.972000	 34.8752
9.056000	 35.2383
9.140000	 34.7685
9.224000	 34.1823
9.308000	 33.5606
9.391999	 33.9388
9.475999	 34.3814
9.560000	 34.8431
9.644000	 34.6895
9.728000	 33.9287
9.812000	 33.5157
9.896000	 33.3187
9.980000	 33.6674
10.064	34.2995
10.148	34.5855
10.232	34.1845
10.316	33.3597
10.4	33.2085
10.484	32.7729
10.568	32.9022
10.652	33.372
10.736	33.6183
10.82	33.8002
10.904	33.4889
10.988	33.0624
11.072	32.5929
11.156	32.165
11.24	32.2914
11.324	32.6112
11.408	32.8947
11.492	33.0078
11.576	33.0478
11.66	32.9522
11.744	32.4089
11.828	31.8957
11.912	31.5728
11.996	31.4143
12.08	31.3495
12.164	31.6199
12.248	31.9555
12.332	32.2543
12.416	32.2819
12.5	32.1679
12.584	31.7308
12.668	31.3658
12.752	31.1225
12.836	30.78
12.92	30.487
13.004	30.6149
13.088	30.8947
13.172	31.2666
13.256	31.588
13.34	31.6752
13.424	31.5296
13.508	31.2832
13.592	30.9854
13.676	30.5298
13.76	30.1124
13.844	29.8077
13.928	29.6633
14.012	29.5877
14.096	29.6031
14.18	29.8104
14.264	30.0403
14.348	30.2615
14.432	30.5058
14.516	30.5048
14.6	30.3237
14.684	30.1755
14.768	29.9522
14.852	29.6248
14.936	29.3202
15.02	29.1805
15.104	29.1138
15.188	28.9004
15.272	28.6389
15.356	28.5137
15.44	28.4871
15.524	28.5644
15.608	28.8
15.692	29.0437
15.776	29.1381
15.86	29.1673
15.944	29.224
16.028	29.2357
16.112	29.1346
16.196	28.9524
16.28	28.6959
16.364	28.3296
16.448	27.9478
16.532	27.6955
16.616	27.5356
16.7	27.3555
16.784	27.1778
16.868	27.0837
16.952	27.1254
17.036	27.295
17.12	27.4665
17.204	27.4952
17.288	27.4007
17.372	27.3477
17.456	27.4402
17.54	27.6042
17.624	27.6825
17.708	27.6168
17.792	27.4812
17.876	27.3416
17.96	27.1786
18.044	26.962
18.128	26.7034
18.212	26.4336
18.296	26.1801
18.38	25.9546
18.464	25.7531
18.548	25.561
18.632	25.3869
18.716	25.2697
18.8	25.2405
18.884	25.283
18.968	25.3517
19.052	25.4375
19.136	25.6043
19.22	25.9075
19.304	26.257
19.388	26.4393
19.472	26.3091
19.556	25.9387
19.64	25.5502
19.724	25.3132
19.808	25.2308
19.892	25.1952
19.976	25.1055
20.06	24.9247
20.144	24.6794
20.228	24.4403
20.312	24.2878
20.396	24.2639
20.48	24.343
20.564	24.4457
20.648	24.4869
20.732	24.4273
20.816	24.2849
20.9	24.1204
20.984	23.9963
21.068	23.9504
21.152	23.9854
21.236	24.0754
21.32	24.185
21.404	24.2839
21.488	24.3538
21.572	24.3864
21.656	24.3835
21.74	24.3622
21.824	24.3655
21.908	24.4513
21.992	24.6533
22.076	24.9475
22.16	25.2405
22.244	25.4158
22.328	25.4004
22.412	25.1981
22.496	24.8873
22.58	24.5683
22.664	24.31
22.748	24.1158
22.832	23.9388
22.916	23.7172
23	23.4265
23.084	23.0772
23.168	22.7114
23.252	22.372
23.336	22.0761
23.42	21.8112
23.504	21.5615
23.588	21.3317
23.672	21.1515
23.756	21.0569
23.84	21.034
23.924	21.0196
24.008	20.9351
24.092	20.7282
24.176	20.4009
24.26	20.0082
24.344	19.5979
24.428	19.1568
24.512	18.6226
24.596	17.8941
24.68	16.9324
24.764	15.8501
24.848	14.8501
24.932	14.1735
25.016	13.9881
25.1	14.3237
25.184	15.1207
25.268	16.2919
25.352	17.7906
25.436	19.5443
25.52	21.4262
25.604	23.254
25.688	24.761
25.772	25.6843
25.856	25.8467
25.94	25.1502
26.024	23.5565
26.108	21.0832
26.192	17.8355
26.276	13.9651
26.36	9.659058
26.444	5.144879
26.528	0.711508
26.612	-3.317453
26.696	-6.584096
26.78	-8.773050
26.864	-9.675668
26.948	-9.208406
27.028	-7.540011