Folder: Masteroppgave/Bakgrunnsmateriale/MATLAB/FTIR/ftir_data/LPE453/Mapping_121 (part 28)

File: LPE453_t61_cm-1.asc
PE IR       SPECTRUM    SPECTRUM    ASCII       PEDS        1.60
  -1
LP5AD5~1.ASC
17/05/16
19:20:41.00
17/05/16
19:20:41.00
tln
$LPE453_t0061$<tbV0>[0.0,0.0,8.0,0.0,27,1,0]
370
64

2002,4.07
MIRTGS : RIGHTBACK : INTERNAL 2
MIR : ON : INTERNAL 2
OPTKBR

0.200000
8
8.000000
FILLER
RATIO
SPECTRUM
UNLOCKED 256

DOUBLE
64
COMBINED
1
0
0

1.000000
RATIO

1
0
TRUE
51149
0
LEFT NOT FITTED RIGHT NOT FITTED 0
NONE
NONE
15600
12
4.427000
51148
TRUE
1 0 8 72 0 0 0 0

15798

#HDR
-1
-1
#GR
CM-1
%T
2.38419e-05
0.0
5000
-1.000000
4631
8
30.3524
-22.3091
#DATA
5000	0.046706
4984	-0.271415
4968	0.337886
4952	0.334358
4936	0.197124
4920	0.171160
4904	-0.167322
4888	0.057411
4872	0.651240
4856	-0.067615
4840	0.340008
4824	0.522971
4808	0.161194
4792	0.299334
4776	-0.158214
4760	-0.197339
4744	-0.450348
4728	0.915098
4712	-1.521229
4696	0.027894
4680	0.776648
4664	-0.259280
4648	0.098252
4632	0.021576
4616	0.244235
4600	-0.142145
4584	0.400352
4568	0.510311
4552	0.445103
4536	0.980281
4520	-1.183509
4504	-0.445652
4488	8.256530
4472	2.993917
4456	0.462532
4440	-0.563931
4424	-0.623154
4408	0.217008
4392	0.134944
4376	0.092458
4360	0.114679
4344	0.148797
4328	0.436091
4312	0.347661
4296	-0.133776
4280	-0.096035
4264	0.045442
4248	0.301289
4232	0.380420
4216	0.161194
4200	0.233435
4184	-0.044918
4168	0.175404
4152	0.293779
4136	-0.033879
4120	0.088930
4104	0.141763
4088	0.021576
4072	0.041484
4056	-0.002813
4040	0.177145
4024	-0.099802
4008	0.046157
3992	0.180172
3976	0.121331
3960	0.217151
3944	-0.036478
3928	0.077056
3912	-0.057220
3896	0.126075
3880	0.089073
3864	0.040507
3848	0.052237
3832	0.199651
3816	-0.053310
3800	0.005769
3784	0.024580
3768	-0.003671
3752	0.066113
3736	0.045013
3720	0.012540
3704	0.254321
3688	-0.035572
3672	0.060462
3656	0.107002
3640	0.106358
3624	0.029087
3608	0.058579
3592	0.069355
3576	-0.062727
3560	-0.022649
3544	0.071930
3528	-0.015044
3512	0.021529
3496	-0.013136
3480	-0.098061
3464	0.077772
3448	0.114631
3432	-0.137925
3416	0.011277
3400	0.021266
3384	-0.065851
3368	-0.004625
3352	-0.080490
3336	-0.112748
3320	0.012540
3304	-0.049018
3288	0.017118
3272	0.055837
3256	-0.042176
3240	0.098657
3224	0.107192
3208	0.098061
3192	0.062227
3176	0.103306
3160	0.137233
3144	0.115036
3128	0.243759
3112	-0.079107
3096	0.108885
3080	-0.106120
3064	-0.009560
3048	0.024175
3032	0.066661
3016	0.041794
3000	0.103330
2984	-0.029993
2968	0.156545
2952	0.064158
2936	-0.001764
2920	-0.073623
2904	0.016832
2888	-0.032091
2872	-0.045943
2856	0.067639
2840	0.112581
2824	-0.035309
2808	-0.027298
2792	0.003027
2776	0.006294
2760	-0.036025
2744	0.092172
2728	0.047254
2712	-0.010871
2696	-0.063300
2680	-0.016260
2664	-0.033497
2648	0.002312
2632	0.060558
2616	-0.027966
2600	-0.047707
2584	0.047254
2568	0.026369
2552	-0.090265
2536	0.061988
2520	0.001549
2504	-0.002145
2488	0.036072
2472	0.033855
2456	0.018906
2440	-0.015592
2424	-0.106954
2408	0.106000
2392	0.036644
2376	0.047588
2360	-0.008368
2344	-0.006318
2328	-0.010299
2312	0.137734
2296	0.154066
2280	0.194883
2264	0.435805
2248	0.689983
2232	1.083397
2216	1.620435
2200	2.269482
2184	3.051042
2168	4.273533
2152	5.492210
2136	7.008194
2120	8.812928
2104	10.4427
2088	12.1521
2072	14.1752
2056	15.7859
2040	17.4352
2024	19.0204
2008	20.4863
1992	21.858
1976	22.998
1960	24.0715
1944	24.9847
1928	25.9557
1912	26.597
1896	27.1987
1880	27.6544
1864	28.2123
1848	28.6116
1832	28.9538
1816	29.1204
1800	29.4461
1784	29.7324
1768	29.6637
1752	29.8762
1736	29.9722
1720	30.0632
1704	30.041
1688	30.2345
1672	30.218
1656	30.2788
1640	30.2254
1624	30.2834
1608	30.2983
1592	30.2302
1576	30.1734
1560	30.2182
1544	30.2757
1528	30.0719
1512	30.0876
1496	30.128
1480	29.9077
1464	29.9937
1448	29.8409
1432	29.8904
1416	29.8114
1400	29.5259
1384	29.6278
1368	29.629
1352	29.3388
1336	29.5057
1320	29.4598
1304	29.2397
1288	29.3239
1272	29.1869
1256	29.0527
1240	29.1555
1224	28.7942
1208	28.7182
1192	29.0729
1176	28.6009
1160	28.6018
1144	28.7071
1128	28.3019
1112	28.2346
1096	28.4831
1080	27.9732
1064	27.8277
1048	27.6779
1032	27.6854
1016	27.6256
1000	27.5578
984	 26.9864
968	 27.0998
952	 26.8674
936	 26.1581
920	 26.412
904	 26.2261
888	 25.6702
872	 25.6355
856	 25.5641
840	 24.9209
824	 24.8932
808	 24.6656
792	 24.0313
776	 24.3584
760	 23.7717
744	 23.3772
728	 23.2232
712	 22.9084
696	 22.3294
680	 22.1263
664	 21.5401
648	 21.4746
632	 20.7757
616	 20.2198
600	 19.6687
584	 20.145
568	 19.1138
552	 18.8089
536	 19.1679
520	 18.2112
504	 17.4103
488	 17.7805
472	 16.5697
456	 15.9488
440	 15.4373
424	 15.2141
408	 12.308
392	 13.4574
376	 11.4033
370	 -22.3091

File: LPE453_t62.asc
PE IR       SPECTRUM    SPECTRUM    ASCII       PEDS        1.60
  -1
LPCBA1~1.ASC
17/05/16
19:25:17.00
17/05/16
19:25:44.00
tln
$LPE453_t0062$<tbV0>[-2.6,0.0,8.0,0.0,27,1,0]
27.028
64

2002,4.07
MIRTGS : RIGHTBACK : INTERNAL 2
MIR : ON : INTERNAL 2
OPTKBR

0.200000
8
8.000000
FILLER
RATIO
SPECTRUM
UNLOCKED 256

DOUBLE
64
COMBINED
1
0
0

0.002000
RATIO

1
0
TRUE
51149
0
LEFT NOT FITTED RIGHT NOT FITTED 0
NONE
NONE
15600
12
4.427000
51148
TRUE
1 0 8 72 0 0 0 0

15798

#HDR
-1
-1
#GR
µM
%T
2.38419e-05
0.0
2.000000
0.002000
12515
8
32.0322
-6.504358
#DATA
2.000000	 -0.057744
2.084000	 0.722575
2.168000	 0.925872
2.252000	 -0.714713
2.336000	 0.028269
2.420000	 0.118585
2.504000	 0.179056
2.588000	 0.132904
2.672000	 0.092636
2.756000	 0.054746
2.840000	 0.148838
2.924000	 0.146091
3.008000	 0.092666
3.092000	 0.058682
3.176000	 0.062833
3.260000	 0.074691
3.344000	 0.191907
3.428000	 -0.052783
3.512000	 -0.008490
3.596000	 0.053018
3.680000	 0.070287
3.764000	 0.034715
3.848000	 0.064983
3.932000	 0.023817
4.016000	 0.088361
4.100000	 0.110323
4.184000	 0.139043
4.268000	 0.148347
4.352000	 0.176183
4.436000	 0.839618
4.520000	 2.194825
4.604000	 4.803802
4.688000	 8.518589
4.772000	 12.8283
4.856000	 17.0542
4.940000	 20.7431
5.024000	 23.6695
5.108000	 25.9993
5.192000	 27.7028
5.276000	 29.0385
5.359999	 29.7644
5.444000	 30.5662
5.528000	 31.0108
5.612000	 31.309
5.696000	 31.5627
5.780000	 31.5599
5.864000	 31.9625
5.948000	 31.7256
6.032000	 31.995
6.116000	 31.7135
6.200000	 31.9714
6.284000	 31.8162
6.368000	 31.9744
6.452000	 31.9574
6.536000	 31.855
6.620000	 31.9073
6.704000	 31.4827
6.788000	 31.7222
6.872000	 31.6909
6.956000	 31.4649
7.040000	 31.6738
7.124000	 31.5266
7.208000	 31.2864
7.292000	 31.5115
7.376000	 31.3106
7.460000	 31.0195
7.544000	 31.424
7.628000	 31.1734
7.712000	 30.8569
7.796000	 30.9174
7.880000	 31.2164
7.964000	 31.0376
8.048000	 30.5803
8.132000	 30.8821
8.216000	 30.9273
8.300000	 30.5723
8.384000	 30.4822
8.468000	 30.6392
8.552000	 30.8214
8.635999	 30.4418
8.719999	 30.2065
8.804000	 30.3054
8.888000	 30.4715
8.972000	 30.3635
9.056000	 29.9328
9.140000	 29.5913
9.224000	 30.1106
9.308000	 30.0652
9.391999	 29.7222
9.475999	 29.4557
9.560000	 29.1615
9.644000	 29.3424
9.728000	 29.4907
9.812000	 29.733
9.896000	 29.2229
9.980000	 28.8615
10.064	28.9127
10.148	28.8894
10.232	29.1124
10.316	29.0011
10.4	28.7117
10.484	28.4701
10.568	28.1213
10.652	28.1656
10.736	28.4038
10.82	28.5391
10.904	28.4746
10.988	28.0492
11.072	27.5756
11.156	27.6192
11.24	27.5703
11.324	27.6767
11.408	27.779
11.492	27.7266
11.576	27.5546
11.66	27.2243
11.744	27.0245
11.828	26.8995
11.912	26.9228
11.996	26.978
12.08	26.9739
12.164	26.9486
12.248	26.7622
12.332	26.5454
12.416	26.2657
12.5	25.9821
12.584	25.9537
12.668	25.9902
12.752	26.0264
12.836	26.0704
12.92	26.0924
13.004	25.9897
13.088	25.9284
13.172	25.6109
13.256	25.2773
13.34	25.2407
13.424	25.1508
13.508	25.2825
13.592	25.4302
13.676	25.3884
13.76	25.3338
13.844	25.3334
13.928	25.0996
14.012	24.707
14.096	24.4644
14.18	24.2106
14.264	23.9152
14.348	23.7411
14.432	23.7959
14.516	23.8552
14.6	23.9144
14.684	24.1624
14.768	24.3215
14.852	24.2753
14.936	24.0754
15.02	23.7553
15.104	23.5057
15.188	23.3853
15.272	23.3021
15.356	23.2027
15.44	23.125
15.524	23.0782
15.608	22.9521
15.692	22.8174
15.776	22.8368
15.86	22.9536
15.944	23.1071
16.028	23.2232
16.112	23.1315
16.196	22.8611
16.28	22.5715
16.364	22.3004
16.448	22.1043
16.532	22.0526
16.616	22.001
16.7	21.7716
16.784	21.4474
16.868	21.2415
16.952	21.2345
17.036	21.3261
17.12	21.3656
17.204	21.339
17.288	21.4105
17.372	21.7005
17.456	22.0797
17.54	22.268
17.624	22.1237
17.708	21.7686
17.792	21.4236
17.876	21.1668
17.96	20.9072
18.044	20.589
18.128	20.3396
18.212	20.3526
18.296	20.653
18.38	21.0334
18.464	21.2488
18.548	21.2321
18.632	21.1146
18.716	21.0637
18.8	21.145
18.884	21.2896
18.968	21.3654
19.052	21.2777
19.136	21.0586
19.22	20.8378
19.304	20.6989
19.388	20.5841
19.472	20.3736
19.556	20.049
19.64	19.7358
19.724	19.5792
19.808	19.6107
19.892	19.7436
19.976	19.8522
20.06	19.8304
20.144	19.6236
20.228	19.2568
20.312	18.8452
20.396	18.5398
20.48	18.4291
20.564	18.4788
20.648	18.5804
20.732	18.6477
20.816	18.6633
20.9	18.6589
20.984	18.6588
21.068	18.6649
21.152	18.6644
21.236	18.653
21.32	18.6322
21.404	18.5922
21.488	18.4982
21.572	18.305
21.656	17.9901
21.74	17.5817
21.824	17.1716
21.908	16.8914
21.992	16.8471
22.076	17.0681
22.16	17.495
22.244	18.02
22.328	18.5316
22.412	18.9516
22.496	19.2411
22.58	19.393
22.664	19.4238
22.748	19.358
22.832	19.1991
22.916	18.9267
23	18.5264
23.084	18.009
23.168	17.4515
23.252	16.9854
23.336	16.7455
23.42	16.7665
23.504	16.9556
23.588	17.099
23.672	16.9678
23.756	16.4429
23.84	15.5918
23.924	14.6781
24.008	14.0388
24.092	13.9286
24.176	14.3876
24.26	15.1931
24.344	15.9216
24.428	16.1562
24.512	15.5971
24.596	14.2339
24.68	12.3726
24.764	10.5394
24.848	9.253468
24.932	8.892730
25.016	9.515776
25.1	10.835
25.184	12.4235
25.268	13.925
25.352	15.1481
25.436	16.0392
25.52	16.6412
25.604	17.0187
25.688	17.2366
25.772	17.3315
25.856	17.3175
25.94	17.2474
26.024	17.2144
26.108	17.3269
26.192	17.7124
26.276	18.4874
26.36	19.7413
26.444	21.429
26.528	23.2589
26.612	24.721
26.696	25.0625
26.78	23.4812
26.864	19.452
26.948	13.0139
27.028	5.348277

File: LPE453_t62_cm-1.asc
PE IR       SPECTRUM    SPECTRUM    ASCII       PEDS        1.60
  -1
LP5A50~1.ASC
17/05/16
19:25:17.00
17/05/16
19:25:17.00
tln
$LPE453_t0062$<tbV0>[-2.6,0.0,8.0,0.0,27,1,0]
370
64

2002,4.07
MIRTGS : RIGHTBACK : INTERNAL 2
MIR : ON : INTERNAL 2
OPTKBR

0.200000
8
8.000000
FILLER
RATIO
SPECTRUM
UNLOCKED 256

DOUBLE
64
COMBINED
1
0
0

1.000000
RATIO

1
0
TRUE
51149
0
LEFT NOT FITTED RIGHT NOT FITTED 0
NONE
NONE
15600
12
4.427000
51148
TRUE
1 0 8 72 0 0 0 0

15798

#HDR
-1
-1
#GR
CM-1
%T
2.38419e-05
0.0
5000
-1.000000
4631
8
32.0322
-6.486630
#DATA
5000	-0.057744
4984	0.453901
4968	0.060367
4952	0.448775
4936	0.090646
4920	-0.008606
4904	0.171923
4888	-0.230407
4872	0.525808
4856	0.209474
4840	0.431561
4824	-0.261712
4808	0.523591
4792	0.293803
4776	0.195980
4760	0.675106
4744	0.169706
4728	-1.200985
4712	0.635051
4696	-0.044107
4680	1.882672
4664	0.353050
4648	-0.245189
4632	0.575399
4616	0.976943
4600	0.481200
4584	0.355243
4568	0.873780
4552	0.712823
4536	-0.163578
4520	-0.510168
4504	-1.226902
4488	11.4624
4472	1.906681
4456	-0.928544
4440	-0.711870
4424	-0.814437
4408	0.013136
4392	0.476002
4376	1.178908
4360	0.032591
4344	0.723266
4328	0.272798
4312	0.702238
4296	-0.104022
4280	0.078797
4264	-0.089430
4248	0.110530
4232	-0.105333
4216	0.149941
4200	0.354671
4184	0.284051
4168	0.397467
4152	0.153732
4136	0.377631
4120	0.308394
4104	0.231623
4088	-0.019288
4072	0.153183
4056	0.145673
4040	-0.084209
4024	-0.101304
4008	0.064277
3992	0.138092
3976	0.098061
3960	0.093865
3944	0.171470
3928	-0.014472
3912	0.116062
3896	-0.019240
3880	0.064730
3864	0.132870
3848	0.059747
3832	-0.032377
3816	0.045871
3800	0.119280
3784	0.033950
3768	0.286865
3752	0.064587
3736	0.105619
3720	0.061392
3704	0.083112
3688	-0.073289
3672	-0.095486
3656	0.034570
3640	0.024271
3624	-0.107240
3608	0.091528
3592	-0.201654
3576	0.083947
3560	0.084519
3544	0.107383
3528	-0.047421
3512	0.173115
3496	0.003552
3480	0.018668
3464	0.189709
3448	0.173354
3432	-0.026035
3416	0.060153
3400	-0.018310
3384	-0.010943
3368	0.068783
3352	0.105714
3336	-0.027132
3320	0.140595
3304	0.158572
3288	0.078845
3272	0.023674
3256	-0.093030
3240	0.097632
3224	0.235009
3208	0.057291
3192	-0.067877
3176	0.125861
3160	0.000476
3144	0.060248
3128	-0.172901
3112	-0.163412
3096	-0.005006
3080	-0.006794
3064	0.051546
3048	0.143933
3032	-0.048089
3016	-0.022506
3000	0.081062
2984	0.187444
2968	0.111794
2952	-0.006651
2936	0.105619
2920	-0.065159
2904	-0.038886
2888	0.084710
2872	-0.018095
2856	0.009274
2840	0.086140
2824	-0.096368
2808	0.141739
2792	0.059890
2776	0.011277
2760	-0.014281
2744	0.041580
2728	0.026798
2712	0.088047
2696	0.088667
2680	-0.034737
2664	-0.008273
2648	0.045776
2632	0.058341
2616	0.107026
2600	0.050187
2584	-0.047063
2568	0.049161
2552	0.021386
2536	-0.049734
2520	0.080752
2504	-0.083923
2488	0.064611
2472	-0.010108
2456	-0.052142
2440	0.109577
2424	0.000739
2408	-0.112700
2392	0.215601
2376	0.087547
2360	0.088524
2344	0.149774
2328	0.164985
2312	0.189137
2296	0.223088
2280	0.365710
2264	0.655794
2248	0.951576
2232	1.316308
2216	2.035021
2200	2.910494
2184	3.973507
2168	5.074930
2152	6.407904
2136	8.222675
2120	10.031
2104	11.9199
2088	13.7864
2072	15.6005
2056	17.4488
2040	19.0856
2024	20.772
2008	22.1717
1992	23.5498
1976	24.7457
1960	25.8569
1944	26.8474
1928	27.6205
1912	28.2945
1896	29.0181
1880	29.4835
1864	29.8051
1848	30.3996
1832	30.5965
1816	30.8821
1800	31.1601
1784	31.3161
1768	31.4778
1752	31.6283
1736	31.5562
1720	31.7678
1704	31.9707
1688	31.8591
1672	31.7888
1656	31.9807
1640	31.7391
1624	31.9913
1608	31.9704
1592	31.8157
1576	31.8867
1560	32.0104
1544	31.8254
1528	31.8353
1512	31.9073
1496	31.5541
1480	31.5785
1464	31.8492
1448	31.5372
1432	31.4872
1416	31.723
1400	31.3972
1384	31.3034
1368	31.5327
1352	31.1899
1336	31.048
1320	31.3913
1304	31.0371
1288	30.7576
1272	31.2233
1256	31.0503
1240	30.5456
1224	31.021
1208	30.6982
1192	30.4867
1176	30.8008
1160	30.5386
1144	30.2351
1128	30.4
1112	30.3084
1096	29.5596
1080	30.1546
1064	29.7012
1048	29.2182
1032	29.4173
1016	29.6671
1000	28.8435
984	 28.9056
968	 28.961
952	 28.3628
936	 28.1824
920	 28.4966
904	 27.593
888	 27.5801
872	 27.7578
856	 27.146
840	 26.914
824	 26.9773
808	 26.4147
792	 25.9745
776	 26.0968
760	 25.6882
744	 25.1538
728	 25.3395
712	 24.5967
696	 23.7362
680	 24.2253
664	 23.6169
648	 23.1297
632	 22.8968
616	 22.7283
600	 21.885
584	 21.3652
568	 22.1809
552	 20.3628
536	 21.087
520	 20.8151
504	 19.6583
488	 18.4283
472	 18.6609
456	 16.8543
440	 19.3826
424	 17.0978
408	 15.6224
392	 16.5835
376	 24.5069
370	 5.348277

File: LPE453_t63.asc
PE IR       SPECTRUM    SPECTRUM    ASCII       PEDS        1.60
  -1
LPCBA5~1.ASC
17/05/16
19:29:54.00
17/05/16
19:30:20.00
tln
$LPE453_t0063$<tbV0>[-5.2,0.0,8.0,0.0,27,1,0]
27.028
64

2002,4.07
MIRTGS : RIGHTBACK : INTERNAL 2
MIR : ON : INTERNAL 2
OPTKBR

0.200000
8
8.000000
FILLER
RATIO
SPECTRUM
UNLOCKED 256

DOUBLE
64
COMBINED
1
0
0

0.002000
RATIO

1
0
TRUE
51149
0
LEFT NOT FITTED RIGHT NOT FITTED 0
NONE
NONE
15600
12
4.427000
51148
TRUE
1 0 8 72 0 0 0 0

15798

#HDR
-1
-1
#GR
µM
%T
2.38419e-05
0.0
2.000000
0.002000
12515
8
49.1889
-1.451560
#DATA
2.000000	 -0.086164
2.084000	 -0.145342
2.168000	 0.609013
2.252000	 -1.300471
2.336000	 0.169230
2.420000	 0.133125
2.504000	 0.083603
2.588000	 -0.016105
2.672000	 0.128232
2.756000	 -0.004657
2.840000	 0.130343
2.924000	 0.143833
3.008000	 0.219502
3.092000	 -0.029684
3.176000	 0.051860
3.260000	 0.058260
3.344000	 -0.128980
3.428000	 0.104605
3.512000	 0.102438
3.596000	 -0.124578
3.680000	 0.039872
3.764000	 0.142720
3.848000	 0.071330
3.932000	 -0.002083
4.016000	 0.035588
4.100000	 0.075513
4.184000	 0.047994
4.268000	 0.032409
4.352000	 0.246897
4.436000	 0.992521
4.520000	 2.577091
4.604000	 5.355517
4.688000	 9.431917
4.772000	 13.9723
4.856000	 18.1891
4.940000	 22.1898
5.024000	 25.0365
5.108000	 27.4837
5.192000	 29.0387
5.276000	 30.2881
5.359999	 31.3687
5.444000	 31.8927
5.528000	 32.3504
5.612000	 32.7444
5.696000	 32.824
5.780000	 33.1023
5.864000	 33.1279
5.948000	 33.2991
6.032000	 33.1628
6.116000	 33.3385
6.200000	 33.411
6.284000	 33.0972
6.368000	 33.3613
6.452000	 33.0693
6.536000	 33.2879
6.620000	 33.2153
6.704000	 33.0833
6.788000	 33.2866
6.872000	 32.9375
6.956000	 32.9084
7.040000	 33.2788
7.124000	 32.8513
7.208000	 32.6695
7.292000	 33.0478
7.376000	 32.6313
7.460000	 32.4338
7.544000	 32.7266
7.628000	 32.6456
7.712000	 32.155
7.796000	 32.2795
7.880000	 32.6286
7.964000	 32.2017
8.048000	 31.9216
8.132000	 32.2661
8.216000	 32.3754
8.300000	 32.0833
8.384000	 31.6274
8.468000	 31.8704
8.552000	 32.3309
8.635999	 32.1918
8.719999	 31.5638
8.804000	 31.4206
8.888000	 31.8293
8.972000	 32.0614
9.056000	 31.9159
9.140000	 31.0417
9.224000	 31.3564
9.308000	 31.3613
9.391999	 31.6642
9.475999	 31.3952
9.560000	 30.9833
9.644000	 30.7185
9.728000	 30.9391
9.812000	 31.0913
9.896000	 31.1003
9.980000	 31.181
10.064	30.5586
10.148	30.1145
10.232	30.2038
10.316	30.4858
10.4	30.6774
10.484	30.4842
10.568	30.1468
10.652	29.8742
10.736	29.8557
10.82	29.846
10.904	29.9126
10.988	29.9803
11.072	29.6607
11.156	29.6501
11.24	29.3756
11.324	29.032
11.408	28.7431
11.492	28.9771
11.576	29.2739
11.66	29.4959
11.744	29.4063
11.828	29.1018
11.912	28.7845
11.996	28.2094
12.08	27.9022
12.164	27.9738
12.248	28.1832
12.332	28.3103
12.416	28.663
12.5	28.8116
12.584	28.5096
12.668	27.743
12.752	27.2427
12.836	27.3508
12.92	27.5031
13.004	27.4159
13.088	27.411
13.172	27.5952
13.256	28.098
13.34	28.2099
13.424	27.813
13.508	27.4243
13.592	26.9956
13.676	26.7127
13.76	26.5365
13.844	26.2396
13.928	26.2206
14.012	26.4764
14.096	26.6716
14.18	26.7553
14.264	26.649
14.348	26.4425
14.432	26.2968
14.516	26.0908
14.6	25.8149
14.684	25.562
14.768	25.3456
14.852	25.2649
14.936	25.4058
15.02	25.6569
15.104	25.7619
15.188	25.6644
15.272	25.5663
15.356	25.5697
15.44	25.5596
15.524	25.4428
15.608	25.2801
15.692	25.0948
15.776	24.8294
15.86	24.5295
15.944	24.2778
16.028	24.1176
16.112	24.0518
16.196	24.0182
16.28	24.0315
16.364	24.2324
16.448	24.6194
16.532	24.9137
16.616	24.8416
16.7	24.4628
16.784	24.0981
16.868	23.9577
16.952	23.9723
17.036	23.9529
17.12	23.7749
17.204	23.443
17.288	23.1038
17.372	22.9021
17.456	22.8121
17.54	22.711
17.624	22.583
17.708	22.5209
17.792	22.5644
17.876	22.6237
17.96	22.5683
18.044	22.3844
18.128	22.2541
18.212	22.3709
18.296	22.6781
18.38	22.8839
18.464	22.7785
18.548	22.4551
18.632	22.1621
18.716	22.0253
18.8	21.9841
18.884	21.9313
18.968	21.843
19.052	21.7602
19.136	21.6861
19.22	21.5809
19.304	21.4534
19.388	21.3812
19.472	21.3977
19.556	21.4156
19.64	21.3162
19.724	21.0987
19.808	20.8992
19.892	20.8515
19.976	20.9688
20.06	21.1688
20.144	21.3773
20.228	21.569
20.312	21.7148
20.396	21.7444
20.48	21.5931
20.564	21.2881
20.648	20.9559
20.732	20.7377
20.816	20.6807
20.9	20.7106
20.984	20.7063
21.068	20.5855
21.152	20.3348
21.236	19.9896
21.32	19.5964
21.404	19.2022
21.488	18.8606
21.572	18.6294
21.656	18.5615
21.74	18.6809
21.824	18.9619
21.908	19.317
21.992	19.6132
22.076	19.7177
22.16	19.5581
22.244	19.1896
22.328	18.7745
22.412	18.5012
22.496	18.493
22.58	18.7312
22.664	19.0917
22.748	19.4152
22.832	19.5919
22.916	19.6049
23	19.5127
23.084	19.3871
23.168	19.2765
23.252	19.1657
23.336	18.9731
23.42	18.6458
23.504	18.1527
23.588	17.5354
23.672	16.9205
23.756	16.4995
23.84	16.4537
23.924	16.8944
24.008	17.8371
24.092	19.2062
24.176	20.8467
24.26	22.5337
24.344	24.031
24.428	25.1713
24.512	25.8074
24.596	25.8819
24.68	25.2681
24.764	23.7022
24.848	20.9086
24.932	16.8315
25.016	11.8639
25.1	6.828891
25.184	2.800989
25.268	0.625486
25.352	0.575727
25.436	2.314441
25.52	4.991156
25.604	7.614343
25.688	9.323731
25.772	9.742196
25.856	9.106355
25.94	8.181978
26.024	8.092309
26.108	9.889461
26.192	14.1321
26.276	20.6595
26.36	28.5825
26.444	36.5451
26.528	43.1664
26.612	47.5054
26.696	49.168
26.78	48.3561
26.864	45.7175
26.948	42.066
27.028	38.3532

File: LPE453_t63_cm-1.asc
PE IR       SPECTRUM    SPECTRUM    ASCII       PEDS        1.60
  -1
LP5AD0~1.ASC
17/05/16
19:29:54.00
17/05/16
19:29:54.00
tln
$LPE453_t0063$<tbV0>[-5.2,0.0,8.0,0.0,27,1,0]
370
64

2002,4.07
MIRTGS : RIGHTBACK : INTERNAL 2
MIR : ON : INTERNAL 2
OPTKBR

0.200000
8
8.000000
FILLER
RATIO
SPECTRUM
UNLOCKED 256

DOUBLE
64
COMBINED
1
0
0

1.000000
RATIO

1
0
TRUE
51149
0
LEFT NOT FITTED RIGHT NOT FITTED 0
NONE
NONE
15600
12
4.427000
51148
TRUE
1 0 8 72 0 0 0 0

15798

#HDR
-1
-1
#GR
CM-1
%T
2.38419e-05
0.0
5000
-1.000000
4631
8
49.0439
-1.534128
#DATA
5000	-0.086164
4984	-0.057578
4968	0.042510
4952	0.114035
4936	-0.079083
4920	0.273060
4904	0.211524
4888	0.547671
4872	-0.219345
4856	0.002217
4840	0.392818
4824	0.182557
4808	0.070548
4792	0.509381
4776	-0.079774
4760	0.059628
4744	0.728988
4728	-1.081013
4712	2.271080
4696	-0.685071
4680	-1.233935
4664	0.519061
4648	0.130248
4632	0.700688
4616	0.508069
4600	0.134181
4584	-0.808310
4568	-0.426959
4552	-0.282073
4536	-0.722169
4520	-0.219917
4504	-0.002670
4488	5.033087
4472	1.535654
4456	-0.244283
4440	-1.277995
4424	-0.084018
4408	-0.746703
4392	-0.259280
4376	-0.300073
4360	-0.230956
4344	-0.113272
4328	0.513339
4312	0.103402
4296	0.492238
4280	0.165104
4264	0.175952
4248	-0.035429
4232	0.367784
4216	0.030612
4200	-0.048851
4184	-0.063180
4168	0.072073
4152	0.026774
4136	0.106453
4120	0.261592
4104	0.270962
4088	0.156927
4072	0.015258
4056	-0.110960
4040	0.163197
4024	-0.032567
4008	-0.012922
3992	0.013875
3976	0.293874
3960	-0.037550
3944	0.041842
3928	-0.199174
3912	-0.102448
3896	0.100922
3880	-0.052309
3864	-0.016045
3848	-0.006723
3832	0.051689
3816	0.144314
3800	-0.033473
3784	0.087404
3768	-0.010323
3752	0.198221
3736	0.060415
3720	-0.023484
3704	0.201106
3688	0.080013
3672	-0.080871
3656	0.025606
3640	0.129532
3624	-0.075531
3608	0.019288
3592	0.108051
3576	-0.014209
3560	0.152897
3544	0.083971
3528	0.081419
3512	-0.078153
3496	-0.062608
3480	0.188851
3464	0.327086
3448	0.096678
3432	0.125050
3416	0.076389
3400	-0.093412
3384	-0.005984
3368	-0.031042
3352	0.156521
3336	0.010442
3320	0.127339
3304	0.040245
3288	0.063419
3272	-0.127863
3256	0.048708
3240	0.065112
3224	0.284552
3208	0.081586
3192	0.077915
3176	-0.072264
3160	-0.092244
3144	0.009799
3128	0.188398
3112	-0.028944
3096	0.071811
3080	0.048232
3064	0.046753
3048	0.126290
3032	0.040054
3016	0.064206
3000	-0.000476
2984	-0.020098
2968	-0.030469
2952	0.008916
2936	0.012254
2920	0.108814
2904	0.137066
2888	-0.055503
2872	-0.019979
2856	-0.023698
2840	0.119662
2824	0.134038
2808	-0.064301
2792	-0.007700
2776	-0.051259
2760	0.023579
2744	0.132393
2728	0.120234
2712	-0.048708
2696	-0.096273
2680	-0.033903
2664	0.171732
2648	0.095248
2632	0.046730
2616	-0.024127
2600	0.072193
2584	0.017237
2568	0.090408
2552	-0.005602
2536	-0.005435
2520	0.146460
2504	0.093126
2488	0.020694
2472	-0.095462
2456	0.001692
2440	0.065302
2424	0.061440
2408	-0.121450
2392	0.024342
2376	0.142979
2360	-0.071692
2344	0.034141
2328	0.114607
2312	0.130581
2296	0.299882
2280	0.580716
2264	0.742459
2248	1.206445
2232	1.774215
2216	2.392911
2200	3.288793
2184	4.433107
2168	5.772876
2152	7.196760
2136	9.108424
2120	11.0134
2104	12.9616
2088	14.8145
2072	16.8681
2056	18.5947
2040	20.4064
2024	22.2165
2008	23.6962
1992	24.9241
1976	26.1106
1960	27.35
1944	28.1142
1928	28.9492
1912	29.7678
1896	30.2773
1880	30.8275
1864	31.3956
1848	31.6207
1832	32.0359
1816	32.2993
1800	32.4145
1784	32.6578
1768	32.9625
1752	32.7947
1736	32.9802
1720	33.3148
1704	33.1048
1688	33.1515
1672	33.4291
1656	33.1289
1640	33.1567
1624	33.5458
1608	33.2357
1592	33.0983
1576	33.2905
1560	33.3688
1544	33.1256
1528	33.3334
1512	33.2609
1496	33.0727
1480	33.1478
1464	33.1861
1448	32.542
1432	33.141
1416	33.2676
1400	32.6565
1384	32.7008
1368	33.0432
1352	32.5169
1336	32.5282
1320	32.7217
1304	32.3572
1288	32.1488
1272	32.5903
1256	32.2227
1240	31.8993
1224	32.4035
1208	32.1935
1192	31.6188
1176	32.0611
1160	32.2907
1144	31.4736
1128	31.7322
1112	32.0699
1096	31.1392
1080	31.3633
1064	31.6755
1048	31.0492
1032	30.7991
1016	31.1101
1000	31.0884
984	 30.0783
968	 30.5321
952	 30.4347
936	 29.8838
920	 29.8546
904	 29.6866
888	 29.2829
872	 28.8697
856	 29.5175
840	 28.8254
824	 27.9167
808	 28.4741
792	 28.1579
776	 27.4785
760	 27.5369
744	 27.7297
728	 26.6015
712	 26.5667
696	 26.4037
680	 25.5
664	 25.7376
648	 25.565
632	 24.66
616	 24.011
600	 24.6308
584	 23.7643
568	 22.6089
552	 22.2602
536	 22.1054
520	 21.5647
504	 20.8583
488	 21.5578
472	 20.2019
456	 19.4054
440	 19.3466
424	 17.5587
408	 25.7978
392	 4.668831
376	 46.8762
370	 38.3532