Folder: Masteroppgave/Bakgrunnsmateriale/MATLAB/FTIR/ftir_data/LPE453/Mapping_121 (part 10)

File: LPE453_t16_cm-1.asc
PE IR       SPECTRUM    SPECTRUM    ASCII       PEDS        1.60
  -1
LPE75A~1.ASC
17/05/16
15:37:50.00
17/05/16
15:37:50.00
tln
$LPE453_t0016$<tbV0>[2.6,-10.4,8.0,0.0,27,1,0]
370
64

2002,4.07
MIRTGS : RIGHTBACK : INTERNAL 2
MIR : ON : INTERNAL 2
OPTKBR

0.200000
8
8.000000
FILLER
RATIO
SPECTRUM
UNLOCKED 256

DOUBLE
64
COMBINED
1
0
0

1.000000
RATIO

1
0
TRUE
51149
0
LEFT NOT FITTED RIGHT NOT FITTED 0
NONE
NONE
15600
12
4.427000
51148
TRUE
1 0 8 72 0 0 0 0

15798

#HDR
-1
-1
#GR
CM-1
%T
2.38419e-05
0.0
5000
-1.000000
4631
8
30.7436
-24.5569
#DATA
5000	0.021910
4984	0.117945
4968	-0.295209
4952	0.090575
4936	-0.049757
4920	0.446081
4904	0.596213
4888	0.734090
4872	-0.118827
4856	0.224804
4840	0.691938
4824	-0.005888
4808	0.331091
4792	0.181031
4776	0.018596
4760	0.145339
4744	0.069928
4728	0.029420
4712	-0.278735
4696	0.420784
4680	0.671362
4664	-0.080418
4648	0.316333
4632	0.002121
4616	0.656580
4600	-0.105977
4584	0.352263
4568	0.182080
4552	-1.007747
4536	-0.296926
4520	-1.307940
4504	3.254961
4488	0.209188
4472	0.548291
4456	-0.035142
4440	0.471401
4424	0.332021
4408	0.644755
4392	0.299143
4376	0.522732
4360	0.314235
4344	0.306272
4328	0.229072
4312	-0.100541
4296	0.077867
4280	0.189113
4264	-0.080037
4248	0.316286
4232	0.114035
4216	0.241661
4200	0.333547
4184	0.606441
4168	-0.266170
4152	0.043058
4136	-0.146889
4120	0.042700
4104	0.371623
4088	0.039887
4072	0.066852
4056	0.185227
4040	0.119256
4024	-0.012612
4008	0.289463
3992	0.108170
3976	0.054407
3960	0.203943
3944	0.294947
3928	0.087976
3912	-0.021100
3896	-0.008702
3880	0.160241
3864	0.083565
3848	0.192642
3832	0.040245
3816	0.030016
3800	0.134491
3784	0.039482
3768	0.062465
3752	0.127696
3736	0.119781
3720	0.265669
3704	0.078129
3688	-0.050354
3672	0.159311
3656	-0.089359
3640	0.022768
3624	0.141716
3608	-0.243115
3592	0.076866
3576	-0.085091
3560	-0.018310
3544	0.189781
3528	-0.017142
3512	0.128412
3496	0.255942
3480	0.155234
3464	-0.171017
3448	0.025224
3432	0.041413
3416	0.061893
3400	0.103044
3384	0.068140
3368	-0.000023
3352	0.175213
3336	0.252008
3320	0.147151
3304	0.051069
3288	0.054955
3272	0.000834
3256	0.070285
3240	-0.061130
3224	0.130248
3208	-0.089502
3192	-0.074481
3176	0.091624
3160	0.039672
3144	-0.001811
3128	0.169086
3112	0.107884
3096	-0.011467
3080	0.155639
3064	-0.005292
3048	0.177121
3032	0.006937
3016	0.079751
3000	0.111722
2984	0.194382
2968	0.022029
2952	0.106716
2936	-0.057840
2920	0.173354
2904	0.127100
2888	0.051450
2872	-0.002813
2856	0.071763
2840	-0.001335
2824	0.038242
2808	-0.018501
2792	0.053858
2776	0.034594
2760	0.040173
2744	-0.052404
2728	0.012159
2712	-0.024867
2696	0.057578
2680	0.062203
2664	0.016713
2648	0.016331
2632	-0.020027
2616	0.002574
2600	0.060606
2584	0.044131
2568	0.024890
2552	0.072216
2536	-0.017261
2520	0.055217
2504	0.056242
2488	0.000667
2472	0.145244
2456	0.002384
2440	0.091886
2424	-0.134396
2408	0.014424
2392	0.022625
2376	-0.009703
2360	0.105500
2344	0.048470
2328	-0.075459
2312	0.022840
2296	0.117754
2280	0.193214
2264	0.361609
2248	0.529122
2232	0.811052
2216	1.271939
2200	1.988315
2184	2.773666
2168	3.759050
2152	4.978442
2136	6.671047
2120	8.109521
2104	9.791016
2088	11.5804
2072	13.3172
2056	15.2912
2040	16.7764
2024	18.5545
2008	19.8954
1992	21.3813
1976	22.5884
1960	23.6854
1944	24.8097
1928	25.567
1912	26.4073
1896	27.0063
1880	27.5779
1864	28.0777
1848	28.5744
1832	28.8549
1816	29.1522
1800	29.5521
1784	29.6798
1768	29.8753
1752	30.1
1736	30.1279
1720	30.1874
1704	30.4098
1688	30.5078
1672	30.4149
1656	30.6772
1640	30.5931
1624	30.4785
1608	30.3308
1592	30.1984
1576	30.506
1560	30.6299
1544	30.6132
1528	30.4137
1512	30.4703
1496	30.3333
1480	30.1261
1464	30.3487
1448	29.875
1432	29.9609
1416	29.9613
1400	30.0056
1384	30.0069
1368	29.9182
1352	29.8209
1336	29.7085
1320	29.6684
1304	29.6618
1288	29.4974
1272	29.4754
1256	29.3872
1240	29.3583
1224	29.3255
1208	29.2078
1192	29.1095
1176	29.1776
1160	28.8801
1144	28.7996
1128	28.9078
1112	28.7688
1096	28.5246
1080	28.3884
1064	28.4333
1048	28.3951
1032	28.0674
1016	28.3208
1000	27.7866
984	 27.5712
968	 27.7097
952	 27.2357
936	 27.1247
920	 26.9845
904	 27.0106
888	 26.4729
872	 26.3236
856	 26.0625
840	 25.9089
824	 25.7167
808	 25.5134
792	 25.1336
776	 25.0126
760	 24.3265
744	 24.7832
728	 24.2268
712	 23.3749
696	 22.953
680	 23.153
664	 22.5754
648	 22.3732
632	 22.6229
616	 21.3583
600	 21.3822
584	 20.9774
568	 19.5315
552	 20.2301
536	 19.5128
520	 18.6048
504	 18.677
488	 18.8745
472	 17.2143
456	 16.7106
440	 17.31
424	 10.3391
408	 18.2103
392	 13.9079
376	 -17.0977
370	 27.2699

File: LPE453_t17.asc
PE IR       SPECTRUM    SPECTRUM    ASCII       PEDS        1.60
  -1
LPD795~1.ASC
17/05/16
15:42:27.00
17/05/16
15:42:53.00
tln
$LPE453_t0017$<tbV0>[0.0,-10.4,8.0,0.0,27,1,0]
27.028
64

2002,4.07
MIRTGS : RIGHTBACK : INTERNAL 2
MIR : ON : INTERNAL 2
OPTKBR

0.200000
8
8.000000
FILLER
RATIO
SPECTRUM
UNLOCKED 256

DOUBLE
64
COMBINED
1
0
0

0.002000
RATIO

1
0
TRUE
51149
0
LEFT NOT FITTED RIGHT NOT FITTED 0
NONE
NONE
15600
12
4.427000
51148
TRUE
1 0 8 72 0 0 0 0

15798

#HDR
-1
-1
#GR
µM
%T
2.38419e-05
0.0
2.000000
0.002000
12515
8
36.4413
-6.108853
#DATA
2.000000	 -0.100755
2.084000	 0.065053
2.168000	 -0.413719
2.252000	 0.464891
2.336000	 0.097065
2.420000	 0.075504
2.504000	 0.052350
2.588000	 0.143237
2.672000	 -0.104385
2.756000	 0.189308
2.840000	 0.179693
2.924000	 -0.023460
3.008000	 -0.006516
3.092000	 -0.051091
3.176000	 0.075668
3.260000	 -0.058240
3.344000	 0.028595
3.428000	 0.018876
3.512000	 0.128894
3.596000	 0.085426
3.680000	 0.043030
3.764000	 -0.001447
3.848000	 0.069622
3.932000	 0.053285
4.016000	 -0.029583
4.100000	 -0.071799
4.184000	 0.076886
4.268000	 0.094233
4.352000	 0.252509
4.436000	 0.841779
4.520000	 2.395356
4.604000	 4.932329
4.688000	 8.818798
4.772000	 13.1226
4.856000	 17.1767
4.940000	 21.0983
5.024000	 23.9252
5.108000	 26.218
5.192000	 27.8925
5.276000	 29.2007
5.359999	 30.1938
5.444000	 30.8398
5.528000	 31.3529
5.612000	 31.7382
5.696000	 31.8615
5.780000	 32.2259
5.864000	 32.2909
5.948000	 32.5226
6.032000	 32.5555
6.116000	 32.5721
6.200000	 32.529
6.284000	 32.5131
6.368000	 32.6305
6.452000	 32.5117
6.536000	 32.5456
6.620000	 32.6437
6.704000	 32.4902
6.788000	 32.5347
6.872000	 32.6149
6.956000	 32.4852
7.040000	 32.3486
7.124000	 32.0653
7.208000	 32.2404
7.292000	 32.1927
7.376000	 32.1756
7.460000	 32.0239
7.544000	 32.1962
7.628000	 32.1159
7.712000	 32.0719
7.796000	 32.0655
7.880000	 31.9335
7.964000	 31.9164
8.048000	 31.9581
8.132000	 31.973
8.216000	 32.0667
8.300000	 31.8317
8.384000	 32.084
8.468000	 31.8721
8.552000	 31.6607
8.635999	 31.7573
8.719999	 31.7901
8.804000	 31.7348
8.888000	 31.7037
8.972000	 31.5739
9.056000	 31.6155
9.140000	 31.35
9.224000	 31.7553
9.308000	 31.5209
9.391999	 31.164
9.475999	 31.0566
9.560000	 31.0179
9.644000	 31.036
9.728000	 31.1951
9.812000	 30.9437
9.896000	 30.665
9.980000	 31.025
10.064	30.7943
10.148	30.6904
10.232	30.8187
10.316	30.9275
10.4	30.7749
10.484	30.6716
10.568	30.535
10.652	30.4233
10.736	30.4237
10.82	30.4763
10.904	30.5487
10.988	30.2596
11.072	29.9937
11.156	29.8953
11.24	29.9179
11.324	30.0904
11.408	30.0651
11.492	29.7384
11.576	29.743
11.66	29.722
11.744	29.5473
11.828	29.3503
11.912	29.1495
11.996	29.084
12.08	29.1759
12.164	29.3066
12.248	29.2447
12.332	29.0823
12.416	28.9833
12.5	28.9673
12.584	28.8758
12.668	28.6511
12.752	28.3973
12.836	28.3601
12.92	28.5728
13.004	28.6085
13.088	28.5609
13.172	28.5138
13.256	28.2872
13.34	27.8364
13.424	27.4273
13.508	27.4865
13.592	27.6116
13.676	27.4984
13.76	27.6072
13.844	27.9318
13.928	28.1081
14.012	27.8464
14.096	27.5006
14.18	27.4041
14.264	27.2521
14.348	27.062
14.432	26.956
14.516	26.891
14.6	26.9117
14.684	26.9085
14.768	26.7912
14.852	26.6216
14.936	26.5227
15.02	26.5623
15.104	26.5988
15.188	26.603
15.272	26.6563
15.356	26.6147
15.44	26.4138
15.524	26.2716
15.608	26.2552
15.692	26.1159
15.776	25.7389
15.86	25.3991
15.944	25.3378
16.028	25.4579
16.112	25.6139
16.196	25.762
16.28	25.8178
16.364	25.7732
16.448	25.7852
16.532	25.8752
16.616	25.8376
16.7	25.5939
16.784	25.3081
16.868	25.094
16.952	24.8977
17.036	24.6633
17.12	24.4365
17.204	24.3082
17.288	24.3309
17.372	24.4734
17.456	24.6352
17.54	24.709
17.624	24.6523
17.708	24.5196
17.792	24.4297
17.876	24.4531
17.96	24.5005
18.044	24.4224
18.128	24.231
18.212	24.0819
18.296	24.0282
18.38	23.9481
18.464	23.7505
18.548	23.5032
18.632	23.3125
18.716	23.1963
18.8	23.1327
18.884	23.1319
18.968	23.2106
19.052	23.337
19.136	23.4317
19.22	23.4121
19.304	23.2391
19.388	22.9493
19.472	22.6466
19.556	22.4365
19.64	22.348
19.724	22.3347
19.808	22.3441
19.892	22.3642
19.976	22.4075
20.06	22.4648
20.144	22.4913
20.228	22.4414
20.312	22.3061
20.396	22.1154
20.48	21.9181
20.564	21.7548
20.648	21.6354
20.732	21.5482
20.816	21.4899
20.9	21.4694
20.984	21.4872
21.068	21.5234
21.152	21.5637
21.236	21.6255
21.32	21.7431
21.404	21.9216
21.488	22.1006
21.572	22.1911
21.656	22.1547
21.74	22.03
21.824	21.89
21.908	21.7587
21.992	21.589
22.076	21.3289
22.16	20.9908
22.244	20.6628
22.328	20.4487
22.412	20.4076
22.496	20.528
22.58	20.7572
22.664	21.0421
22.748	21.3513
22.832	21.6515
22.916	21.8441
23	21.7848
23.084	21.3368
23.168	20.4621
23.252	19.2921
23.336	18.1064
23.42	17.237
23.504	16.9093
23.588	17.1337
23.672	17.7324
23.756	18.4262
23.84	19.0065
23.924	19.4325
24.008	19.7419
24.092	19.9056
24.176	19.7972
24.26	19.174
24.344	17.8143
24.428	15.71
24.512	13.1382
24.596	10.5324
24.68	8.337772
24.764	6.837897
24.848	6.014800
24.932	5.563483
25.016	5.044010
25.1	4.063650
25.184	2.492334
25.268	0.581758
25.352	-1.148275
25.436	-2.048455
25.52	-1.598964
25.604	0.448892
25.688	4.202907
25.772	9.566954
25.856	16.173
25.94	23.2947
26.024	29.8237
26.108	34.5071
26.192	36.4248
26.276	35.2581
26.36	31.5014
26.444	26.1301
26.528	20.2123
26.612	14.5346
26.696	9.539915
26.78	5.373872
26.864	2.071172
26.948	-0.322648
27.028	-1.677393

File: LPE453_t17_cm-1.asc
PE IR       SPECTRUM    SPECTRUM    ASCII       PEDS        1.60
  -1
LPE7DA~1.ASC
17/05/16
15:42:27.00
17/05/16
15:42:27.00
tln
$LPE453_t0017$<tbV0>[0.0,-10.4,8.0,0.0,27,1,0]
370
64

2002,4.07
MIRTGS : RIGHTBACK : INTERNAL 2
MIR : ON : INTERNAL 2
OPTKBR

0.200000
8
8.000000
FILLER
RATIO
SPECTRUM
UNLOCKED 256

DOUBLE
64
COMBINED
1
0
0

1.000000
RATIO

1
0
TRUE
51149
0
LEFT NOT FITTED RIGHT NOT FITTED 0
NONE
NONE
15600
12
4.427000
51148
TRUE
1 0 8 72 0 0 0 0

15798

#HDR
-1
-1
#GR
CM-1
%T
2.38419e-05
0.0
5000
-1.000000
4631
8
36.3254
-7.518148
#DATA
5000	-0.100755
4984	-0.073289
4968	-0.271677
4952	0.560975
4936	0.147438
4920	0.115132
4904	0.503730
4888	0.781011
4872	0.022792
4856	0.074672
4840	-0.108075
4824	0.047183
4808	0.242447
4792	-0.102996
4776	-0.112748
4760	-0.058031
4744	0.247120
4728	-0.163245
4712	0.391244
4696	-0.117826
4680	0.137209
4664	0.214290
4648	0.224280
4632	0.682568
4616	-0.397348
4600	0.580382
4584	0.114870
4568	-0.315022
4552	0.277256
4536	-0.946378
4520	11.5168
4504	-3.941655
4488	0.355529
4472	-0.867676
4456	0.362420
4440	0.465059
4424	0.356626
4408	0.515365
4392	0.350880
4376	0.284457
4360	0.074172
4344	0.423383
4328	0.267124
4312	-0.003671
4296	-0.163292
4280	0.109601
4264	0.202155
4248	0.132083
4232	0.100016
4216	0.264692
4200	0.523042
4184	0.612115
4168	0.220966
4152	-0.316882
4136	0.175142
4120	0.040650
4104	0.086617
4088	0.086498
4072	0.240564
4056	0.032544
4040	0.162100
4024	0.039529
4008	0.152015
3992	0.035309
3976	0.193214
3960	0.142216
3944	-0.057697
3928	0.138878
3912	0.070714
3896	-0.070357
3880	-0.001263
3864	0.143074
3848	0.052833
3832	0.059366
3816	0.407052
3800	0.238275
3784	0.184226
3768	-0.121116
3752	-0.167417
3736	0.040006
3720	0.172996
3704	0.038886
3688	0.057959
3672	0.036144
3656	0.076150
3640	0.136637
3624	0.211691
3608	0.099086
3592	-0.074458
3576	0.105381
3560	0.144886
3544	-0.073933
3528	0.094938
3512	0.073266
3496	-0.027561
3480	0.124454
3464	0.112390
3448	0.054121
3432	-0.093579
3416	-0.076580
3400	-0.064849
3384	-0.085592
3368	0.046133
3352	0.246548
3336	0.118064
3320	-0.041794
3304	0.068688
3288	0.096392
3272	0.103569
3256	0.038051
3240	-0.045609
3224	0.200057
3208	0.105595
3192	-0.140881
3176	0.197720
3160	-0.024104
3144	0.136947
3128	0.060629
3112	0.250530
3096	-0.161266
3080	-0.099921
3064	-0.036263
3048	0.094199
3032	0.103306
3016	-0.022816
3000	0.018787
2984	0.007438
2968	0.098490
2952	0.062656
2936	0.027680
2920	0.011754
2904	0.122332
2888	-0.002026
2872	-0.009846
2856	0.282454
2840	0.064706
2824	0.032472
2808	0.017452
2792	0.152373
2776	0.021076
2760	0.022792
2744	0.022220
2728	-0.017905
2712	0.034904
2696	0.035071
2680	-0.046157
2664	-0.010848
2648	-0.012588
2632	-0.160360
2616	0.063753
2600	0.085401
2584	0.087881
2568	0.097727
2552	0.087261
2536	0.063228
2520	0.196552
2504	-0.130724
2488	0.026011
2472	-0.090503
2456	0.074362
2440	-0.068402
2424	-0.018739
2408	0.113797
2392	0.057053
2376	0.059294
2360	0.062251
2344	0.089597
2328	0.135159
2312	0.194787
2296	0.251936
2280	0.412559
2264	0.630474
2248	1.033687
2232	1.625728
2216	2.218627
2200	3.014850
2184	3.998517
2168	5.239510
2152	6.610584
2136	8.478832
2120	10.2381
2104	12.1305
2088	14.0711
2072	15.6853
2056	17.6548
2040	19.3483
2024	21.1261
2008	22.4621
1992	23.8143
1976	25.0142
1960	26.1015
1944	27.0203
1928	27.7837
1912	28.558
1896	29.1813
1880	29.6249
1864	30.2212
1848	30.5383
1832	30.9541
1816	31.0853
1800	31.5201
1784	31.6801
1768	31.9036
1752	31.9739
1736	32.2355
1720	32.2484
1704	32.3458
1688	32.407
1672	32.428
1656	32.6682
1640	32.5577
1624	32.4992
1608	32.4579
1592	32.5186
1576	32.6069
1560	32.764
1544	32.6831
1528	32.5696
1512	32.6181
1496	32.4656
1480	32.4147
1464	32.6302
1448	32.2006
1432	32.3451
1416	32.2808
1400	32.0719
1384	32.226
1368	32.2552
1352	32.1073
1336	32.0266
1320	32.0613
1304	32.2013
1288	32.0369
1272	31.9732
1256	31.9199
1240	31.9614
1224	32.0123
1208	31.8371
1192	32.0737
1176	31.7618
1160	31.7807
1144	31.771
1128	31.6849
1112	31.584
1096	31.3432
1080	31.6887
1064	31.1463
1048	31.028
1032	31.2058
1016	30.9771
1000	31.049
984	 30.6863
968	 30.9367
952	 30.6942
936	 30.4695
920	 30.5933
904	 30.0298
888	 29.9521
872	 29.8174
856	 29.6811
840	 29.1641
824	 29.2632
808	 29.0162
792	 28.7786
776	 28.4873
760	 28.5305
744	 27.3991
728	 27.5424
712	 27.6846
696	 27.0317
680	 26.8878
664	 26.5891
648	 26.434
632	 25.5216
616	 25.8038
600	 25.7073
584	 24.4292
568	 24.6746
552	 24.2594
536	 23.2718
520	 23.3985
504	 22.3501
488	 21.8926
472	 21.5843
456	 21.721
440	 21.2736
424	 17.1177
408	 13.207
392	 -1.731610
376	 15.5846
370	 -1.677393

File: LPE453_t18.asc
PE IR       SPECTRUM    SPECTRUM    ASCII       PEDS        1.60
  -1
LPE799~1.ASC
17/05/16
15:47:04.00
17/05/16
15:47:30.00
tln
$LPE453_t0018$<tbV0>[-2.6,-10.4,8.0,0.0,27,1,0]
27.028
64

2002,4.07
MIRTGS : RIGHTBACK : INTERNAL 2
MIR : ON : INTERNAL 2
OPTKBR

0.200000
8
8.000000
FILLER
RATIO
SPECTRUM
UNLOCKED 256

DOUBLE
64
COMBINED
1
0
0

0.002000
RATIO

1
0
TRUE
51149
0
LEFT NOT FITTED RIGHT NOT FITTED 0
NONE
NONE
15600
12
4.427000
51148
TRUE
1 0 8 72 0 0 0 0

15798

#HDR
-1
-1
#GR
µM
%T
2.38419e-05
0.0
2.000000
0.002000
12515
8
42.5883
-8.107309
#DATA
2.000000	 0.158143
2.084000	 0.283928
2.168000	 0.914610
2.252000	 1.132790
2.336000	 0.202089
2.420000	 0.395459
2.504000	 0.167115
2.588000	 -0.030851
2.672000	 0.078027
2.756000	 0.281690
2.840000	 0.204349
2.924000	 0.037428
3.008000	 0.116571
3.092000	 0.059713
3.176000	 -0.056456
3.260000	 0.030302
3.344000	 0.030824
3.428000	 0.008515
3.512000	 0.023670
3.596000	 0.041375
3.680000	 -0.035607
3.764000	 0.040665
3.848000	 0.103438
3.932000	 -0.028931
4.016000	 0.140954
4.100000	 -0.241219
4.184000	 0.040340
4.268000	 0.222650
4.352000	 0.574906
4.436000	 1.416542
4.520000	 3.499113
4.604000	 6.842352
4.688000	 11.2207
4.772000	 16.1978
4.856000	 20.735
4.940000	 24.5201
5.024000	 27.6235
5.108000	 29.9553
5.192000	 31.4606
5.276000	 32.5834
5.359999	 33.6143
5.444000	 34.1717
5.528000	 34.5396
5.612000	 34.9515
5.696000	 35.2399
5.780000	 35.5993
5.864000	 35.6808
5.948000	 35.8334
6.032000	 35.8608
6.116000	 35.8342
6.200000	 35.8528
6.284000	 35.725
6.368000	 35.894
6.452000	 35.9929
6.536000	 35.8749
6.620000	 36.017
6.704000	 36.0329
6.788000	 35.9905
6.872000	 35.9807
6.956000	 35.784
7.040000	 35.8446
7.124000	 35.6639
7.208000	 35.839
7.292000	 35.7846
7.376000	 35.6256
7.460000	 35.6691
7.544000	 35.8305
7.628000	 35.5783
7.712000	 35.496
7.796000	 35.397
7.880000	 35.6278
7.964000	 35.4733
8.048000	 35.4704
8.132000	 35.2924
8.216000	 35.4506
8.300000	 35.6482
8.384000	 35.4187
8.468000	 35.1847
8.552000	 35.2947
8.635999	 35.4841
8.719999	 35.573
8.804000	 35.5091
8.888000	 35.1598
8.972000	 34.8286
9.056000	 35.0924
9.140000	 35.1357
9.224000	 35.4539
9.308000	 35.2407
9.391999	 34.716
9.475999	 34.7114
9.560000	 34.7692
9.644000	 35.1184
9.728000	 35.1405
9.812000	 35.1521
9.896000	 34.7026
9.980000	 34.4947
10.064	34.3317
10.148	34.5068
10.232	34.5973
10.316	34.9475
10.4	34.8133
10.484	34.277
10.568	33.9525
10.652	33.907
10.736	34.0687
10.82	34.2708
10.904	34.3805
10.988	34.4154
11.072	34.3109
11.156	34.0531
11.24	33.6583
11.324	33.491
11.408	33.1208
11.492	33.2416
11.576	33.6645
11.66	33.9454
11.744	33.8928
11.828	33.5869
11.912	33.4955
11.996	33.1874
12.08	32.8602
12.164	32.8776
12.248	32.8373
12.332	32.9869
12.416	33.0942
12.5	33.1485
12.584	33.3651
12.668	33.4569
12.752	33.1864
12.836	32.9393
12.92	32.7158
13.004	32.2508
13.088	31.8909
13.172	32.008
13.256	32.257
13.34	32.2908
13.424	32.2058
13.508	32.3517
13.592	32.5634
13.676	32.2639
13.76	32.003
13.844	31.9615
13.928	31.7908
14.012	31.5641
14.096	31.4309
14.18	31.2506
14.264	31.0691
14.348	31.0285
14.432	31.0813
14.516	31.21
14.6	31.4409
14.684	31.6016
14.768	31.5531
14.852	31.4719
14.936	31.4045
15.02	31.3174
15.104	31.2027
15.188	30.8949
15.272	30.5237
15.356	30.3381
15.44	30.1952
15.524	30.0267
15.608	29.9949
15.692	30.1749
15.776	30.4318
15.86	30.4694
15.944	30.2749
16.028	30.1389
16.112	30.1492
16.196	30.1978
16.28	30.221
16.364	30.1612
16.448	29.9763
16.532	29.7282
16.616	29.5405
16.7	29.445
16.784	29.2922
16.868	28.9305
16.952	28.4785
17.036	28.2275
17.12	28.2718
17.204	28.4331
17.288	28.5101
17.372	28.4774
17.456	28.4454
17.54	28.5119
17.624	28.6553
17.708	28.7641
17.792	28.7601
17.876	28.7016
17.96	28.7476
18.044	28.968
18.128	29.1867
18.212	29.1299
18.296	28.744
18.38	28.2886
18.464	28.0414
18.548	28.0063
18.632	27.9637
18.716	27.7426
18.8	27.3705
18.884	27.0131
18.968	26.8234
19.052	26.827
19.136	26.9099
19.22	26.9307
19.304	26.8822
19.388	26.8912
19.472	27.0445
19.556	27.2616
19.64	27.3803
19.724	27.3409
19.808	27.229
19.892	27.1315
19.976	27.0346
20.06	26.875
20.144	26.6556
20.228	26.4587
20.312	26.367
20.396	26.3748
20.48	26.3804
20.564	26.2547
20.648	25.9545
20.732	25.5757
20.816	25.3184
20.9	25.3581
20.984	25.7025
21.068	26.1747
21.152	26.5407
21.236	26.6669
21.32	26.5805
21.404	26.4072
21.488	26.2556
21.572	26.1387
21.656	25.9783
21.74	25.6708
21.824	25.1796
21.908	24.6034
21.992	24.1518
22.076	24.0438
22.16	24.3768
22.244	25.0213
22.328	25.6907
22.412	26.1002
22.496	26.1164
22.58	25.8112
22.664	25.3627
22.748	24.9139
22.832	24.4777
22.916	23.9842
23	23.3824
23.084	22.7266
23.168	22.165
23.252	21.8548
23.336	21.9121
23.42	22.3064
23.504	22.9213
23.588	23.5897
23.672	24.1202
23.756	24.3039
23.84	24.0321
23.924	23.301
24.008	22.2598
24.092	21.2192
24.176	20.5184
24.26	20.361
24.344	20.7239
24.428	21.3883
24.512	22.074
24.596	22.6256
24.68	23.2139
24.764	24.3382
24.848	26.5516
24.932	30.1003
25.016	34.5835
25.1	39.0107
25.184	41.9985
25.268	42.3704
25.352	39.6016
25.436	33.8531
25.52	25.9829
25.604	17.2383
25.688	9.119343
25.772	3.009069
25.856	-0.202010
25.94	-0.384217
26.024	1.733067
26.108	4.767822
26.192	7.289348
26.276	8.274645
26.36	7.309618
26.444	4.716244
26.528	1.305178
26.612	-2.182696
26.696	-5.125207
26.78	-7.132363
26.864	-8.044224
26.948	-7.887353
27.028	-6.927180

File: LPE453_t18_cm-1.asc
PE IR       SPECTRUM    SPECTRUM    ASCII       PEDS        1.60
  -1
LPE759~1.ASC
17/05/16
15:47:04.00
17/05/16
15:47:04.00
tln
$LPE453_t0018$<tbV0>[-2.6,-10.4,8.0,0.0,27,1,0]
370
64

2002,4.07
MIRTGS : RIGHTBACK : INTERNAL 2
MIR : ON : INTERNAL 2
OPTKBR

0.200000
8
8.000000
FILLER
RATIO
SPECTRUM
UNLOCKED 256

DOUBLE
64
COMBINED
1
0
0

1.000000
RATIO

1
0
TRUE
51149
0
LEFT NOT FITTED RIGHT NOT FITTED 0
NONE
NONE
15600
12
4.427000
51148
TRUE
1 0 8 72 0 0 0 0

15798

#HDR
-1
-1
#GR
CM-1
%T
2.38419e-05
0.0
5000
-1.000000
4631
8
42.5348
-8.097982
#DATA
5000	0.158143
4984	-0.059914
4968	0.089979
4952	0.575780
4936	-0.036072
4920	-0.004553
4904	-0.350522
4888	0.310921
4872	0.229740
4856	0.206232
4840	-0.039887
4824	-0.137662
4808	0.300240
4792	0.122427
4776	0.059175
4760	-0.245690
4744	0.020861
4728	0.280809
4712	0.272345
4696	0.396823
4680	0.721311
4664	0.551867
4648	0.706124
4632	0.197315
4616	0.747609
4600	1.117992
4584	1.315474
4568	0.315070
4552	0.595140
4536	-0.326776
4520	-2.858352
4504	0.412869
4488	1.053166
4472	1.039576
4456	0.735473
4440	1.163172
4424	0.636935
4408	0.546693
4392	-0.082087
4376	0.535678
4360	0.205206
4344	0.263142
4328	-0.049948
4312	-0.079417
4296	-0.068569
4280	0.193953
4264	0.434446
4248	-0.173187
4232	0.189542
4216	0.251054
4200	-0.108528
4184	-0.003457
4168	-0.104665
4152	0.070452
4136	0.321793
4120	0.189590
4104	0.252580
4088	0.101113
4072	0.021505
4056	-0.167584
4040	0.034093
4024	-0.158333
4008	-0.013566
3992	0.172519
3976	0.052022
3960	0.050282
3944	0.018310
3928	0.060534
3912	0.082826
3896	0.046992
3880	0.104093
3864	-0.030922
3848	0.147318
3832	0.010323
3816	0.046849
3800	0.155687
3784	0.093269
3768	0.007247
3752	-0.081110
3736	0.186038
3720	0.012278
3704	0.049853
3688	0.009584
3672	0.260663
3656	-0.034570
3640	0.145363
3624	0.212788
3608	0.119161
3592	0.006818
3576	0.050091
3560	0.069093
3544	0.054574
3528	0.111889
3512	0.170063
3496	0.034761
3480	0.260853
3464	0.032114
3448	0.107097
3432	0.042152
3416	-0.055003
3400	0.259113
3384	0.005078
3368	0.179648
3352	0.002503
3336	0.204682
3320	0.098395
3304	0.077462
3288	0.063490
3272	0.079369
3256	-0.115919
3240	0.145101
3224	-0.064730
3208	-0.069904
3192	0.105357
3176	0.043272
3160	0.053644
3144	0.008749
3128	0.093483
3112	-0.077581
3096	0.112462
3080	-0.101423
3064	0.018191
3048	0.003314
3032	-0.058317
3016	0.058364
3000	-0.023317
2984	0.011897
2968	0.065445
2952	0.061106
2936	0.019073
2920	-0.020837
2904	0.107121
2888	-0.032925
2872	-0.041151
2856	0.128650
2840	0.083971
2824	-0.048542
2808	0.077748
2792	0.076532
2776	0.042629
2760	-0.102186
2744	0.045728
2728	-0.010347
2712	0.012063
2696	0.087666
2680	0.069737
2664	0.059509
2648	0.127983
2632	-0.070810
2616	0.105190
2600	0.084543
2584	0.072145
2568	-0.005960
2552	0.105381
2536	-0.031423
2520	-0.078058
2504	-0.110983
2488	0.142621
2472	0.063419
2456	0.108575
2440	-0.209403
2424	-0.058436
2408	0.131368
2392	0.031948
2376	0.175595
2360	0.003576
2344	0.212264
2328	0.218892
2312	0.374770
2296	0.583195
2280	0.820660
2264	1.122784
2248	1.715540
2232	2.474927
2216	3.343987
2200	4.334950
2184	5.711889
2168	7.297134
2152	9.142518
2136	10.8204
2120	12.938
2104	15.0791
2088	17.2313
2072	19.1109
2056	21.1455
2040	22.9342
2024	24.5408
2008	25.9815
1992	27.5013
1976	28.5518
1960	29.7865
1944	30.5799
1928	31.3945
1912	32.0646
1896	32.5639
1880	33.1654
1864	33.6359
1848	34.1099
1832	34.2821
1816	34.4918
1800	34.6672
1784	34.9174
1768	35.2393
1752	35.3145
1736	35.5536
1720	35.6678
1704	35.6965
1688	35.7966
1672	35.7003
1656	35.9924
1640	35.8367
1624	35.8015
1608	35.807
1592	35.7258
1576	35.9711
1560	36.2931
1544	36.2526
1528	35.8727
1512	35.9623
1496	36.002
1480	35.8295
1464	35.8876
1448	35.7734
1432	35.898
1416	35.7582
1400	35.7347
1384	35.911
1368	35.8034
1352	35.6405
1336	35.7428
1320	35.7544
1304	35.5584
1288	35.3738
1272	35.6351
1256	35.4764
1240	35.4481
1224	35.2894
1208	35.6673
1192	35.4191
1176	35.1977
1160	35.4898
1144	35.6036
1128	35.2724
1112	34.8182
1096	35.0953
1080	35.3937
1064	34.6811
1048	34.7965
1032	35.2733
1016	35.1285
1000	34.4468
984	 34.493
968	 34.9511
952	 34.1635
936	 33.9776
920	 34.3378
904	 34.3143
888	 33.6353
872	 33.1705
856	 33.9535
840	 33.4994
824	 32.8707
808	 33.07
792	 33.4534
776	 32.8337
760	 31.96
744	 32.2024
728	 32.0415
712	 31.5058
696	 31.035
680	 31.6051
664	 31.2752
648	 30.2113
632	 30.4925
616	 30.2138
600	 29.478
584	 28.2774
568	 28.6225
552	 29.167
536	 27.9201
520	 26.9267
504	 27.1868
488	 26.373
472	 26.6234
456	 24.4644
440	 25.0218
424	 23.5667
408	 22.0577
392	 26.965
376	 -1.540064
370	 -6.927180