Folder: Masteroppgave/Bakgrunnsmateriale/MATLAB/FTIR/ftir_data/LPE453/Mapping_121 (part 29)

File: LPE453_t64.asc
PE IR       SPECTRUM    SPECTRUM    ASCII       PEDS        1.60
  -1
LPDBA9~1.ASC
17/05/16
19:34:31.00
17/05/16
19:34:57.00
tln
$LPE453_t0064$<tbV0>[-7.8,0.0,8.0,0.0,27,1,0]
27.028
64

2002,4.07
MIRTGS : RIGHTBACK : INTERNAL 2
MIR : ON : INTERNAL 2
OPTKBR

0.200000
8
8.000000
FILLER
RATIO
SPECTRUM
UNLOCKED 256

DOUBLE
64
COMBINED
1
0
0

0.002000
RATIO

1
0
TRUE
51149
0
LEFT NOT FITTED RIGHT NOT FITTED 0
NONE
NONE
15600
12
4.427000
51148
TRUE
1 0 8 72 0 0 0 0

15798

#HDR
-1
-1
#GR
µM
%T
2.38419e-05
0.0
2.000000
0.002000
12515
8
38.9113
-17.4954
#DATA
2.000000	 0.027656
2.084000	 0.059788
2.168000	 0.442997
2.252000	 -0.202665
2.336000	 -0.118286
2.420000	 0.119111
2.504000	 0.020646
2.588000	 0.243763
2.672000	 0.056349
2.756000	 0.115885
2.840000	 0.214534
2.924000	 -0.014650
3.008000	 0.071940
3.092000	 0.010129
3.176000	 -0.024084
3.260000	 0.002396
3.344000	 0.201722
3.428000	 0.034210
3.512000	 -0.013480
3.596000	 -0.006797
3.680000	 0.024435
3.764000	 0.067676
3.848000	 0.064335
3.932000	 0.047069
4.016000	 -0.017956
4.100000	 -0.060973
4.184000	 0.018939
4.268000	 -0.033507
4.352000	 0.257214
4.436000	 0.985202
4.520000	 2.523583
4.604000	 5.300953
4.688000	 9.287786
4.772000	 13.7452
4.856000	 18.1637
4.940000	 21.7926
5.024000	 24.8041
5.108000	 27.1123
5.192000	 28.8194
5.276000	 30.0019
5.359999	 30.9527
5.444000	 31.5727
5.528000	 31.9873
5.612000	 32.3337
5.696000	 32.6207
5.780000	 32.7118
5.864000	 32.8128
5.948000	 32.8811
6.032000	 32.9414
6.116000	 33.1553
6.200000	 33.0119
6.284000	 33.1151
6.368000	 33
6.452000	 32.9121
6.536000	 32.9566
6.620000	 32.8922
6.704000	 32.6286
6.788000	 32.8711
6.872000	 32.6789
6.956000	 32.8688
7.040000	 32.7347
7.124000	 32.4939
7.208000	 32.6704
7.292000	 32.6742
7.376000	 32.3014
7.460000	 32.4396
7.544000	 32.4913
7.628000	 32.308
7.712000	 32.1194
7.796000	 32.4011
7.880000	 32.2368
7.964000	 32.1018
8.048000	 32.0298
8.132000	 32.1839
8.216000	 32.1035
8.300000	 31.7587
8.384000	 31.7659
8.468000	 31.9375
8.552000	 31.8982
8.635999	 31.7479
8.719999	 31.6213
8.804000	 31.5842
8.888000	 31.7301
8.972000	 31.7467
9.056000	 31.2641
9.140000	 31.0563
9.224000	 31.3343
9.308000	 31.5173
9.391999	 31.3825
9.475999	 31.1923
9.560000	 30.981
9.644000	 30.7715
9.728000	 30.9181
9.812000	 31.0642
9.896000	 30.976
9.980000	 30.591
10.064	30.2054
10.148	30.1878
10.232	30.7124
10.316	30.5678
10.4	30.6971
10.484	30.4892
10.568	30.1912
10.652	29.8551
10.736	29.9021
10.82	29.8621
10.904	30.0154
10.988	29.9041
11.072	29.5801
11.156	29.3955
11.24	29.0806
11.324	28.9609
11.408	29.1091
11.492	29.3676
11.576	29.4427
11.66	29.2852
11.744	28.9486
11.828	28.8412
11.912	28.6822
11.996	28.3051
12.08	27.986
12.164	28.2113
12.248	28.5
12.332	28.3456
12.416	28.3952
12.5	28.2993
12.584	27.9837
12.668	27.6403
12.752	27.6426
12.836	27.6953
12.92	27.5449
13.004	27.5348
13.088	27.7846
13.172	28.1505
13.256	28.1352
13.34	27.8222
13.424	27.4921
13.508	27.1943
13.592	26.736
13.676	26.4563
13.76	26.6681
13.844	27.0276
13.928	27.1818
14.012	27.0205
14.096	26.7762
14.18	26.6447
14.264	26.6531
14.348	26.7739
14.432	26.6413
14.516	26.1455
14.6	25.7412
14.684	25.6914
14.768	25.8114
14.852	25.7992
14.936	25.7175
15.02	25.8112
15.104	25.9729
15.188	26.0624
15.272	26.0994
15.356	26.0812
15.44	25.979
15.524	25.6791
15.608	25.2081
15.692	24.837
15.776	24.6726
15.86	24.6075
15.944	24.5754
16.028	24.5949
16.112	24.6465
16.196	24.6538
16.28	24.6285
16.364	24.6152
16.448	24.5276
16.532	24.3726
16.616	24.3068
16.7	24.3013
16.784	24.202
16.868	24.0734
16.952	24.0913
17.036	24.2131
17.12	24.2185
17.204	23.9796
17.288	23.592
17.372	23.2763
17.456	23.1741
17.54	23.2311
17.624	23.2883
17.708	23.265
17.792	23.2026
17.876	23.1621
17.96	23.126
18.044	23.0293
18.128	22.8712
18.212	22.7502
18.296	22.7586
18.38	22.8588
18.464	22.9217
18.548	22.8726
18.632	22.7468
18.716	22.6079
18.8	22.4673
18.884	22.298
18.968	22.1042
19.052	21.9368
19.136	21.8333
19.22	21.7757
19.304	21.709
19.388	21.6034
19.472	21.4729
19.556	21.352
19.64	21.2636
19.724	21.2189
19.808	21.2205
19.892	21.2588
19.976	21.3171
20.06	21.3978
20.144	21.5308
20.228	21.7415
20.312	22.002
20.396	22.2314
20.48	22.3474
20.564	22.3293
20.648	22.2137
20.732	22.0501
20.816	21.8546
20.9	21.6173
20.984	21.3292
21.068	21.0045
21.152	20.6702
21.236	20.3418
21.32	20.0226
21.404	19.7179
21.488	19.4739
21.572	19.3616
21.656	19.4417
21.74	19.714
21.824	20.1078
21.908	20.5169
21.992	20.8498
22.076	21.0649
22.16	21.1702
22.244	21.1901
22.328	21.1402
22.412	21.0167
22.496	20.8015
22.58	20.4687
22.664	20.0015
22.748	19.4178
22.832	18.7713
22.916	18.1375
23	17.5725
23.084	17.0926
23.168	16.6835
23.252	16.3415
23.336	16.1089
23.42	16.0559
23.504	16.2378
23.588	16.6098
23.672	17.0224
23.756	17.2878
23.84	17.2783
23.924	17.0247
24.008	16.6832
24.092	16.4307
24.176	16.3734
24.26	16.4792
24.344	16.618
24.428	16.673
24.512	16.6302
24.596	16.5545
24.68	16.5897
24.764	16.92
24.848	17.6113
24.932	18.6353
25.016	19.8979
25.1	21.2678
25.184	22.6942
25.268	24.2265
25.352	25.9453
25.436	27.8793
25.52	29.96
25.604	32.0532
25.688	33.9922
25.772	35.6597
25.856	37.0089
25.94	38.0593
26.024	38.7544
26.108	38.8586
26.192	37.9875
26.276	35.684
26.36	31.587
26.444	25.6655
26.528	18.306
26.612	10.2064
26.696	2.218182
26.78	-4.832179
26.864	-10.5007
26.948	-14.721
27.028	-17.4954

File: LPE453_t64_cm-1.asc
PE IR       SPECTRUM    SPECTRUM    ASCII       PEDS        1.60
  -1
LP6A5B~1.ASC
17/05/16
19:34:31.00
17/05/16
19:34:31.00
tln
$LPE453_t0064$<tbV0>[-7.8,0.0,8.0,0.0,27,1,0]
370
64

2002,4.07
MIRTGS : RIGHTBACK : INTERNAL 2
MIR : ON : INTERNAL 2
OPTKBR

0.200000
8
8.000000
FILLER
RATIO
SPECTRUM
UNLOCKED 256

DOUBLE
64
COMBINED
1
0
0

1.000000
RATIO

1
0
TRUE
51149
0
LEFT NOT FITTED RIGHT NOT FITTED 0
NONE
NONE
15600
12
4.427000
51148
TRUE
1 0 8 72 0 0 0 0

15798

#HDR
-1
-1
#GR
CM-1
%T
2.38419e-05
0.0
5000
-1.000000
4631
8
38.8514
-17.4954
#DATA
5000	0.027656
4984	0.118398
4968	0.354218
4952	0.053691
4936	0.384664
4920	-0.259280
4904	0.214791
4888	0.349426
4872	-0.270891
4856	0.275945
4840	-0.304293
4824	0.105738
4808	-0.044226
4792	-0.214529
4776	-0.144863
4760	0.424742
4744	0.937461
4728	-0.174593
4712	1.182842
4696	1.142644
4680	-0.674319
4664	-0.048542
4648	1.628303
4632	0.064563
4616	0.303888
4600	0.315546
4584	0.239086
4568	0.169587
4552	0.088477
4536	0.640225
4520	-0.403976
4504	-1.723980
4488	1.858711
4472	3.421759
4456	-0.824356
4440	-0.188493
4424	-0.096678
4408	0.327229
4392	0.252699
4376	0.370597
4360	0.577902
4344	0.120735
4328	0.465369
4312	0.449419
4296	-0.126910
4280	-0.063705
4264	0.344538
4248	0.124669
4232	0.167441
4216	0.141096
4200	-0.009965
4184	0.287365
4168	0.799536
4152	0.078749
4136	0.148868
4120	0.163316
4104	0.042200
4088	0.221586
4072	0.056886
4056	-0.051593
4040	0.091338
4024	-0.005793
4008	-0.051951
3992	0.049948
3976	0.123858
3960	0.077939
3944	0.131821
3928	0.094103
3912	0.253510
3896	-0.008416
3880	0.107026
3864	0.243616
3848	0.344467
3832	0.106644
3816	0.130200
3800	0.080323
3784	0.257396
3768	0.112414
3752	0.076723
3736	-0.112128
3720	-0.019812
3704	0.096487
3688	-0.100493
3672	0.094366
3656	0.125384
3640	0.176930
3624	0.078392
3608	0.019454
3592	0.139999
3576	0.110936
3560	0.138378
3544	-0.146508
3528	0.169324
3512	0.129914
3496	0.086236
3480	-0.018763
3464	-0.089812
3448	-0.020670
3432	-0.057530
3416	-0.030899
3400	0.053858
3384	-0.014996
3368	0.051307
3352	-0.120830
3336	0.074791
3320	0.078177
3304	0.028729
3288	0.033092
3272	0.024986
3256	0.122380
3240	-0.083208
3224	0.067043
3208	-0.012946
3192	0.007653
3176	0.069713
3160	0.030565
3144	0.004982
3128	0.254607
3112	0.113558
3096	0.042009
3080	0.141143
3064	-0.049972
3048	0.151371
3032	-0.014162
3016	-0.085735
3000	0.038266
2984	0.069999
2968	0.121831
2952	0.090765
2936	0.081181
2920	0.017571
2904	0.262165
2888	0.150895
2872	0.029182
2856	0.002050
2840	0.100874
2824	0.100636
2808	0.124096
2792	0.015544
2776	0.019502
2760	-0.026845
2744	0.009822
2728	-0.030493
2712	0.017738
2696	0.089359
2680	0.043869
2664	0.000047
2648	-0.033617
2632	-0.035214
2616	-0.064182
2600	0.057148
2584	0.107169
2568	0.055909
2552	0.030612
2536	0.004863
2520	0.073122
2504	0.035023
2488	-0.064945
2472	0.073862
2456	0.031542
2440	-0.061225
2424	-0.004529
2408	0.018334
2392	0.045418
2376	-0.032806
2360	-0.027728
2344	-0.025582
2328	0.066590
2312	0.226140
2296	0.266647
2280	0.466418
2264	0.721383
2248	1.136302
2232	1.776003
2216	2.294039
2200	3.286981
2184	4.416108
2168	5.661821
2152	7.184505
2136	8.958482
2120	10.764
2104	12.7577
2088	14.7535
2072	16.5937
2056	18.4741
2040	20.2342
2024	21.8197
2008	23.3995
1992	24.6833
1976	25.9352
1960	26.9893
1944	27.96
1928	28.7333
1912	29.4204
1896	29.9856
1880	30.4451
1864	30.9942
1848	31.4147
1832	31.6853
1816	31.9194
1800	32.1717
1784	32.2969
1768	32.5485
1752	32.7044
1736	32.716
1720	32.7798
1704	32.8307
1688	32.9664
1672	32.862
1656	32.9827
1640	33.0774
1624	32.9983
1608	33.0963
1592	33.1012
1576	33.0175
1560	32.9092
1544	33.0461
1528	32.9506
1512	32.8887
1496	32.6175
1480	32.8835
1464	32.708
1448	32.8227
1432	32.8316
1416	32.7234
1400	32.5188
1384	32.6988
1368	32.5849
1352	32.3367
1336	32.5005
1320	32.4126
1304	32.1254
1288	32.2594
1272	32.2545
1256	32.1019
1240	32.0324
1224	32.1729
1208	31.8551
1192	31.7877
1176	31.9383
1160	31.7194
1144	31.5933
1128	31.6889
1112	31.7217
1096	31.0369
1080	31.5339
1064	31.3831
1048	30.9851
1032	30.8527
1016	31.0427
1000	30.4563
984	 30.2852
968	 30.5955
952	 30.4541
936	 29.8679
920	 29.9662
904	 29.6149
888	 29.0193
872	 29.2921
856	 29.2002
840	 28.7056
824	 28.0736
808	 28.3398
792	 27.8018
776	 27.5988
760	 28.1071
744	 27.4361
728	 26.5731
712	 26.9167
696	 26.7813
680	 25.7203
664	 25.8947
648	 25.9951
632	 24.6311
616	 24.6414
600	 24.3084
584	 24.2139
568	 23.2821
552	 22.8946
536	 22.7054
520	 21.7686
504	 21.2325
488	 22.3526
472	 20.5346
456	 20.6136
440	 19.5704
424	 16.5946
408	 16.632
392	 29.7146
376	 11.7848
370	 -17.4954

File: LPE453_t65.asc
PE IR       SPECTRUM    SPECTRUM    ASCII       PEDS        1.60
  -1
LPDBAD~1.ASC
17/05/16
19:39:07.00
17/05/16
19:39:33.00
tln
$LPE453_t0065$<tbV0>[-10.4,0.0,8.0,0.0,27,1,0]
27.028
64

2002,4.07
MIRTGS : RIGHTBACK : INTERNAL 2
MIR : ON : INTERNAL 2
OPTKBR

0.200000
8
8.000000
FILLER
RATIO
SPECTRUM
UNLOCKED 256

DOUBLE
64
COMBINED
1
0
0

0.002000
RATIO

1
0
TRUE
51149
0
LEFT NOT FITTED RIGHT NOT FITTED 0
NONE
NONE
15600
12
4.427000
51148
TRUE
1 0 8 72 0 0 0 0

15798

#HDR
-1
-1
#GR
µM
%T
2.38419e-05
0.0
2.000000
0.002000
12515
8
31.8995
-12.9589
#DATA
2.000000	 0.094962
2.084000	 0.283900
2.168000	 0.189736
2.252000	 -0.357399
2.336000	 0.235977
2.420000	 0.080825
2.504000	 -0.020679
2.588000	 0.169011
2.672000	 0.042916
2.756000	 0.017517
2.840000	 0.095832
2.924000	 0.186830
3.008000	 0.077915
3.092000	 -0.002565
3.176000	 0.080634
3.260000	 -0.006098
3.344000	 -0.051601
3.428000	 -0.039450
3.512000	 0.119734
3.596000	 0.085527
3.680000	 0.076370
3.764000	 0.016980
3.848000	 0.039103
3.932000	 0.018374
4.016000	 0.099786
4.100000	 0.103539
4.184000	 0.029169
4.268000	 0.069726
4.352000	 0.283288
4.436000	 0.679499
4.520000	 2.025673
4.604000	 4.442324
4.688000	 8.257006
4.772000	 12.4329
4.856000	 16.9051
4.940000	 20.5376
5.024000	 23.5152
5.108000	 25.7921
5.192000	 27.6293
5.276000	 28.7631
5.359999	 29.7829
5.444000	 30.4346
5.528000	 30.7828
5.612000	 31.2219
5.696000	 31.3468
5.780000	 31.5344
5.864000	 31.7012
5.948000	 31.8289
6.032000	 31.6987
6.116000	 31.8833
6.200000	 31.6465
6.284000	 31.8262
6.368000	 31.7334
6.452000	 31.7103
6.536000	 31.6957
6.620000	 31.6234
6.704000	 31.6243
6.788000	 31.4599
6.872000	 31.4881
6.956000	 31.1703
7.040000	 31.2897
7.124000	 31.3814
7.208000	 31.1298
7.292000	 31.1208
7.376000	 31.0537
7.460000	 30.8811
7.544000	 30.8849
7.628000	 31.12
7.712000	 30.8006
7.796000	 30.6525
7.880000	 30.8715
7.964000	 30.8909
8.048000	 30.5779
8.132000	 30.4876
8.216000	 30.7297
8.300000	 30.4062
8.384000	 30.1486
8.468000	 30.3119
8.552000	 30.4986
8.635999	 30.353
8.719999	 30.2181
8.804000	 29.9317
8.888000	 29.9706
8.972000	 30.0382
9.056000	 29.9237
9.140000	 29.8357
9.224000	 29.6868
9.308000	 29.8088
9.391999	 29.7942
9.475999	 29.5609
9.560000	 29.4648
9.644000	 29.3618
9.728000	 29.312
9.812000	 29.457
9.896000	 29.5246
9.980000	 29.2089
10.064	29.0895
10.148	29.0966
10.232	29.1795
10.316	29.0178
10.4	28.8159
10.484	28.8627
10.568	28.6798
10.652	28.741
10.736	28.6314
10.82	28.4635
10.904	28.569
10.988	28.3184
11.072	28.0788
11.156	28.0869
11.24	27.9542
11.324	27.9246
11.408	27.9061
11.492	28.1201
11.576	28.0048
11.66	27.7486
11.744	27.5683
11.828	27.4849
11.912	27.4334
11.996	27.2596
12.08	27.2343
12.164	27.1865
12.248	27.1133
12.332	27.1118
12.416	26.906
12.5	26.8005
12.584	26.7251
12.668	26.655
12.752	26.4863
12.836	26.5286
12.92	26.5542
13.004	26.4528
13.088	26.3125
13.172	26.2103
13.256	26.3279
13.34	26.3163
13.424	25.9873
13.508	25.7485
13.592	25.5101
13.676	25.5222
13.76	25.6821
13.844	25.7827
13.928	25.8173
14.012	25.6331
14.096	25.4472
14.18	25.2528
14.264	24.91
14.348	24.7293
14.432	24.6965
14.516	24.6184
14.6	24.6244
14.684	24.6962
14.768	24.7433
14.852	24.8349
14.936	24.949
15.02	24.9736
15.104	24.8409
15.188	24.5424
15.272	24.1797
15.356	23.9638
15.44	23.928
15.524	23.8784
15.608	23.7765
15.692	23.7361
15.776	23.7465
15.86	23.7972
15.944	23.9114
16.028	23.9563
16.112	23.8018
16.196	23.5799
16.28	23.4999
16.364	23.51
16.448	23.4005
16.532	23.1678
16.616	22.9472
16.7	22.7431
16.784	22.5337
16.868	22.4256
16.952	22.4979
17.036	22.6494
17.12	22.7248
17.204	22.6926
17.288	22.626
17.372	22.5591
17.456	22.4601
17.54	22.326
17.624	22.1874
17.708	22.0611
17.792	21.9692
17.876	21.9447
17.96	21.974
18.044	21.9884
18.128	21.937
18.212	21.8185
18.296	21.661
18.38	21.524
18.464	21.475
18.548	21.5191
18.632	21.5731
18.716	21.5491
18.8	21.4331
18.884	21.263
18.968	21.0497
19.052	20.7689
19.136	20.4227
19.22	20.0801
19.304	19.8477
19.388	19.8007
19.472	19.9467
19.556	20.2187
19.64	20.5011
19.724	20.6679
19.808	20.6435
19.892	20.4436
19.976	20.1789
20.06	19.9885
20.144	19.9454
20.228	19.9971
20.312	19.9922
20.396	19.7905
20.48	19.3762
20.564	18.8877
20.648	18.5307
20.732	18.4504
20.816	18.6625
20.9	19.0589
20.984	19.4714
21.068	19.7386
21.152	19.7547
21.236	19.5023
21.32	19.0572
21.404	18.5675
21.488	18.1833
21.572	17.9967
21.656	18.0245
21.74	18.2114
21.824	18.4567
21.908	18.6515
21.992	18.7222
22.076	18.6629
22.16	18.5409
22.244	18.4569
22.328	18.4755
22.412	18.5959
22.496	18.7683
22.58	18.9479
22.664	19.1322
22.748	19.3413
22.832	19.5469
22.916	19.6497
23	19.508
23.084	19.0501
23.168	18.3368
23.252	17.547
23.336	16.9127
23.42	16.578
23.504	16.5105
23.588	16.5547
23.672	16.5533
23.756	16.4239
23.84	16.263
23.924	16.29
24.008	16.7037
24.092	17.5617
24.176	18.7398
24.26	19.9487
24.344	20.8567
24.428	21.2975
24.512	21.3507
24.596	21.3056
24.68	21.5255
24.764	22.243
24.848	23.3731
24.932	24.45
25.016	24.7836
25.1	23.7344
25.184	20.8836
25.268	16.3008
25.352	10.5555
25.436	4.613588
25.52	-0.446637
25.604	-3.744315
25.688	-4.723653
25.772	-3.333794
25.856	0.005480
25.94	4.586321
26.024	9.496183
26.108	13.7782
26.192	16.7382
26.276	17.9786
26.36	17.3685
26.444	14.9932
26.528	11.109
26.612	6.060759
26.696	0.384805
26.78	-5.168264
26.864	-9.723920
26.948	-12.4716
27.028	-12.9589

File: LPE453_t65_cm-1.asc
PE IR       SPECTRUM    SPECTRUM    ASCII       PEDS        1.60
  -1
LP6ADB~1.ASC
17/05/16
19:39:07.00
17/05/16
19:39:07.00
tln
$LPE453_t0065$<tbV0>[-10.4,0.0,8.0,0.0,27,1,0]
370
64

2002,4.07
MIRTGS : RIGHTBACK : INTERNAL 2
MIR : ON : INTERNAL 2
OPTKBR

0.200000
8
8.000000
FILLER
RATIO
SPECTRUM
UNLOCKED 256

DOUBLE
64
COMBINED
1
0
0

1.000000
RATIO

1
0
TRUE
51149
0
LEFT NOT FITTED RIGHT NOT FITTED 0
NONE
NONE
15600
12
4.427000
51148
TRUE
1 0 8 72 0 0 0 0

15798

#HDR
-1
-1
#GR
CM-1
%T
2.38419e-05
0.0
5000
-1.000000
4631
8
31.8995
-12.9589
#DATA
5000	0.094962
4984	0.307559
4968	-0.054097
4952	-0.017619
4936	0.098299
4920	0.215935
4904	-0.070357
4888	0.157642
4872	0.282835
4856	0.255537
4840	-0.036716
4824	0.336956
4808	0.088715
4792	0.732684
4776	-0.139045
4760	-0.269126
4744	-0.125432
4728	0.710463
4712	0.509476
4696	0.805282
4680	-2.231693
4664	0.141882
4648	-0.134301
4632	0.099158
4616	-0.100922
4600	0.673007
4584	-0.135564
4568	0.920915
4552	0.665521
4536	-0.094580
4520	-0.737357
4504	0.817584
4488	-2.348661
4472	3.664970
4456	0.624227
4440	-0.325369
4424	-0.585865
4408	0.266289
4392	0.176000
4376	0.096797
4360	0.314569
4344	0.196146
4328	0.050330
4312	0.566220
4296	0.225353
4280	0.179195
4264	-0.219440
4248	0.280070
4232	0.068497
4216	0.078892
4200	0.328326
4184	-0.039219
4168	0.449705
4152	-0.072169
4136	0.212168
4120	-0.281238
4104	-0.007772
4088	-0.021839
4072	0.043249
4056	-0.021505
4040	0.123167
4024	0.101780
4008	-0.016570
3992	0.042819
3976	0.205326
3960	-0.015974
3944	0.050806
3928	0.227665
3912	0.000691
3896	-0.029611
3880	0.218200
3864	0.169277
3848	0.023436
3832	0.006580
3816	0.123476
3800	0.065565
3784	0.144672
3768	0.109219
3752	0.060558
3736	0.018048
3720	0.105237
3704	0.108337
3688	-0.034451
3672	0.071430
3656	-0.045824
3640	0.133514
3624	0.072908
3608	0.071215
3592	0.091624
3576	0.070428
3560	0.116086
3544	0.021624
3528	0.188422
3512	-0.055980
3496	0.051856
3480	-0.135755
3464	0.093340
3448	0.152230
3432	0.169348
3416	0.108075
3400	-0.011086
3384	-0.069069
3368	0.144004
3352	0.027012
3336	0.046539
3320	0.167322
3304	-0.070381
3288	-0.112557
3272	0.003862
3256	0.013303
3240	0.062799
3224	-0.052022
3208	-0.093007
3192	0.186777
3176	-0.131440
3160	0.081706
3144	0.107955
3128	0.224900
3112	0.100803
3096	0.008296
3080	0.063991
3064	0.040411
3048	0.044417
3032	0.012755
3016	0.007152
3000	0.078773
2984	-0.075674
2968	0.019645
2952	0.008893
2936	-0.025463
2920	-0.060224
2904	0.027608
2888	0.122046
2872	0.069189
2856	-0.021219
2840	0.125741
2824	0.023746
2808	0.038599
2792	0.088834
2776	0.094103
2760	0.055646
2744	0.040054
2728	0.067830
2712	-0.050616
2696	-0.030350
2680	-0.002813
2664	0.069761
2648	0.148653
2632	0.077295
2616	-0.028324
2600	0.055384
2584	-0.074601
2568	0.039863
2552	0.161743
2536	0.017809
2520	0.077247
2504	0.034141
2488	0.021648
2472	0.059485
2456	0.027704
2440	0.065827
2424	0.126934
2408	0.182032
2392	0.030636
2376	0.002431
2360	-0.043344
2344	0.053572
2328	0.083732
2312	0.077033
2296	0.272011
2280	0.268793
2264	0.589847
2248	0.898027
2232	1.365900
2216	1.798224
2200	2.765512
2184	3.634977
2168	4.763436
2152	6.029343
2136	7.927131
2120	9.648895
2104	11.5522
2088	13.3491
2072	15.1402
2056	17.2533
2040	18.7735
2024	20.5621
2008	22.0301
1992	23.3918
1976	24.5456
1960	25.6422
1944	26.674
1928	27.5373
1912	28.1794
1896	28.7362
1880	29.3519
1864	29.8358
1848	30.107
1832	30.5215
1816	30.7124
1800	31.0361
1784	31.1826
1768	31.3609
1752	31.3604
1736	31.5218
1720	31.6277
1704	31.7065
1688	31.7906
1672	31.6885
1656	31.6977
1640	31.8974
1624	31.7697
1608	31.7682
1592	31.8252
1576	31.7144
1560	31.7278
1544	31.73
1528	31.6987
1512	31.6064
1496	31.5817
1480	31.3316
1464	31.4743
1448	31.217
1432	31.223
1416	31.3654
1400	31.3596
1384	31.1483
1368	31.1589
1352	30.9898
1336	30.8666
1320	30.9505
1304	30.9346
1288	30.6961
1272	30.8383
1256	30.8981
1240	30.5447
1224	30.5556
1208	30.5
1192	30.1382
1176	30.4011
1160	30.3996
1144	30.1325
1128	29.9906
1112	30.0319
1096	29.8833
1080	29.7294
1064	29.8064
1048	29.4564
1032	29.3071
1016	29.5915
1000	29.1891
984	 29.1202
968	 28.9987
952	 28.8297
936	 28.7286
920	 28.5419
904	 28.0905
888	 27.932
872	 28.0616
856	 27.6978
840	 27.4414
824	 27.2338
808	 27.0069
792	 26.7015
776	 26.5691
760	 26.2142
744	 25.9304
728	 25.6441
712	 25.5462
696	 24.72
680	 24.7092
664	 24.9315
648	 23.929
632	 23.7662
616	 23.5215
600	 22.8262
584	 22.7253
568	 22.217
552	 21.9489
536	 21.5767
520	 20.0422
504	 20.5807
488	 19.3078
472	 19.6813
456	 18.6837
440	 19.2876
424	 16.5533
408	 21.3514
392	 0.061917
376	 7.102203
370	 -12.9589

File: LPE453_t66.asc
PE IR       SPECTRUM    SPECTRUM    ASCII       PEDS        1.60
  -1
LPDBA1~1.ASC
17/05/16
19:43:44.00
17/05/16
19:44:10.00
tln
$LPE453_t0066$<tbV0>[-13.0,0.0,8.0,0.0,27,1,0]
27.028
64

2002,4.07
MIRTGS : RIGHTBACK : INTERNAL 2
MIR : ON : INTERNAL 2
OPTKBR

0.200000
8
8.000000
FILLER
RATIO
SPECTRUM
UNLOCKED 256

DOUBLE
64
COMBINED
1
0
0

0.002000
RATIO

1
0
TRUE
51149
0
LEFT NOT FITTED RIGHT NOT FITTED 0
NONE
NONE
15600
12
4.427000
51148
TRUE
1 0 8 72 0 0 0 0

15798

#HDR
-1
-1
#GR
µM
%T
2.38419e-05
0.0
2.000000
0.002000
12515
8
40.0426
-3.688245
#DATA
2.000000	 0.444149
2.084000	 0.005437
2.168000	 0.088161
2.252000	 -0.077196
2.336000	 0.055363
2.420000	 0.041491
2.504000	 0.051529
2.588000	 -0.163911
2.672000	 0.126897
2.756000	 -0.035986
2.840000	 -0.066986
2.924000	 0.052782
3.008000	 0.093530
3.092000	 0.060374
3.176000	 0.174083
3.260000	 -0.013103
3.344000	 0.041208
3.428000	 0.132827
3.512000	 -0.034508
3.596000	 -0.002472
3.680000	 0.027854
3.764000	 0.018625
3.848000	 -0.079571
3.932000	 0.066712
4.016000	 0.014384
4.100000	 0.185616
4.184000	 0.050450
4.268000	 -0.133735
4.352000	 0.056233
4.436000	 0.495195
4.520000	 1.486013
4.604000	 3.326498
4.688000	 6.123423
4.772000	 9.661075
4.856000	 13.2371
4.940000	 16.6798
5.024000	 19.2838
5.108000	 21.571
5.192000	 23.4217
5.276000	 24.7835
5.359999	 25.737
5.444000	 26.6571
5.528000	 27.2778
5.612000	 27.8362
5.696000	 28.3447
5.780000	 28.2675
5.864000	 28.9791
5.948000	 28.8748
6.032000	 29.3822
6.116000	 29.1061
6.200000	 29.4953
6.284000	 29.3254
6.368000	 29.5806
6.452000	 29.635
6.536000	 29.519
6.620000	 29.7296
6.704000	 29.4865
6.788000	 29.8509
6.872000	 29.7076
6.956000	 29.5539
7.040000	 29.7594
7.124000	 29.4707
7.208000	 29.5009
7.292000	 29.5901
7.376000	 29.3126
7.460000	 29.3328
7.544000	 29.4645
7.628000	 29.2631
7.712000	 28.9979
7.796000	 29.3856
7.880000	 29.1563
7.964000	 28.932
8.048000	 29.0623
8.132000	 29.1584
8.216000	 28.8227
8.300000	 28.575
8.384000	 28.8358
8.468000	 28.9418
8.552000	 28.5302
8.635999	 28.054
8.719999	 28.3815
8.804000	 28.459
8.888000	 28.3447
8.972000	 27.9438
9.056000	 27.8428
9.140000	 28.0225
9.224000	 28.1275
9.308000	 27.7478
9.391999	 27.3549
9.475999	 27.4068
9.560000	 27.5882
9.644000	 27.6338
9.728000	 27.4232
9.812000	 26.9883
9.896000	 26.8595
9.980000	 27.0117
10.064	27.0791
10.148	26.9082
10.232	26.5647
10.316	26.2063
10.4	26.2024
10.484	26.2798
10.568	26.4629
10.652	26.5524
10.736	26.0598
10.82	25.7813
10.904	25.3071
10.988	25.4145
11.072	25.6125
11.156	25.7372
11.24	25.6306
11.324	25.1415
11.408	24.8476
11.492	24.8639
11.576	24.8599
11.66	24.8348
11.744	24.7937
11.828	24.7919
11.912	24.7235
11.996	24.4907
12.08	24.0282
12.164	23.9299
12.248	23.945
12.332	23.8617
12.416	24.0374
12.5	24.059
12.584	23.9943
12.668	23.8828
12.752	23.6013
12.836	23.4211
12.92	23.1396
13.004	23.0078
13.088	23.2648
13.172	23.3064
13.256	23.1701
13.34	23.298
13.424	23.237
13.508	22.7135
13.592	22.2296
13.676	22.3408
13.76	22.5093
13.844	22.3753
13.928	22.2366
14.012	22.2012
14.096	22.3156
14.18	22.4123
14.264	22.3397
14.348	22.196
14.432	21.9136
14.516	21.5778
14.6	21.4649
14.684	21.4613
14.768	21.3868
14.852	21.3791
14.936	21.4528
15.02	21.3571
15.104	21.1978
15.188	21.3252
15.272	21.5945
15.356	21.5935
15.44	21.2444
15.524	20.7988
15.608	20.501
15.692	20.367
15.776	20.2822
15.86	20.2306
15.944	20.2354
16.028	20.1915
16.112	20.1006
16.196	20.1354
16.28	20.2599
16.364	20.28
16.448	20.2109
16.532	20.1478
16.616	20.0785
16.7	20.0025
16.784	19.9432
16.868	19.8808
16.952	19.8012
17.036	19.7105
17.12	19.5945
17.204	19.4308
17.288	19.2039
17.372	18.944
17.456	18.7591
17.54	18.7409
17.624	18.8489
17.708	18.9648
17.792	19.0246
17.876	19.0441
17.96	19.0773
18.044	19.1499
18.128	19.1847
18.212	19.0666
18.296	18.8038
18.38	18.5493
18.464	18.426
18.548	18.4112
18.632	18.4252
18.716	18.4485
18.8	18.4946
18.884	18.5349
18.968	18.4907
19.052	18.2956
19.136	17.9686
19.22	17.6288
19.304	17.4341
19.388	17.4718
19.472	17.6936
19.556	17.9501
19.64	18.0958
19.724	18.0769
19.808	17.9337
19.892	17.7449
19.976	17.5703
20.06	17.4246
20.144	17.3044
20.228	17.2212
20.312	17.2055
20.396	17.2773
20.48	17.4067
20.564	17.5094
20.648	17.4987
20.732	17.3457
20.816	17.1142
20.9	16.9263
20.984	16.8832
21.068	16.991
21.152	17.1509
21.236	17.225
21.32	17.1433
21.404	16.9578
21.488	16.8021
21.572	16.7725
21.656	16.8423
21.74	16.8779
21.824	16.7351
21.908	16.3833
21.992	15.9427
22.076	15.6035
22.16	15.504
22.244	15.6151
22.328	15.7742
22.412	15.7952
22.496	15.5752
22.58	15.1415
22.664	14.5885
22.748	14.0173
22.832	13.507
22.916	13.119
23	12.9173
23.084	12.9715
23.168	13.3224
23.252	13.9462
23.336	14.759
23.42	15.6386
23.504	16.4626
23.588	17.1265
23.672	17.5455
23.756	17.6511
23.84	17.3977
23.924	16.7866
24.008	15.8479
24.092	14.6296
24.176	13.2367
24.26	11.7977
24.344	10.504
24.428	9.585714
24.512	9.281203
24.596	9.713095
24.68	10.8743
24.764	12.6255
24.848	14.6832
24.932	16.6601
25.016	18.1864
25.1	19.0058
25.184	19.0156
25.268	18.3114
25.352	17.1415
25.436	15.8956
25.52	15.0108
25.604	14.8719
25.688	15.7857
25.772	17.9147
25.856	21.2343
25.94	25.5241
26.024	30.3099
26.108	34.8913
26.192	38.4141
26.276	40.0135
26.36	38.9951
26.444	35.1666
26.528	28.9897
26.612	21.5408
26.696	14.2267
26.78	8.402318
26.864	4.989291
26.948	4.247177
27.028	5.628299