Folder: Masteroppgave/Bakgrunnsmateriale/MATLAB/FTIR/ftir_data/LPE453/Mapping_121 (part 35)

File: LPE453_t79.asc
PE IR       SPECTRUM    SPECTRUM    ASCII       PEDS        1.60
  -1
LPEFAD~1.ASC
17/05/16
20:51:01.00
17/05/16
20:51:27.00
tln
$LPE453_t0079$<tbV0>[10.4,5.2,8.0,0.0,27,1,0]
27.028
64

2002,4.07
MIRTGS : RIGHTBACK : INTERNAL 2
MIR : ON : INTERNAL 2
OPTKBR

0.200000
8
8.000000
FILLER
RATIO
SPECTRUM
UNLOCKED 256

DOUBLE
64
COMBINED
1
0
0

0.002000
RATIO

1
0
TRUE
51149
0
LEFT NOT FITTED RIGHT NOT FITTED 0
NONE
NONE
15600
12
4.427000
51148
TRUE
1 0 8 72 0 0 0 0

15798

#HDR
-1
-1
#GR
µM
%T
2.38419e-05
0.0
2.000000
0.002000
12515
8
28.5321
-4.001184
#DATA
2.000000	 0.505256
2.084000	 0.771159
2.168000	 -0.434425
2.252000	 -0.654139
2.336000	 0.206564
2.420000	 0.151729
2.504000	 -0.173606
2.588000	 0.175152
2.672000	 -0.068529
2.756000	 0.183933
2.840000	 0.021587
2.924000	 0.053412
3.008000	 -0.116592
3.092000	 -0.039000
3.176000	 -0.022146
3.260000	 0.132429
3.344000	 0.065711
3.428000	 -0.032603
3.512000	 0.085939
3.596000	 0.015885
3.680000	 0.078024
3.764000	 0.053149
3.848000	 0.047428
3.932000	 -0.060963
4.016000	 0.053701
4.100000	 -0.018069
4.184000	 -0.043658
4.268000	 0.068561
4.352000	 0.003829
4.436000	 0.438170
4.520000	 1.170108
4.604000	 2.857555
4.688000	 5.684066
4.772000	 9.059258
4.856000	 12.8639
4.940000	 16.1111
5.024000	 18.9903
5.108000	 21.4302
5.192000	 23.5777
5.276000	 24.723
5.359999	 25.7177
5.444000	 26.6148
5.528000	 27.1013
5.612000	 27.4608
5.696000	 28.0155
5.780000	 27.9112
5.864000	 28.2421
5.948000	 28.2667
6.032000	 28.3813
6.116000	 28.3731
6.200000	 28.3583
6.284000	 28.2657
6.368000	 28.2904
6.452000	 28.1853
6.536000	 28.3813
6.620000	 28.1481
6.704000	 28.4101
6.788000	 28.0207
6.872000	 28.0945
6.956000	 28.1705
7.040000	 27.8156
7.124000	 28.2103
7.208000	 27.9726
7.292000	 27.7258
7.376000	 28.1416
7.460000	 27.747
7.544000	 27.5699
7.628000	 27.9352
7.712000	 27.5754
7.796000	 27.3697
7.880000	 27.7694
7.964000	 27.521
8.048000	 27.3442
8.132000	 27.3886
8.216000	 27.6447
8.300000	 27.1249
8.384000	 26.9268
8.468000	 27.4152
8.552000	 27.4312
8.635999	 26.9811
8.719999	 26.6111
8.804000	 27.0172
8.888000	 27.2207
8.972000	 26.7634
9.056000	 26.3855
9.140000	 26.5166
9.224000	 26.741
9.308000	 26.7795
9.391999	 26.2501
9.475999	 26.0993
9.560000	 26.257
9.644000	 26.4294
9.728000	 26.0611
9.812000	 25.903
9.896000	 25.7504
9.980000	 25.7828
10.064	25.9053
10.148	25.9285
10.232	25.686
10.316	25.1618
10.4	25.288
10.484	25.3772
10.568	25.4972
10.652	25.2798
10.736	24.9347
10.82	24.6708
10.904	24.7757
10.988	24.8697
11.072	24.8784
11.156	24.7439
11.24	24.7502
11.324	24.5372
11.408	24.1512
11.492	23.7764
11.576	23.9209
11.66	24.1524
11.744	24.2631
11.828	24.0587
11.912	23.6534
11.996	23.3542
12.08	23.246
12.164	23.2611
12.248	23.4074
12.332	23.5411
12.416	23.5916
12.5	23.3598
12.584	23.0752
12.668	22.7937
12.752	22.6959
12.836	22.5655
12.92	22.4891
13.004	22.4206
13.088	22.5655
13.172	22.8183
13.256	22.8043
13.34	22.5818
13.424	21.9857
13.508	21.6897
13.592	21.6622
13.676	21.4957
13.76	21.6152
13.844	21.7628
13.928	21.6536
14.012	21.5998
14.096	21.5979
14.18	21.4051
14.264	21.1492
14.348	20.9627
14.432	20.6875
14.516	20.4846
14.6	20.5147
14.684	20.602
14.768	20.7695
14.852	20.9022
14.936	20.7861
15.02	20.6314
15.104	20.5034
15.188	20.2932
15.272	20.0953
15.356	19.9039
15.44	19.7049
15.524	19.6041
15.608	19.5462
15.692	19.4385
15.776	19.3819
15.86	19.4449
15.944	19.4815
16.028	19.31
16.112	19.0005
16.196	18.8475
16.28	18.9482
16.364	19.0435
16.448	18.9221
16.532	18.6917
16.616	18.5466
16.7	18.5305
16.784	18.5986
16.868	18.7161
16.952	18.8159
17.036	18.8245
17.12	18.7599
17.204	18.694
17.288	18.6522
17.372	18.6127
17.456	18.5404
17.54	18.4005
17.624	18.2266
17.708	18.1097
17.792	18.0524
17.876	17.9306
17.96	17.6676
18.044	17.3466
18.128	17.1093
18.212	17.0335
18.296	17.1143
18.38	17.2657
18.464	17.356
18.548	17.3108
18.632	17.1725
18.716	17.0434
18.8	16.9861
18.884	16.9895
18.968	16.9959
19.052	16.9298
19.136	16.7487
19.22	16.5024
19.304	16.3159
19.388	16.2881
19.472	16.3919
19.556	16.4907
19.64	16.4599
19.724	16.2938
19.808	16.0917
19.892	15.9479
19.976	15.8678
20.06	15.7932
20.144	15.7033
20.228	15.6655
20.312	15.7642
20.396	15.9868
20.48	16.1958
20.564	16.2369
20.648	16.076
20.732	15.8317
20.816	15.6629
20.9	15.6267
20.984	15.6369
21.068	15.5551
21.152	15.3117
21.236	14.9596
21.32	14.6272
21.404	14.4196
21.488	14.3538
21.572	14.3759
21.656	14.4212
21.74	14.4564
21.824	14.4869
21.908	14.5272
21.992	14.5732
22.076	14.6105
22.16	14.6333
22.244	14.6523
22.328	14.681
22.412	14.6994
22.496	14.6503
22.58	14.4982
22.664	14.2667
22.748	14.0455
22.832	13.9348
22.916	13.9721
23	14.0873
23.084	14.1481
23.168	14.0309
23.252	13.7133
23.336	13.2887
23.42	12.9153
23.504	12.754
23.588	12.9
23.672	13.3473
23.756	13.9783
23.84	14.6106
23.924	15.0021
24.008	14.9363
24.092	14.3071
24.176	13.1533
24.26	11.6763
24.344	10.1986
24.428	9.018947
24.512	8.330418
24.596	8.167304
24.68	8.435037
24.764	8.972008
24.848	9.658018
24.932	10.4546
25.016	11.3796
25.1	12.4339
25.184	13.4856
25.268	14.2427
25.352	14.3294
25.436	13.4466
25.52	11.5285
25.604	8.753243
25.688	5.508582
25.772	2.254315
25.856	-0.617466
25.94	-2.762821
26.024	-3.887661
26.108	-3.794551
26.192	-2.458280
26.276	-0.030540
26.36	3.148274
26.444	6.617861
26.528	9.906742
26.612	12.6853
26.696	14.7631
26.78	16.0929
26.864	16.6611
26.948	16.437
27.028	15.5

File: LPE453_t79_cm-1.asc
PE IR       SPECTRUM    SPECTRUM    ASCII       PEDS        1.60
  -1
LPEADC~1.ASC
17/05/16
20:51:01.00
17/05/16
20:51:01.00
tln
$LPE453_t0079$<tbV0>[10.4,5.2,8.0,0.0,27,1,0]
370
64

2002,4.07
MIRTGS : RIGHTBACK : INTERNAL 2
MIR : ON : INTERNAL 2
OPTKBR

0.200000
8
8.000000
FILLER
RATIO
SPECTRUM
UNLOCKED 256

DOUBLE
64
COMBINED
1
0
0

1.000000
RATIO

1
0
TRUE
51149
0
LEFT NOT FITTED RIGHT NOT FITTED 0
NONE
NONE
15600
12
4.427000
51148
TRUE
1 0 8 72 0 0 0 0

15798

#HDR
-1
-1
#GR
CM-1
%T
2.38419e-05
0.0
5000
-1.000000
4631
8
28.5308
-3.973007
#DATA
5000	0.505256
4984	0.232887
4968	0.108242
4952	-0.145125
4936	0.336265
4920	0.336170
4904	0.363707
4888	0.197172
4872	-0.082063
4856	0.241756
4840	0.267553
4824	0.221347
4808	0.414299
4792	0.647473
4776	0.397348
4760	0.141096
4744	0.313663
4728	0.528097
4712	-0.142407
4696	-0.114250
4680	0.607752
4664	0.171542
4648	-2.077627
4632	-0.626564
4616	-0.856399
4600	0.180220
4584	-0.260257
4568	-0.547385
4552	-1.257085
4536	-1.298737
4520	-0.428199
4504	1.222991
4488	11.0208
4472	-1.191926
4456	-0.688362
4440	-0.677084
4424	-0.327944
4408	0.267457
4392	0.320625
4376	0.282335
4360	0.381684
4344	0.045728
4328	-0.164747
4312	-0.093770
4296	0.168752
4280	0.170254
4264	-0.066566
4248	-0.125551
4232	0.104141
4216	-0.058984
4200	0.213193
4184	0.290656
4168	0.279879
4152	0.096702
4136	0.250101
4120	0.096082
4104	0.022172
4088	0.072407
4072	0.160717
4056	0.022435
4040	0.093483
4024	-0.001287
4008	0.141382
3992	-0.173568
3976	0.218796
3960	0.181674
3944	0.012516
3928	0.065350
3912	-0.048899
3896	0.121378
3880	0.090599
3864	0.175261
3848	-0.102066
3832	0.113630
3816	-0.166893
3800	0.036811
3784	-0.038218
3768	0.108194
3752	0.082969
3736	-0.058794
3720	0.008964
3704	0.220489
3688	0.107312
3672	0.135993
3656	0.125861
3640	0.107169
3624	0.154948
3608	0.018048
3592	0.011968
3576	0.070476
3560	0.049209
3544	-0.044631
3528	0.097846
3512	0.012803
3496	0.137448
3480	-0.041818
3464	-0.011062
3448	0.151586
3432	0.031208
3416	0.053620
3400	-0.077867
3384	0.150966
3368	0.097036
3352	0.174021
3336	-0.075006
3320	-0.103759
3304	0.200152
3288	-0.027132
3272	-0.011110
3256	0.084877
3240	0.033164
3224	-0.065779
3208	0.014448
3192	0.158333
3176	0.020956
3160	0.079727
3144	0.028204
3128	0.121855
3112	0.040292
3096	-0.024962
3080	0.029897
3064	0.035667
3048	0.030899
3032	0.124597
3016	0.213646
3000	0.068950
2984	0.024962
2968	0.107336
2952	0.099515
2936	0.104761
2920	-0.098514
2904	-0.116252
2888	0.050616
2872	0.047421
2856	0.073456
2840	0.077819
2824	0.008964
2808	0.039815
2792	0.065469
2776	0.050830
2760	-0.027465
2744	0.000977
2728	0.061154
2712	0.024890
2696	0.095844
2680	0.092840
2664	-0.058197
2648	0.010013
2632	0.105595
2616	0.030589
2600	0.051188
2584	0.140237
2568	0.030159
2552	0.080227
2536	-0.032734
2520	0.054430
2504	-0.049161
2488	0.060439
2472	0.007057
2456	0.000977
2440	-0.030708
2424	-0.019145
2408	-0.015974
2392	-0.051307
2376	0.116801
2360	0.034236
2344	0.075387
2328	0.029301
2312	0.017356
2296	0.010013
2280	0.243520
2264	0.234103
2248	0.411987
2232	0.674223
2216	1.036548
2200	1.423525
2184	2.245044
2168	3.099131
2152	4.144763
2136	5.381202
2120	6.710076
2104	8.186411
2088	9.780478
2072	11.4465
2056	13.199
2040	14.6518
2024	16.1411
2008	17.7124
1992	18.8778
1976	20.2615
1960	21.3335
1944	22.2836
1928	23.475
1912	23.9869
1896	24.6919
1880	25.4576
1864	25.738
1848	26.4862
1832	26.6675
1816	26.8952
1800	27.4077
1784	27.4408
1768	27.6429
1752	28.0661
1736	27.804
1720	28.2119
1704	28.2182
1688	28.1794
1672	28.3105
1656	28.3485
1640	28.3448
1624	28.474
1608	28.244
1592	28.2451
1576	28.4502
1560	28.1334
1544	28.3399
1528	28.3764
1512	28.1487
1496	28.3956
1480	28.213
1464	27.9751
1448	28.1885
1432	28.01
1416	27.9554
1400	28.2432
1384	27.8659
1368	27.8538
1352	28.0848
1336	27.606
1320	27.7063
1304	27.8274
1288	27.3237
1272	27.6576
1256	27.5306
1240	27.2854
1224	27.5464
1208	27.2197
1192	26.9245
1176	27.5685
1160	27.075
1144	26.7168
1128	27.2581
1112	26.595
1096	26.4935
1080	26.8573
1064	26.2267
1048	26.2144
1032	26.2868
1016	25.7858
1000	25.8219
984	 25.9035
968	 25.1558
952	 25.4266
936	 25.1563
920	 24.6899
904	 24.8877
888	 24.7279
872	 23.8399
856	 24.1999
840	 23.6873
824	 23.2407
808	 23.5957
792	 22.9221
776	 22.5045
760	 22.7972
744	 21.8793
728	 21.5497
712	 21.6094
696	 20.9079
680	 20.6344
664	 20.5779
648	 19.7205
632	 19.4074
616	 18.8713
600	 18.5244
584	 18.7569
568	 18.2626
552	 17.1343
536	 17.1292
520	 16.4724
504	 16.0251
488	 16.2142
472	 15.1736
456	 14.5392
440	 14.093
424	 12.889
408	 8.341622
392	 11.8005
376	 12.2011
370	 15.5

File: LPE453_t80.asc
PE IR       SPECTRUM    SPECTRUM    ASCII       PEDS        1.60
  -1
LPC3B9~1.ASC
17/05/16
20:55:38.00
17/05/16
20:56:04.00
tln
$LPE453_t0080$<tbV0>[7.8,5.2,8.0,0.0,27,1,0]
27.028
64

2002,4.07
MIRTGS : RIGHTBACK : INTERNAL 2
MIR : ON : INTERNAL 2
OPTKBR

0.200000
8
8.000000
FILLER
RATIO
SPECTRUM
UNLOCKED 256

DOUBLE
64
COMBINED
1
0
0

0.002000
RATIO

1
0
TRUE
51149
0
LEFT NOT FITTED RIGHT NOT FITTED 0
NONE
NONE
15600
12
4.427000
51148
TRUE
1 0 8 72 0 0 0 0

15798

#HDR
-1
-1
#GR
µM
%T
2.38419e-05
0.0
2.000000
0.002000
12515
8
31.2417
-11.2108
#DATA
2.000000	 0.062441
2.084000	 -0.072306
2.168000	 0.211872
2.252000	 0.563897
2.336000	 0.199202
2.420000	 0.274889
2.504000	 0.229182
2.588000	 0.044474
2.672000	 -0.113911
2.756000	 0.158340
2.840000	 0.067705
2.924000	 -0.070072
3.008000	 0.129061
3.092000	 0.042332
3.176000	 0.119416
3.260000	 0.133419
3.344000	 -0.030746
3.428000	 0.003888
3.512000	 -0.041592
3.596000	 0.007582
3.680000	 0.148092
3.764000	 0.143610
3.848000	 0.069198
3.932000	 0.029954
4.016000	 0.173824
4.100000	 -0.058521
4.184000	 0.025854
4.268000	 0.132975
4.352000	 0.112744
4.436000	 0.570111
4.520000	 1.708944
4.604000	 4.041839
4.688000	 7.548731
4.772000	 11.5674
4.856000	 15.5308
4.940000	 19.2801
5.024000	 22.3236
5.108000	 24.6543
5.192000	 26.4208
5.276000	 27.833
5.359999	 28.7763
5.444000	 29.4972
5.528000	 29.9409
5.612000	 30.4018
5.696000	 30.579
5.780000	 30.6884
5.864000	 30.9507
5.948000	 30.9018
6.032000	 31.1436
6.116000	 31.043
6.200000	 31.2102
6.284000	 31.0918
6.368000	 31.0003
6.452000	 31.0709
6.536000	 30.9346
6.620000	 30.942
6.704000	 30.8861
6.788000	 30.8821
6.872000	 30.6272
6.956000	 30.7493
7.040000	 30.7826
7.124000	 30.63
7.208000	 30.6421
7.292000	 30.6179
7.376000	 30.3934
7.460000	 30.397
7.544000	 30.3455
7.628000	 30.2014
7.712000	 30.2828
7.796000	 30.2445
7.880000	 30.1173
7.964000	 30.0743
8.048000	 29.9759
8.132000	 29.9943
8.216000	 30.0225
8.300000	 29.7378
8.384000	 29.842
8.468000	 29.7982
8.552000	 29.5998
8.635999	 29.5522
8.719999	 29.4592
8.804000	 29.3539
8.888000	 29.297
8.972000	 29.3314
9.056000	 29.1851
9.140000	 29.2704
9.224000	 29.079
9.308000	 28.8654
9.391999	 28.8902
9.475999	 28.8841
9.560000	 28.9212
9.644000	 28.6769
9.728000	 28.5652
9.812000	 28.3284
9.896000	 28.4228
9.980000	 28.3683
10.064	28.3622
10.148	28.2582
10.232	28.0016
10.316	27.8565
10.4	28.0102
10.484	27.9083
10.568	27.7251
10.652	27.5516
10.736	27.4052
10.82	27.4244
10.904	27.3684
10.988	27.4659
11.072	27.2384
11.156	27.003
11.24	26.7188
11.324	26.7146
11.408	26.8365
11.492	26.5855
11.576	26.5839
11.66	26.6924
11.744	26.6167
11.828	26.4949
11.912	26.1999
11.996	25.9516
12.08	25.8973
12.164	26.0122
12.248	25.9057
12.332	25.5872
12.416	25.5945
12.5	25.6446
12.584	25.7049
12.668	25.5594
12.752	25.2928
12.836	25.1685
12.92	25.1649
13.004	25.1932
13.088	25.1301
13.172	25.0362
13.256	25.0749
13.34	24.9784
13.424	24.6276
13.508	24.3358
13.592	24.1897
13.676	24.143
13.76	24.118
13.844	24.1353
13.928	24.1824
14.012	24.1454
14.096	24.0175
14.18	23.8341
14.264	23.6635
14.348	23.4914
14.432	23.4106
14.516	23.5007
14.6	23.4853
14.684	23.3107
14.768	23.175
14.852	23.2068
14.936	23.4022
15.02	23.4819
15.104	23.3006
15.188	23.091
15.272	22.9498
15.356	22.8131
15.44	22.7047
15.524	22.5648
15.608	22.3766
15.692	22.2953
15.776	22.3287
15.86	22.2452
15.944	21.9707
16.028	21.7951
16.112	21.8618
16.196	21.8821
16.28	21.6544
16.364	21.3599
16.448	21.2478
16.532	21.3219
16.616	21.3769
16.7	21.2691
16.784	21.0919
16.868	21.0252
16.952	21.1018
17.036	21.1617
17.12	21.0113
17.204	20.6512
17.288	20.3123
17.372	20.223
17.456	20.3841
17.54	20.6049
17.624	20.7021
17.708	20.6267
17.792	20.4396
17.876	20.2134
17.96	19.9779
18.044	19.7429
18.128	19.5443
18.212	19.4487
18.296	19.4924
18.38	19.6095
18.464	19.6743
18.548	19.6269
18.632	19.5299
18.716	19.4713
18.8	19.4557
18.884	19.4289
18.968	19.3706
19.052	19.3161
19.136	19.3038
19.22	19.3381
19.304	19.3961
19.388	19.4476
19.472	19.4665
19.556	19.44
19.64	19.374
19.724	19.2748
19.808	19.1326
19.892	18.9277
19.976	18.658
20.06	18.3523
20.144	18.0642
20.228	17.8439
20.312	17.7085
20.396	17.6345
20.48	17.5855
20.564	17.5471
20.648	17.5334
20.732	17.5606
20.816	17.6182
20.9	17.6698
20.984	17.7013
21.068	17.7398
21.152	17.8296
21.236	17.9816
21.32	18.1426
21.404	18.2235
21.488	18.1596
21.572	17.9628
21.656	17.7272
21.74	17.5775
21.824	17.5964
21.908	17.7574
21.992	17.9222
22.076	17.9091
22.16	17.5944
22.244	17.0103
22.328	16.3329
22.412	15.7884
22.496	15.5342
22.58	15.5784
22.664	15.8083
22.748	16.0566
22.832	16.1966
22.916	16.1664
23	15.9643
23.084	15.6242
23.168	15.1897
23.252	14.702
23.336	14.2188
23.42	13.8074
23.504	13.5267
23.588	13.4134
23.672	13.4699
23.756	13.6581
23.84	13.93
23.924	14.2407
24.008	14.535
24.092	14.735
24.176	14.767
24.26	14.6131
24.344	14.3348
24.428	14.063
24.512	13.9968
24.596	14.2797
24.68	14.943
24.764	15.8821
24.848	16.8801
24.932	17.6508
25.016	17.9462
25.1	17.6119
25.184	16.6345
25.268	15.1838
25.352	13.5825
25.436	12.184
25.52	11.3175
25.604	11.2539
25.688	12.0379
25.772	13.4119
25.856	14.8922
25.94	15.9178
26.024	15.9991
26.108	14.8958
26.192	12.6293
26.276	9.447071
26.36	5.696127
26.444	1.922381
26.528	-1.309080
26.612	-3.587735
26.696	-4.920773
26.78	-5.799067
26.864	-6.978962
26.948	-8.933522
27.028	-11.2108

File: LPE453_t80_cm-1.asc
PE IR       SPECTRUM    SPECTRUM    ASCII       PEDS        1.60
  -1
LP5B55~1.ASC
17/05/16
20:55:38.00
17/05/16
20:55:38.00
tln
$LPE453_t0080$<tbV0>[7.8,5.2,8.0,0.0,27,1,0]
370
64

2002,4.07
MIRTGS : RIGHTBACK : INTERNAL 2
MIR : ON : INTERNAL 2
OPTKBR

0.200000
8
8.000000
FILLER
RATIO
SPECTRUM
UNLOCKED 256

DOUBLE
64
COMBINED
1
0
0

1.000000
RATIO

1
0
TRUE
51149
0
LEFT NOT FITTED RIGHT NOT FITTED 0
NONE
NONE
15600
12
4.427000
51148
TRUE
1 0 8 72 0 0 0 0

15798

#HDR
-1
-1
#GR
CM-1
%T
2.38419e-05
0.0
5000
-1.000000
4631
8
31.2418
-11.2108
#DATA
5000	0.062441
4984	0.406980
4968	0.034809
4952	-0.372743
4936	-0.199198
4920	0.055027
4904	0.003695
4888	0.284171
4872	0.544071
4856	-0.225806
4840	0.461649
4824	0.494670
4808	0.099182
4792	-0.018239
4776	0.395607
4760	-0.274109
4744	-0.233793
4728	-0.320672
4712	0.091481
4696	0.619316
4680	0.079560
4664	1.192402
4648	0.753855
4632	1.652288
4616	-0.102138
4600	0.524759
4584	-0.380063
4568	0.020980
4552	1.301980
4536	-0.839900
4520	-0.580215
4504	-0.729799
4488	4.398584
4472	0.447368
4456	0.112223
4440	0.563764
4424	0.408363
4408	0.521564
4392	0.338697
4376	-0.009870
4360	0.194740
4344	-0.117206
4328	-0.071382
4312	0.261807
4296	0.127434
4280	0.154185
4264	-0.090670
4248	-0.084352
4232	-0.401139
4216	-0.154113
4200	0.236129
4184	0.549554
4168	-0.044727
4152	-0.116395
4136	0.258541
4120	0.147604
4104	0.260329
4088	0.235462
4072	-0.028681
4056	-0.131177
4040	0.168347
4024	0.206923
4008	-0.039196
3992	0.222134
3976	0.179290
3960	0.171422
3944	-0.070762
3928	0.165867
3912	0.067520
3896	0.109601
3880	0.065469
3864	0.044393
3848	0.017642
3832	-0.014662
3816	0.028085
3800	0.020265
3784	0.167202
3768	-0.002551
3752	-0.016212
3736	-0.017452
3720	0.046586
3704	-0.029301
3688	0.014996
3672	0.083279
3656	0.043559
3640	-0.026631
3624	0.025820
3608	-0.031661
3592	0.149035
3576	0.208497
3560	0.107622
3544	0.250506
3528	0.001597
3512	0.120210
3496	0.120377
3480	0.032114
3464	0.039434
3448	0.086760
3432	0.146055
3416	-0.038123
3400	-0.006031
3384	0.229454
3368	0.028204
3352	0.065612
3336	-0.009059
3320	0.036287
3304	0.105476
3288	0.133895
3272	-0.039982
3256	-0.019478
3240	0.234675
3224	-0.022554
3208	-0.092482
3192	0.155925
3176	0.098586
3160	0.081467
3144	0.197958
3128	0.076842
3112	-0.069546
3096	-0.154662
3080	0.108742
3064	0.097775
3048	0.071310
3032	0.104832
3016	-0.052952
3000	0.072002
2984	-0.071454
2968	0.097131
2952	-0.059938
2936	0.008130
2920	-0.019860
2904	0.177168
2888	0.054764
2872	0.099706
2856	0.049018
2840	0.036287
2824	0.001931
2808	0.046277
2792	-0.091481
2776	-0.056123
2760	0.144028
2744	0.044155
2728	0.051116
2712	0.050354
2696	-0.039815
2680	0.012922
2664	0.090575
2648	0.120472
2632	-0.109982
2616	-0.006079
2600	0.059342
2584	0.072431
2568	0.003027
2552	0.084829
2536	-0.066518
2520	0.091314
2504	0.013232
2488	0.115919
2472	0.083923
2456	0.174236
2440	-0.065660
2424	-0.005888
2408	0.015401
2392	0.031375
2376	-0.006675
2360	-0.003528
2344	0.134181
2328	0.069260
2312	0.060701
2296	0.152611
2280	0.338649
2264	0.420308
2248	0.760173
2232	1.074266
2216	1.554226
2200	2.264046
2184	3.190231
2168	4.275798
2152	5.663275
2136	7.241582
2120	8.746433
2104	10.601
2088	12.2964
2072	14.205
2056	15.8232
2040	17.7494
2024	19.3098
2008	20.8758
1992	22.1917
1976	23.4476
1960	24.4931
1944	25.4657
1928	26.3436
1912	27.1208
1896	27.804
1880	28.3572
1864	28.7835
1848	29.2902
1832	29.5447
1816	29.7911
1800	30.3131
1784	30.3811
1768	30.4644
1752	30.5785
1736	30.7244
1720	30.806
1704	30.9503
1688	30.8975
1672	30.9985
1656	31.1191
1640	31.0835
1624	31.0024
1608	31.2273
1592	31.0879
1576	31.0234
1560	31.0673
1544	31.0258
1528	30.9347
1512	30.9461
1496	30.9679
1480	30.8528
1464	30.8147
1448	30.6408
1432	30.7072
1416	30.7931
1400	30.6386
1384	30.655
1368	30.6716
1352	30.3948
1336	30.4505
1320	30.3199
1304	30.2303
1288	30.253
1272	30.1638
1256	30.0703
1240	29.96
1224	29.9591
1208	29.7725
1192	29.8355
1176	29.7108
1160	29.5738
1144	29.4052
1128	29.3042
1112	29.3115
1096	29.2692
1080	28.9666
1064	28.8878
1048	28.9003
1032	28.6642
1016	28.3402
1000	28.3789
984	 28.2307
968	 27.9044
952	 27.8787
936	 27.4479
920	 27.3587
904	 27.2741
888	 26.6676
872	 26.6635
856	 26.6799
840	 26.2282
824	 25.9749
808	 25.5566
792	 25.6753
776	 25.1489
760	 25.0461
744	 24.5581
728	 24.1235
712	 24.1044
696	 23.4556
680	 23.2652
664	 23.4175
648	 22.7146
632	 22.3109
616	 21.8069
600	 21.3301
584	 21.0003
568	 20.6961
552	 19.5681
536	 19.5064
520	 19.3448
504	 19.0596
488	 17.5794
472	 17.886
456	 17.8071
440	 16.0017
424	 13.4145
408	 13.9943
392	 11.3792
376	 -3.230595
370	 -11.2108

File: LPE453_t81.asc
PE IR       SPECTRUM    SPECTRUM    ASCII       PEDS        1.60
  -1
LPC3BD~1.ASC
17/05/16
21:00:14.00
17/05/16
21:00:40.00
tln
$LPE453_t0081$<tbV0>[5.2,5.2,8.0,0.0,27,1,0]
27.028
64

2002,4.07
MIRTGS : RIGHTBACK : INTERNAL 2
MIR : ON : INTERNAL 2
OPTKBR

0.200000
8
8.000000
FILLER
RATIO
SPECTRUM
UNLOCKED 256

DOUBLE
64
COMBINED
1
0
0

0.002000
RATIO

1
0
TRUE
51149
0
LEFT NOT FITTED RIGHT NOT FITTED 0
NONE
NONE
15600
12
4.427000
51148
TRUE
1 0 8 72 0 0 0 0

15798

#HDR
-1
-1
#GR
µM
%T
2.38419e-05
0.0
2.000000
0.002000
12515
8
31.7959
-15.9125
#DATA
2.000000	 0.067949
2.084000	 0.499424
2.168000	 -0.901960
2.252000	 -0.669948
2.336000	 -0.039624
2.420000	 0.067804
2.504000	 0.156762
2.588000	 0.169306
2.672000	 0.051328
2.756000	 -0.046426
2.840000	 0.024951
2.924000	 0.021556
3.008000	 0.103468
3.092000	 -0.032864
3.176000	 0.013022
3.260000	 0.034447
3.344000	 -0.030684
3.428000	 -0.044852
3.512000	 0.039619
3.596000	 0.046110
3.680000	 0.009693
3.764000	 0.076177
3.848000	 0.069706
3.932000	 -0.003238
4.016000	 -0.139611
4.100000	 -0.066506
4.184000	 -0.034543
4.268000	 0.058166
4.352000	 0.177385
4.436000	 0.707192
4.520000	 2.169961
4.604000	 4.806293
4.688000	 8.490618
4.772000	 12.6658
4.856000	 16.8572
4.940000	 20.6215
5.024000	 23.5248
5.108000	 25.7452
5.192000	 27.4321
5.276000	 28.7259
5.359999	 29.5634
5.444000	 30.2697
5.528000	 30.697
5.612000	 30.9979
5.696000	 31.3161
5.780000	 31.4079
5.864000	 31.618
5.948000	 31.6311
6.032000	 31.7926
6.116000	 31.6719
6.200000	 31.5754
6.284000	 31.6753
6.368000	 31.6894
6.452000	 31.592
6.536000	 31.5676
6.620000	 31.3955
6.704000	 31.3001
6.788000	 31.3767
6.872000	 31.1063
6.956000	 31.2069
7.040000	 31.3023
7.124000	 31.2217
7.208000	 31.1141
7.292000	 31.0068
7.376000	 30.9374
7.460000	 30.9553
7.544000	 30.874
7.628000	 30.7828
7.712000	 30.8142
7.796000	 30.6779
7.880000	 30.6586
7.964000	 30.5777
8.048000	 30.6633
8.132000	 30.403
8.216000	 30.3846
8.300000	 30.2507
8.384000	 30.4164
8.468000	 30.2893
8.552000	 30.1309
8.635999	 29.9676
8.719999	 29.9353
8.804000	 30.0378
8.888000	 29.7972
8.972000	 29.7781
9.056000	 29.6651
9.140000	 29.5479
9.224000	 29.5806
9.308000	 29.4435
9.391999	 29.4006
9.475999	 29.4884
9.560000	 29.1756
9.644000	 29.2967
9.728000	 28.9916
9.812000	 28.974
9.896000	 28.9879
9.980000	 28.9481
10.064	28.9145
10.148	28.5629
10.232	28.6682
10.316	28.627
10.4	28.4447
10.484	28.5567
10.568	28.34
10.652	28.0734
10.736	28.0053
10.82	28.0119
10.904	27.9561
10.988	27.7609
11.072	27.7871
11.156	27.8033
11.24	27.4937
11.324	27.4873
11.408	27.4145
11.492	27.3056
11.576	27.1378
11.66	27.2164
11.744	27.1563
11.828	27.1392
11.912	26.9845
11.996	26.6609
12.08	26.5873
12.164	26.6218
12.248	26.648
12.332	26.5274
12.416	26.2026
12.5	26.1262
12.584	26.1829
12.668	25.9137
12.752	25.8268
12.836	25.8469
12.92	25.5731
13.004	25.4137
13.088	25.5026
13.172	25.5375
13.256	25.5535
13.34	25.5531
13.424	25.2672
13.508	25.1105
13.592	25.1483
13.676	25.0585
13.76	24.8027
13.844	24.4759
13.928	24.4477
14.012	24.6429
14.096	24.6429
14.18	24.5097
14.264	24.2602
14.348	24.0395
14.432	23.9296
14.516	23.7252
14.6	23.6239
14.684	23.664
14.768	23.6251
14.852	23.57
14.936	23.563
15.02	23.5164
15.104	23.4356
15.188	23.3955
15.272	23.3135
15.356	23.1265
15.44	22.9174
15.524	22.7154
15.608	22.6005
15.692	22.7027
15.776	22.8198
15.86	22.681
15.944	22.4207
16.028	22.2791
16.112	22.2477
16.196	22.2474
16.28	22.2321
16.364	22.0919
16.448	21.7797
16.532	21.4825
16.616	21.4007
16.7	21.4771
16.784	21.5082
16.868	21.3913
16.952	21.2085
17.036	21.1226
17.12	21.1759
17.204	21.2261
17.288	21.175
17.372	21.1125
17.456	21.155
17.54	21.2632
17.624	21.2664
17.708	21.0596
17.792	20.7309
17.876	20.4712
17.96	20.3546
18.044	20.3153
18.128	20.302
18.212	20.2996
18.296	20.2327
18.38	20.0496
18.464	19.8709
18.548	19.8789
18.632	20.0564
18.716	20.1958
18.8	20.1774
18.884	20.0918
18.968	20.0726
19.052	20.1211
19.136	20.1361
19.22	20.0421
19.304	19.8519
19.388	19.6232
19.472	19.3991
19.556	19.1975
19.64	19.0341
19.724	18.9361
19.808	18.9233
19.892	18.9641
19.976	18.9661
20.06	18.8353
20.144	18.5561
20.228	18.2227
20.312	17.9806
20.396	17.9171
20.48	17.9988
20.564	18.1095
20.648	18.1663
20.732	18.1865
20.816	18.2434
20.9	18.3682
20.984	18.5041
21.068	18.5569
21.152	18.4838
21.236	18.3341
21.32	18.2059
21.404	18.1582
21.488	18.154
21.572	18.0936
21.656	17.8866
21.74	17.5174
21.824	17.0699
21.908	16.675
21.992	16.4196
22.076	16.3027
22.16	16.2496
22.244	16.1856
22.328	16.0903
22.412	15.9908
22.496	15.9227
22.58	15.8939
22.664	15.898
22.748	15.9408
22.832	16.0392
22.916	16.1947
23	16.3491
23.084	16.3852
23.168	16.1747
23.252	15.6825
23.336	15.0086
23.42	14.3421
23.504	13.8863
23.588	13.7406
23.672	13.8621
23.756	14.1108
23.84	14.36
23.924	14.5577
24.008	14.7573
24.092	15.0741
24.176	15.5656
24.26	16.1709
24.344	16.6827
24.428	16.8549
24.512	16.5546
24.596	15.8188
24.68	14.8702
24.764	14.0606
24.848	13.7208
24.932	14.0974
25.016	15.2446
25.1	17.0298
25.184	19.1399
25.268	21.151
25.352	22.6184
25.436	23.1393
25.52	22.493
25.604	20.6936
25.688	18.0081
25.772	14.9223
25.856	11.9485
25.94	9.346750
26.024	6.953949
26.108	4.231261
26.192	0.763313
26.276	-3.467086
26.36	-7.930550
26.444	-11.8706
26.528	-14.5968
26.612	-15.8371
26.696	-15.5866
26.78	-14.0412
26.864	-11.4092
26.948	-8.072715
27.028	-5.098295