Folder: Masteroppgave/Bakgrunnsmateriale/MATLAB/FTIR/ftir_data/LPE453/Mapping_121 (part 22)

File: LPE453_t46_cm-1.asc
PE IR       SPECTRUM    SPECTRUM    ASCII       PEDS        1.60
  -1
LP695A~1.ASC
17/05/16
18:10:53.00
17/05/16
18:10:53.00
tln
$LPE453_t0046$<tbV0>[10.4,-2.6,8.0,0.0,27,1,0]
370
64

2002,4.07
MIRTGS : RIGHTBACK : INTERNAL 2
MIR : ON : INTERNAL 2
OPTKBR

0.200000
8
8.000000
FILLER
RATIO
SPECTRUM
UNLOCKED 256

DOUBLE
64
COMBINED
1
0
0

1.000000
RATIO

1
0
TRUE
51149
0
LEFT NOT FITTED RIGHT NOT FITTED 0
NONE
NONE
15600
12
4.427000
51148
TRUE
1 0 8 72 0 0 0 0

15798

#HDR
-1
-1
#GR
CM-1
%T
2.38419e-05
0.0
5000
-1.000000
4631
8
23.1143
-7.714176
#DATA
5000	-0.082921
4984	0.124597
4968	0.072622
4952	-0.090861
4936	0.172114
4920	-0.030183
4904	0.074100
4888	-0.067210
4872	0.003433
4856	0.411820
4840	0.122261
4824	0.449872
4808	-0.029754
4792	0.453591
4776	0.458979
4760	-0.041294
4744	-0.092792
4728	-0.042891
4712	0.209808
4696	0.504899
4680	-0.126433
4664	0.095748
4648	0.095272
4632	-0.547623
4616	-0.235819
4600	-0.147223
4584	0.436115
4568	-0.528001
4552	-0.662755
4536	0.682377
4520	14.4115
4504	-1.155328
4488	-0.348210
4472	-0.882387
4456	-0.230813
4440	-0.365877
4424	-0.297331
4408	0.113177
4392	0.106000
4376	0.120925
4360	0.463581
4344	0.015401
4328	-0.013661
4312	0.186204
4296	0.178980
4280	0.043678
4264	0.204992
4248	0.193476
4232	0.102663
4216	0.200700
4200	-0.037169
4184	0.459432
4168	-0.048851
4152	0.182533
4136	-0.057411
4120	0.067734
4104	0.258517
4088	-0.082802
4072	0.105452
4056	0.046825
4040	0.072193
4024	0.043511
4008	0.244927
3992	0.079798
3976	0.116324
3960	-0.030350
3944	0.000905
3928	0.097727
3912	-0.015950
3896	0.046205
3880	0.215411
3864	0.001382
3848	-0.065875
3832	0.143218
3816	0.185656
3800	0.077152
3784	0.010156
3768	-0.061106
3752	0.260186
3736	0.030064
3720	0.182461
3704	0.082182
3688	0.191259
3672	0.022840
3656	0.072169
3640	0.196981
3624	0.114703
3608	0.068926
3592	0.093102
3576	0.062942
3560	0.115704
3544	0.099372
3528	-0.016570
3512	0.118422
3496	0.057363
3480	0.083851
3464	0.032067
3448	0.113606
3432	0.136184
3416	0.076913
3400	-0.033664
3384	0.108957
3368	-0.007510
3352	-0.025582
3336	0.141096
3320	0.195121
3304	0.001859
3288	0.081491
3272	-0.073027
3256	0.084066
3240	0.051736
3224	-0.019097
3208	0.109839
3192	0.071430
3176	0.109028
3160	-0.071382
3144	0.111675
3128	0.025629
3112	0.090575
3096	0.124979
3080	-0.024151
3064	0.011253
3048	0.023555
3032	-0.083184
3016	0.027990
3000	0.095796
2984	0.084972
2968	-0.017833
2952	0.026559
2936	0.033640
2920	0.111007
2904	0.129961
2888	0.061297
2872	0.029826
2856	0.039267
2840	-0.021052
2824	0.039124
2808	0.105953
2792	0.015354
2776	-0.087237
2760	0.040483
2744	0.058746
2728	0.022673
2712	0.137495
2696	0.039482
2680	0.010275
2664	-0.020766
2648	-0.068902
2632	-0.004744
2616	0.086760
2600	0.010752
2584	-0.035500
2568	0.010180
2552	0.094962
2536	0.021767
2520	0.071477
2504	-0.059199
2488	-0.053334
2472	0.016546
2456	-0.079655
2440	0.117802
2424	-0.028085
2408	0.049781
2392	-0.060343
2376	0.041794
2360	-0.039696
2344	0.125122
2328	-0.032567
2312	0.011372
2296	-0.024557
2280	0.058269
2264	0.003123
2248	0.153708
2232	0.293183
2216	0.454425
2200	0.671577
2184	1.092362
2168	1.616716
2152	2.255058
2136	2.993297
2120	4.077577
2104	5.197620
2088	6.447052
2072	7.746529
2056	9.078407
2040	10.4445
2024	11.691
2008	12.9383
1992	14.2133
1976	15.2161
1960	16.3062
1944	17.1967
1928	18.0919
1912	18.6783
1896	19.444
1880	19.9667
1864	20.4468
1848	20.974
1832	21.2842
1816	21.5429
1800	21.8819
1784	22.1374
1768	22.3177
1752	22.3877
1736	22.4771
1720	22.6215
1704	22.7589
1688	22.8235
1672	22.9518
1656	22.9149
1640	23.0466
1624	23.0075
1608	22.9305
1592	22.9955
1576	22.9544
1560	23.0008
1544	22.9936
1528	22.8784
1512	22.999
1496	22.8992
1480	22.8557
1464	22.6693
1448	22.5235
1432	22.7272
1416	22.6959
1400	22.7432
1384	22.399
1368	22.5909
1352	22.4988
1336	22.3645
1320	22.386
1304	22.212
1288	22.279
1272	22.1975
1256	22.1056
1240	22.127
1224	21.9931
1208	22.0209
1192	21.9005
1176	21.8411
1160	21.7845
1144	21.7144
1128	21.5946
1112	21.2658
1096	21.2248
1080	21.0942
1064	21.1195
1048	20.8373
1032	20.8105
1016	20.5787
1000	20.466
984	 20.2444
968	 20.1555
952	 19.9167
936	 19.8305
920	 19.4585
904	 19.1679
888	 19.1963
872	 18.8592
856	 18.5412
840	 18.2408
824	 18.0861
808	 17.7321
792	 17.7721
776	 17.2658
760	 16.8618
744	 16.6662
728	 16.7734
712	 15.9716
696	 15.8784
680	 15.318
664	 14.8818
648	 14.6351
632	 14.0818
616	 13.772
600	 13.0955
584	 13.1937
568	 12.4756
552	 12.289
536	 12.5529
520	 11.4823
504	 11.2467
488	 10.4127
472	 11.6343
456	 9.268498
440	 8.414745
424	 5.712461
408	 11.4377
392	 -5.945634
376	 5.524659
370	 11.6733

File: LPE453_t47.asc
PE IR       SPECTRUM    SPECTRUM    ASCII       PEDS        1.60
  -1
LPD3A5~1.ASC
17/05/16
18:15:30.00
17/05/16
18:15:56.00
tln
$LPE453_t0047$<tbV0>[7.8,-2.6,8.0,0.0,27,1,0]
27.028
64

2002,4.07
MIRTGS : RIGHTBACK : INTERNAL 2
MIR : ON : INTERNAL 2
OPTKBR

0.200000
8
8.000000
FILLER
RATIO
SPECTRUM
UNLOCKED 256

DOUBLE
64
COMBINED
1
0
0

0.002000
RATIO

1
0
TRUE
51149
0
LEFT NOT FITTED RIGHT NOT FITTED 0
NONE
NONE
15600
12
4.427000
51148
TRUE
1 0 8 72 0 0 0 0

15798

#HDR
-1
-1
#GR
µM
%T
2.38419e-05
0.0
2.000000
0.002000
12515
8
22.2555
-15.2378
#DATA
2.000000	 0.009989
2.084000	 -0.106312
2.168000	 -0.162279
2.252000	 0.683871
2.336000	 0.106797
2.420000	 -0.252974
2.504000	 0.155194
2.588000	 0.357184
2.672000	 -0.016980
2.756000	 0.090985
2.840000	 0.100078
2.924000	 -0.019083
3.008000	 0.139166
3.092000	 0.056348
3.176000	 -0.023741
3.260000	 0.019850
3.344000	 -0.087716
3.428000	 0.163247
3.512000	 0.028975
3.596000	 0.084676
3.680000	 0.111795
3.764000	 0.037872
3.848000	 0.011344
3.932000	 -0.033978
4.016000	 0.016293
4.100000	 0.099313
4.184000	 0.074444
4.268000	 0.017158
4.352000	 0.023474
4.436000	 -0.022379
4.520000	 0.371650
4.604000	 1.199014
4.688000	 2.990783
4.772000	 5.415642
4.856000	 8.431870
4.940000	 11.0878
5.024000	 13.724
5.108000	 15.8527
5.192000	 17.5378
5.276000	 18.765
5.359999	 19.7463
5.444000	 20.5661
5.528000	 21.1508
5.612000	 21.4827
5.696000	 21.6546
5.780000	 21.8002
5.864000	 22.062
5.948000	 22.1026
6.032000	 22.0349
6.116000	 22.2539
6.200000	 22.0192
6.284000	 22.162
6.368000	 22.1206
6.452000	 21.9196
6.536000	 22.1323
6.620000	 21.9968
6.704000	 21.8562
6.788000	 21.9192
6.872000	 21.8647
6.956000	 21.8657
7.040000	 21.7656
7.124000	 21.5494
7.208000	 21.6254
7.292000	 21.5672
7.376000	 21.4242
7.460000	 21.3666
7.544000	 21.2968
7.628000	 21.2898
7.712000	 21.147
7.796000	 21.2138
7.880000	 20.9888
7.964000	 21.1352
8.048000	 21.0175
8.132000	 20.9188
8.216000	 20.8809
8.300000	 20.8189
8.384000	 20.6717
8.468000	 20.5515
8.552000	 20.725
8.635999	 20.4811
8.719999	 20.4593
8.804000	 20.3788
8.888000	 20.3436
8.972000	 20.283
9.056000	 20.0013
9.140000	 19.9835
9.224000	 19.9065
9.308000	 20.0177
9.391999	 19.6716
9.475999	 19.6852
9.560000	 19.4287
9.644000	 19.3829
9.728000	 19.57
9.812000	 19.2817
9.896000	 19.2261
9.980000	 19.0549
10.064	19.0619
10.148	19.1269
10.232	18.9269
10.316	18.7579
10.4	18.6204
10.484	18.5947
10.568	18.4123
10.652	18.4383
10.736	18.2846
10.82	18.3389
10.904	18.1555
10.988	17.906
11.072	17.8268
11.156	17.7783
11.24	17.7796
11.324	17.5956
11.408	17.4236
11.492	17.3731
11.576	17.3953
11.66	17.2158
11.744	17.1591
11.828	17.2686
11.912	17.0218
11.996	16.9438
12.08	16.9247
12.164	16.6529
12.248	16.4834
12.332	16.2994
12.416	16.1754
12.5	16.1676
12.584	16.0764
12.668	16.1262
12.752	16.0536
12.836	15.874
12.92	15.7984
13.004	15.6896
13.088	15.637
13.172	15.512
13.256	15.5282
13.34	15.4727
13.424	15.3285
13.508	15.2069
13.592	14.9432
13.676	14.7597
13.76	14.7635
13.844	14.7479
13.928	14.7732
14.012	14.7584
14.096	14.6652
14.18	14.3974
14.264	14.0866
14.348	13.9768
14.432	13.8393
14.516	13.8168
14.6	14.0167
14.684	14.0165
14.768	13.8149
14.852	13.6681
14.936	13.5959
15.02	13.5591
15.104	13.5286
15.188	13.4497
15.272	13.3593
15.356	13.3205
15.44	13.2235
15.524	13.0585
15.608	13.0428
15.692	13.1771
15.776	13.2196
15.86	13.0896
15.944	12.913
16.028	12.8259
16.112	12.7901
16.196	12.6328
16.28	12.3719
16.364	12.2056
16.448	12.1433
16.532	12.0658
16.616	12.0069
16.7	12.0052
16.784	11.9507
16.868	11.807
16.952	11.6777
17.036	11.5747
17.12	11.42
17.204	11.2599
17.288	11.2071
17.372	11.2534
17.456	11.3223
17.54	11.4049
17.624	11.5088
17.708	11.5565
17.792	11.4428
17.876	11.1503
17.96	10.793
18.044	10.5429
18.128	10.4996
18.212	10.6004
18.296	10.6792
18.38	10.626
18.464	10.4746
18.548	10.3431
18.632	10.3158
18.716	10.3671
18.8	10.3925
18.884	10.3139
18.968	10.1542
19.052	10.006
19.136	9.926413
19.22	9.897964
19.304	9.880039
19.388	9.858998
19.472	9.823211
19.556	9.731035
19.64	9.556111
19.724	9.357593
19.808	9.255404
19.892	9.313006
19.976	9.477317
20.06	9.648849
20.144	9.778563
20.228	9.875714
20.312	9.933549
20.396	9.894341
20.48	9.710484
20.564	9.413319
20.648	9.105997
20.732	8.888848
20.816	8.803120
20.9	8.826028
20.984	8.895452
21.068	8.942941
21.152	8.925403
21.236	8.849764
21.32	8.765066
21.404	8.722545
21.488	8.711783
21.572	8.656103
21.656	8.475587
21.74	8.153809
21.824	7.776003
21.908	7.479660
21.992	7.351864
22.076	7.386290
22.16	7.501765
22.244	7.610125
22.328	7.681066
22.412	7.732931
22.496	7.807437
22.58	7.959144
22.664	8.241348
22.748	8.671687
22.832	9.188250
22.916	9.620278
23	9.728569
23.084	9.319806
23.168	8.363501
23.252	7.046404
23.336	5.716473
23.42	4.755464
23.504	4.433231
23.588	4.793919
23.672	5.674462
23.756	6.769094
23.84	7.760787
23.924	8.393903
24.008	8.508185
24.092	8.042394
24.176	7.050286
24.26	5.697183
24.344	4.245986
24.428	2.948076
24.512	1.978004
24.596	1.315547
24.68	0.754658
24.764	0.009525
24.848	-1.141035
24.932	-2.711972
25.016	-4.460295
25.1	-6.005408
25.184	-6.993155
25.268	-7.262684
25.352	-6.851736
25.436	-5.982654
25.52	-4.904014
25.604	-3.732796
25.688	-2.483313
25.772	-1.113230
25.856	0.378608
25.94	1.871680
26.024	3.095501
26.108	3.692263
26.192	3.449225
26.276	2.322862
26.36	0.429271
26.444	-2.007383
26.528	-4.722047
26.612	-7.518076
26.696	-10.2084
26.78	-12.5997
26.864	-14.4095
26.948	-15.2325
27.028	-14.6789

File: LPE453_t47_cm-1.asc
PE IR       SPECTRUM    SPECTRUM    ASCII       PEDS        1.60
  -1
LP69DA~1.ASC
17/05/16
18:15:30.00
17/05/16
18:15:30.00
tln
$LPE453_t0047$<tbV0>[7.8,-2.6,8.0,0.0,27,1,0]
370
64

2002,4.07
MIRTGS : RIGHTBACK : INTERNAL 2
MIR : ON : INTERNAL 2
OPTKBR

0.200000
8
8.000000
FILLER
RATIO
SPECTRUM
UNLOCKED 256

DOUBLE
64
COMBINED
1
0
0

1.000000
RATIO

1
0
TRUE
51149
0
LEFT NOT FITTED RIGHT NOT FITTED 0
NONE
NONE
15600
12
4.427000
51148
TRUE
1 0 8 72 0 0 0 0

15798

#HDR
-1
-1
#GR
CM-1
%T
2.38419e-05
0.0
5000
-1.000000
4631
8
22.2545
-15.2378
#DATA
5000	0.009989
4984	0.128650
4968	0.109052
4952	-0.165176
4936	0.471305
4920	0.142073
4904	0.128316
4888	-0.147414
4872	-0.226116
4856	-0.185108
4840	0.466990
4824	-0.066065
4808	0.222587
4792	0.124812
4776	-0.136017
4760	0.152516
4744	0.028514
4728	-0.028562
4712	-0.282382
4696	0.262045
4680	0.559782
4664	0.321006
4648	-0.016474
4632	0.553607
4616	-0.072979
4600	0.171208
4584	-0.436305
4568	-0.188422
4552	-0.910687
4536	-0.181531
4520	6.417632
4504	-2.125096
4488	1.172542
4472	0.057935
4456	0.703692
4440	0.667977
4424	0.647377
4408	0.412631
4392	0.257945
4376	0.238943
4360	0.189852
4344	-0.017857
4328	0.033068
4312	0.188016
4296	0.138115
4280	0.129771
4264	0.204038
4248	0.055932
4232	-0.304770
4216	0.096058
4200	-0.063943
4184	0.090932
4168	0.384998
4152	0.092768
4136	-0.248765
4120	-0.057458
4104	-0.083494
4088	0.073027
4072	0.047492
4056	-0.051236
4040	-0.033235
4024	0.159883
4008	0.259566
3992	0.209546
3976	0.041222
3960	0.102686
3944	0.051569
3928	-0.009655
3912	-0.022339
3896	0.114488
3880	-0.056004
3864	0.356912
3848	0.111675
3832	-0.009036
3816	0.293970
3800	-0.102281
3784	0.086927
3768	0.016951
3752	-0.051951
3736	0.124573
3720	-0.012063
3704	0.075984
3688	0.018620
3672	0.087451
3656	-0.026988
3640	0.008893
3624	0.004625
3608	-0.122165
3592	-0.111913
3576	0.065159
3560	0.054335
3544	-0.100874
3528	0.130534
3512	0.011658
3496	0.183033
3480	-0.096988
3464	0.086879
3448	-0.109720
3432	-0.049042
3416	0.056242
3400	0.046253
3384	0.050044
3368	0.094652
3352	0.184822
3336	0.017285
3320	0.096058
3304	0.150537
3288	0.114059
3272	0.002431
3256	0.011897
3240	0.023508
3224	-0.024294
3208	0.048255
3192	-0.000905
3176	0.059914
3160	0.089597
3144	-0.012183
3128	-0.054311
3112	0.063872
3096	-0.009155
3080	0.073862
3064	-0.031661
3048	0.079989
3032	0.002670
3016	-0.030207
3000	0.032258
2984	0.035548
2968	0.111055
2952	-0.044155
2936	0.218176
2920	0.261783
2904	0.015020
2888	-0.000381
2872	0.106859
2856	-0.047802
2840	0.041246
2824	0.096440
2808	0.095796
2792	0.078940
2776	0.085163
2760	-0.084280
2744	0.022482
2728	-0.037908
2712	0.035691
2696	0.071430
2680	0.110149
2664	0.053000
2648	-0.006175
2632	0.128793
2616	0.021624
2600	0.026679
2584	0.033950
2568	0.001788
2552	0.027680
2536	-0.056910
2520	0.029325
2504	0.024771
2488	0.021743
2472	0.003457
2456	0.253415
2440	0.100803
2424	0.090408
2408	-0.174355
2392	0.063562
2376	0.015282
2360	-0.163817
2344	0.025987
2328	0.114727
2312	-0.048613
2296	0.004482
2280	-0.059914
2264	0.060582
2248	0.130128
2232	0.188994
2216	0.289463
2200	0.444102
2184	0.870847
2168	1.277947
2152	1.820182
2136	2.785181
2120	3.692436
2104	4.793810
2088	5.927348
2072	6.951141
2056	8.676338
2040	9.872746
2024	11.1172
2008	12.4861
1992	13.6205
1976	14.6265
1960	15.7455
1944	16.5279
1928	17.4575
1912	18.0988
1896	18.7535
1880	19.327
1864	19.8045
1848	20.2495
1832	20.6894
1816	20.9601
1800	21.3207
1784	21.4189
1768	21.6019
1752	21.7408
1736	21.8384
1720	22.0476
1704	22.0647
1688	21.9939
1672	22.1788
1656	22.0399
1640	22.1351
1624	22.1579
1608	22.1332
1592	22.1647
1576	22.02
1560	22.086
1544	22.1402
1528	22.13
1512	21.9971
1496	21.9423
1480	21.8961
1464	21.8265
1448	21.841
1432	21.7915
1416	21.7439
1400	21.5648
1384	21.592
1368	21.5765
1352	21.471
1336	21.3722
1320	21.1956
1304	21.2426
1288	21.2389
1272	21.0048
1256	21.14
1240	20.952
1224	20.9314
1208	20.8364
1192	20.6513
1176	20.6604
1160	20.4902
1144	20.399
1128	20.3629
1112	20.2171
1096	19.9859
1080	19.921
1064	19.6538
1048	19.506
1032	19.5357
1016	19.2516
1000	19.0163
984	 19.1129
968	 18.7472
952	 18.5827
936	 18.3955
920	 18.2869
904	 17.8233
888	 17.779
872	 17.3749
856	 17.1798
840	 17.0514
824	 16.7331
808	 16.2147
792	 16.0826
776	 15.8338
760	 15.5274
744	 15.3077
728	 14.7601
712	 14.7326
696	 13.9534
680	 13.9705
664	 13.5472
648	 13.2379
632	 13.1629
616	 12.5162
600	 12.0044
584	 11.4131
568	 11.4867
552	 10.4938
536	 10.3267
520	 9.895682
504	 9.259772
488	 9.673976
472	 8.899092
456	 7.428574
440	 8.553194
424	 4.770374
408	 1.999115
392	 -5.035209
376	 -6.982135
370	 -14.6789

File: LPE453_t48.asc
PE IR       SPECTRUM    SPECTRUM    ASCII       PEDS        1.60
  -1
LPE3A9~1.ASC
17/05/16
18:20:06.00
17/05/16
18:20:33.00
tln
$LPE453_t0048$<tbV0>[5.2,-2.6,8.0,0.0,27,1,0]
27.028
64

2002,4.07
MIRTGS : RIGHTBACK : INTERNAL 2
MIR : ON : INTERNAL 2
OPTKBR

0.200000
8
8.000000
FILLER
RATIO
SPECTRUM
UNLOCKED 256

DOUBLE
64
COMBINED
1
0
0

0.002000
RATIO

1
0
TRUE
51149
0
LEFT NOT FITTED RIGHT NOT FITTED 0
NONE
NONE
15600
12
4.427000
51148
TRUE
1 0 8 72 0 0 0 0

15798

#HDR
-1
-1
#GR
µM
%T
2.38419e-05
0.0
2.000000
0.002000
12515
8
24.9339
-18.4242
#DATA
2.000000	 0.189781
2.084000	 0.207900
2.168000	 0.145814
2.252000	 -0.310000
2.336000	 0.247100
2.420000	 0.109471
2.504000	 0.068358
2.588000	 -0.055930
2.672000	 0.019098
2.756000	 0.131517
2.840000	 0.080132
2.924000	 -0.014444
3.008000	 0.020051
3.092000	 0.035081
3.176000	 -0.019845
3.260000	 -0.009726
3.344000	 -0.036271
3.428000	 -0.024068
3.512000	 -0.040636
3.596000	 0.041884
3.680000	 0.036526
3.764000	 -0.029769
3.848000	 0.098594
3.932000	 0.106018
4.016000	 0.065550
4.100000	 0.015210
4.184000	 0.031160
4.268000	 0.052196
4.352000	 0.069326
4.436000	 0.302907
4.520000	 0.623943
4.604000	 1.789934
4.688000	 3.736052
4.772000	 6.548729
4.856000	 9.935615
4.940000	 12.8632
5.024000	 15.4677
5.108000	 17.6634
5.192000	 19.3548
5.276000	 20.7004
5.359999	 21.6111
5.444000	 22.3477
5.528000	 22.9518
5.612000	 23.2772
5.696000	 23.4679
5.780000	 23.6579
5.864000	 23.878
5.948000	 23.831
6.032000	 23.849
6.116000	 23.9643
6.200000	 23.9129
6.284000	 23.9405
6.368000	 24.0053
6.452000	 23.911
6.536000	 23.7795
6.620000	 23.7379
6.704000	 23.646
6.788000	 23.5863
6.872000	 23.5826
6.956000	 23.497
7.040000	 23.542
7.124000	 23.4587
7.208000	 23.3051
7.292000	 23.2507
7.376000	 23.1825
7.460000	 23.0621
7.544000	 23.0327
7.628000	 23.0417
7.712000	 23.0225
7.796000	 22.9831
7.880000	 22.9253
7.964000	 22.8789
8.048000	 22.6055
8.132000	 22.5844
8.216000	 22.4699
8.300000	 22.5617
8.384000	 22.4019
8.468000	 22.3318
8.552000	 22.2218
8.635999	 22.0314
8.719999	 22.1824
8.804000	 22.0849
8.888000	 21.9073
8.972000	 21.8604
9.056000	 22.0261
9.140000	 22.0018
9.224000	 21.7163
9.308000	 21.4702
9.391999	 21.4713
9.475999	 21.2988
9.560000	 21.2071
9.644000	 21.1682
9.728000	 21.1856
9.812000	 21.0742
9.896000	 21.1107
9.980000	 20.9881
10.064	20.8958
10.148	20.7273
10.232	20.565
10.316	20.3972
10.4	20.2058
10.484	20.3261
10.568	20.2536
10.652	20.1075
10.736	19.8763
10.82	19.7443
10.904	19.9303
10.988	19.7633
11.072	19.5622
11.156	19.333
11.24	19.4023
11.324	19.3139
11.408	19.1645
11.492	19.083
11.576	18.969
11.66	18.9434
11.744	18.8461
11.828	18.7088
11.912	18.6668
11.996	18.5779
12.08	18.3314
12.164	18.0283
12.248	17.9253
12.332	17.9682
12.416	17.8821
12.5	17.8751
12.584	17.9692
12.668	17.8648
12.752	17.5202
12.836	17.1357
12.92	17.118
13.004	17.3598
13.088	17.2852
13.172	17.0599
13.256	17.0425
13.34	16.9086
13.424	16.6948
13.508	16.7199
13.592	16.5171
13.676	16.2023
13.76	16.2508
13.844	16.3666
13.928	16.3303
14.012	16.2634
14.096	16.2262
14.18	16.0635
14.264	15.8737
14.348	15.8966
14.432	15.8779
14.516	15.6702
14.6	15.5829
14.684	15.6028
14.768	15.5762
14.852	15.5304
14.936	15.3161
15.02	15.0105
15.104	14.8649
15.188	14.8634
15.272	14.9809
15.356	15.0737
15.44	14.9708
15.524	14.891
15.608	14.9733
15.692	14.9002
15.776	14.5059
15.86	14.1602
15.944	14.0942
16.028	14.084
16.112	14.0327
16.196	14.0902
16.28	14.28
16.364	14.4807
16.448	14.4956
16.532	14.2001
16.616	13.7721
16.7	13.5097
16.784	13.4419
16.868	13.3803
16.952	13.2172
17.036	13.0316
17.12	12.9708
17.204	13.0614
17.288	13.2003
17.372	13.2846
17.456	13.2861
17.54	13.2172
17.624	13.0721
17.708	12.8441
17.792	12.5871
17.876	12.4135
17.96	12.3854
18.044	12.4471
18.128	12.4946
18.212	12.4918
18.296	12.4631
18.38	12.411
18.464	12.305
18.548	12.1516
18.632	12.019
18.716	11.9671
18.8	11.9934
18.884	12.0471
18.968	12.0813
19.052	12.0704
19.136	12.0045
19.22	11.8985
19.304	11.8014
19.388	11.738
19.472	11.6486
19.556	11.431
19.64	11.0747
19.724	10.7189
19.808	10.538
19.892	10.5708
19.976	10.6828
20.06	10.6983
20.144	10.5524
20.228	10.3094
20.312	10.0772
20.396	9.926505
20.48	9.885174
20.564	9.965103
20.648	10.1617
20.732	10.4291
20.816	10.6736
20.9	10.8066
20.984	10.8106
21.068	10.7549
21.152	10.7331
21.236	10.7807
21.32	10.8433
21.404	10.8157
21.488	10.629
21.572	10.2989
21.656	9.919914
21.74	9.610254
21.824	9.456208
21.908	9.482130
21.992	9.644795
22.076	9.854855
22.16	10.0169
22.244	10.0618
22.328	9.976006
22.412	9.782358
22.496	9.526671
22.58	9.253518
22.664	8.992379
22.748	8.743010
22.832	8.469625
22.916	8.114466
23	7.651508
23.084	7.113062
23.168	6.624357
23.252	6.356735
23.336	6.460397
23.42	7.007323
23.504	7.959010
23.588	9.158090
23.672	10.4013
23.756	11.5139
23.84	12.3663
23.924	12.916
24.008	13.1757
24.092	13.162
24.176	12.8829
24.26	12.3796
24.344	11.707
24.428	10.9048
24.512	10.031
24.596	9.087359
24.68	7.996535
24.764	6.646583
24.848	5.002118
24.932	3.167096
25.016	1.414996
25.1	0.121733
25.184	-0.217005
25.268	0.813249
25.352	3.369003
25.436	7.294598
25.52	12.0943
25.604	17.0612
25.688	21.3568
25.772	24.1742
25.856	24.8793
25.94	23.0926
26.024	18.7255
26.108	12.0631
26.192	3.843810
26.276	-4.754797
26.36	-12.2143
26.444	-17.0741
26.528	-18.3787
26.612	-15.93
26.696	-10.4302
26.78	-3.378593
26.864	3.399614
26.948	8.237142
27.028	9.872722

File: LPE453_t48_cm-1.asc
PE IR       SPECTRUM    SPECTRUM    ASCII       PEDS        1.60
  -1
LP6959~1.ASC
17/05/16
18:20:06.00
17/05/16
18:20:06.00
tln
$LPE453_t0048$<tbV0>[5.2,-2.6,8.0,0.0,27,1,0]
370
64

2002,4.07
MIRTGS : RIGHTBACK : INTERNAL 2
MIR : ON : INTERNAL 2
OPTKBR

0.200000
8
8.000000
FILLER
RATIO
SPECTRUM
UNLOCKED 256

DOUBLE
64
COMBINED
1
0
0

1.000000
RATIO

1
0
TRUE
51149
0
LEFT NOT FITTED RIGHT NOT FITTED 0
NONE
NONE
15600
12
4.427000
51148
TRUE
1 0 8 72 0 0 0 0

15798

#HDR
-1
-1
#GR
CM-1
%T
2.38419e-05
0.0
5000
-1.000000
4631
8
24.9333
-18.3967
#DATA
5000	0.189781
4984	-0.232338
4968	0.173258
4952	-0.114011
4936	0.228333
4920	0.209593
4904	-0.275921
4888	-0.502824
4872	0.458431
4856	0.193715
4840	0.531315
4824	0.108790
4808	-0.077295
4792	-0.063467
4776	0.261926
4760	0.257468
4744	-0.002765
4728	-0.240921
4712	0.447106
4696	0.184822
4680	0.210094
4664	0.364017
4648	0.155377
4632	0.011348
4616	0.407004
4600	-0.366592
4584	-0.468873
4568	-0.560069
4552	-0.601935
4536	-0.393795
4520	6.180453
4504	2.090549
4488	-0.506114
4472	-0.181722
4456	-0.426888
4440	-0.277805
4424	0.147223
4408	-0.034236
4392	0.022864
4376	0.369143
4360	-0.033140
4344	0.250029
4328	0.099992
4312	-0.042700
4296	0.077152
4280	0.254178
4264	-0.008511
4248	0.281119
4232	0.282859
4216	0.184512
4200	0.177836
4184	0.183749
4168	0.111079
4152	0.226211
4136	0.220251
4120	0.069475
4104	-0.121617
4088	0.074625
4072	0.135183
4056	0.184321
4040	0.166368
4024	0.051212
4008	0.013279
3992	0.058174
3976	0.031709
3960	0.105762
3944	0.086450
3928	-0.043630
3912	0.180768
3896	0.262618
3880	0.132131
3864	-0.055694
3848	0.104069
3832	0.085592
3816	-0.094366
3800	0.126814
3784	0.065946
3768	0.030636
3752	0.033688
3736	0.014591
3720	-0.017571
3704	-0.016379
3688	0.105047
3672	0.117230
3656	-0.013971
3640	0.179910
3624	0.122451
3608	-0.025391
3592	0.059127
3576	0.041508
3560	-0.010514
3544	0.158476
3528	0.035786
3512	0.096440
3496	-0.049066
3480	0.065279
3464	0.067496
3448	0.136756
3432	0.005650
3416	-0.041985
3400	0.098347
3384	0.045728
3368	-0.079226
3352	0.008273
3336	0.052237
3320	0.092482
3304	0.012946
3288	0.050592
3272	0.002813
3256	-0.052499
3240	-0.000572
3224	0.044941
3208	0.007009
3192	0.044012
3176	0.019240
3160	0.101780
3144	-0.024652
3128	0.147747
3112	-0.085783
3096	0.056195
3080	-0.011968
3064	0.014877
3048	-0.103282
3032	0.061964
3016	-0.009131
3000	0.029873
2984	-0.008344
2968	0.032973
2952	0.053191
2936	-0.045251
2920	-0.030469
2904	-0.007247
2888	-0.016331
2872	0.157189
2856	0.147604
2840	0.089859
2824	-0.055718
2808	-0.033140
2792	-0.009226
2776	0.064420
2760	-0.055289
2744	0.082397
2728	0.058889
2712	0.043892
2696	-0.035095
2680	0.044441
2664	0.006556
2648	-0.099325
2632	0.123786
2616	0.002503
2600	0.108623
2584	-0.082635
2568	0.118112
2552	-0.009775
2536	-0.044369
2520	-0.053000
2504	0.068545
2488	0.003147
2472	0.061631
2456	0.009727
2440	-0.003647
2424	0.149679
2408	-0.059580
2392	0.028491
2376	-0.085616
2360	0.080513
2344	0.033760
2328	0.046324
2312	0.034832
2296	0.088548
2280	0.035834
2264	0.152134
2248	0.187015
2232	0.312542
2216	0.567007
2200	0.893330
2184	1.284575
2168	1.968431
2152	2.539157
2136	3.583741
2120	4.675030
2104	5.831599
2088	7.068228
2072	8.479785
2056	10.2083
2040	11.4889
2024	12.8865
2008	14.2048
1992	15.3817
1976	16.4068
1960	17.5323
1944	18.4397
1928	19.2818
1912	19.9852
1896	20.6728
1880	21.2445
1864	21.6401
1848	22.1121
1832	22.5073
1816	22.8371
1800	22.9973
1784	23.251
1768	23.4458
1752	23.4911
1736	23.5269
1720	23.7064
1704	23.8836
1688	23.8892
1672	23.9119
1656	23.8527
1640	23.9414
1624	23.9395
1608	23.9159
1592	23.9368
1576	24.0576
1560	23.8494
1544	23.8421
1528	23.7833
1512	23.7277
1496	23.6509
1480	23.5969
1464	23.6893
1448	23.4575
1432	23.393
1416	23.4571
1400	23.4369
1384	23.3088
1368	23.2463
1352	23.2333
1336	23.011
1320	23.025
1304	23.0643
1288	22.9494
1272	22.916
1256	22.8801
1240	22.5407
1224	22.5304
1208	22.5394
1192	22.3901
1176	22.3224
1160	22.073
1144	22.2327
1128	21.9223
1112	21.9513
1096	21.9869
1080	21.6084
1064	21.4786
1048	21.1402
1032	21.131
1016	21.0261
1000	20.984
984	 20.7151
968	 20.3707
952	 20.337
936	 20.0173
920	 19.8813
904	 19.5951
888	 19.4154
872	 19.1316
856	 18.9188
840	 18.6653
824	 18.1214
808	 17.9448
792	 17.9425
776	 17.0731
760	 17.0814
744	 16.6853
728	 16.2104
712	 16.2521
696	 15.9115
680	 15.599
664	 14.9173
648	 14.9848
632	 14.2791
616	 14.1642
600	 13.5842
584	 12.9718
568	 13.1113
552	 12.4911
536	 11.994
520	 11.8845
504	 10.53
488	 9.888911
472	 10.7454
456	 9.514331
440	 8.804678
424	 9.112381
408	 10.0547
392	 11.5154
376	 -16.6716
370	 9.872722