Folder: Masteroppgave/Bakgrunnsmateriale/MATLAB/FTIR/ftir_data/LPE453/Mapping_121 (part 41)

File: LPE453_t94.asc
PE IR       SPECTRUM    SPECTRUM    ASCII       PEDS        1.60
  -1
LPD7B9~1.ASC
17/05/16
22:06:40.00
17/05/16
22:07:06.00
tln
$LPE453_t0094$<tbV0>[0.0,7.8,8.0,0.0,27,1,0]
27.028
64

2002,4.07
MIRTGS : RIGHTBACK : INTERNAL 2
MIR : ON : INTERNAL 2
OPTKBR

0.200000
8
8.000000
FILLER
RATIO
SPECTRUM
UNLOCKED 256

DOUBLE
64
COMBINED
1
0
0

0.002000
RATIO

1
0
TRUE
51149
0
LEFT NOT FITTED RIGHT NOT FITTED 0
NONE
NONE
15600
12
4.427000
51148
TRUE
1 0 8 72 0 0 0 0

15798

#HDR
-1
-1
#GR
µM
%T
2.38419e-05
0.0
2.000000
0.002000
12515
8
35.4468
-18.2271
#DATA
2.000000	 0.232148
2.084000	 0.314733
2.168000	 1.290618
2.252000	 -0.374646
2.336000	 0.013247
2.420000	 0.401614
2.504000	 0.019739
2.588000	 0.218640
2.672000	 0.095213
2.756000	 -0.100200
2.840000	 -0.020323
2.924000	 0.004986
3.008000	 0.051681
3.092000	 0.048840
3.176000	 0.056514
3.260000	 0.049375
3.344000	 -0.004694
3.428000	 0.090838
3.512000	 -0.026629
3.596000	 0.084163
3.680000	 -0.043950
3.764000	 0.068675
3.848000	 0.136340
3.932000	 -0.000231
4.016000	 0.170246
4.100000	 0.007424
4.184000	 0.151126
4.268000	 0.116372
4.352000	 0.682259
4.436000	 1.715528
4.520000	 3.972614
4.604000	 7.454651
4.688000	 11.9113
4.772000	 16.7909
4.856000	 21.1204
4.940000	 24.7902
5.024000	 27.6045
5.108000	 29.524
5.192000	 31.3466
5.276000	 32.1908
5.359999	 33.4203
5.444000	 33.5876
5.528000	 34.1607
5.612000	 34.2889
5.696000	 34.6684
5.780000	 34.4712
5.864000	 35.1381
5.948000	 34.644
6.032000	 35.1678
6.116000	 34.9653
6.200000	 34.8471
6.284000	 35.3021
6.368000	 34.6226
6.452000	 35.0094
6.536000	 35.3371
6.620000	 34.7204
6.704000	 35.1891
6.788000	 35.2592
6.872000	 34.6098
6.956000	 34.9812
7.040000	 35.2489
7.124000	 34.5526
7.208000	 34.5715
7.292000	 35.168
7.376000	 34.9666
7.460000	 34.2402
7.544000	 34.4263
7.628000	 34.9328
7.712000	 34.7019
7.796000	 34.1271
7.880000	 34.2313
7.964000	 34.7699
8.048000	 34.6084
8.132000	 34.1269
8.216000	 33.9585
8.300000	 34.313
8.384000	 34.6802
8.468000	 34.4151
8.552000	 33.7665
8.635999	 33.702
8.719999	 34.1182
8.804000	 34.5181
8.888000	 34.2293
8.972000	 33.6402
9.056000	 33.3251
9.140000	 33.6082
9.224000	 34.0268
9.308000	 34.1419
9.391999	 33.8541
9.475999	 33.2715
9.560000	 33.2108
9.644000	 33.4584
9.728000	 33.6089
9.812000	 33.7006
9.896000	 33.7912
9.980000	 33.2088
10.064	32.6056
10.148	32.5737
10.232	32.868
10.316	33.1614
10.4	33.4866
10.484	33.3264
10.568	32.7234
10.652	32.3102
10.736	32.0413
10.82	32.2445
10.904	32.3483
10.988	32.6792
11.072	32.8142
11.156	32.4736
11.24	32.0178
11.324	31.6613
11.408	31.3654
11.492	31.1702
11.576	31.3107
11.66	31.7685
11.744	32.0875
11.828	32.1849
11.912	31.9947
11.996	31.661
12.08	31.2811
12.164	30.8786
12.248	30.6283
12.332	30.5479
12.416	30.6536
12.5	30.8833
12.584	31.0491
12.668	31.2091
12.752	31.2673
12.836	31.1521
12.92	30.8101
13.004	30.4403
13.088	30.2092
13.172	29.9327
13.256	29.8771
13.34	30.0374
13.424	30.2225
13.508	30.3042
13.592	30.362
13.676	30.3676
13.76	30.3331
13.844	30.1551
13.928	29.9345
14.012	29.6994
14.096	29.3377
14.18	28.9765
14.264	28.7822
14.348	28.6886
14.432	28.6707
14.516	28.786
14.6	28.9121
14.684	29.0716
14.768	29.3409
14.852	29.5318
14.936	29.4295
15.02	29.2685
15.104	29.2652
15.188	29.1085
15.272	28.6815
15.356	28.2701
15.44	28.0288
15.524	27.8949
15.608	27.7695
15.692	27.6998
15.776	27.7781
15.86	27.8597
15.944	27.7874
16.028	27.7548
16.112	27.9317
16.196	28.0783
16.28	27.9425
16.364	27.6368
16.448	27.4125
16.532	27.3815
16.616	27.4627
16.7	27.4573
16.784	27.2545
16.868	26.9365
16.952	26.6175
17.036	26.3371
17.12	26.1478
17.204	26.1173
17.288	26.1824
17.372	26.1585
17.456	25.9739
17.54	25.7959
17.624	25.8305
17.708	26.0452
17.792	26.2306
17.876	26.2931
17.96	26.3354
18.044	26.4376
18.128	26.5285
18.212	26.5188
18.296	26.4276
18.38	26.3132
18.464	26.1566
18.548	25.8986
18.632	25.5474
18.716	25.1981
18.8	24.9527
18.884	24.8589
18.968	24.9087
19.052	25.0464
19.136	25.1746
19.22	25.1943
19.304	25.0941
19.388	24.9663
19.472	24.9227
19.556	24.981
19.64	25.06
19.724	25.0778
19.808	25.043
19.892	25.0244
19.976	25.0446
20.06	25.0181
20.144	24.8155
20.228	24.3878
20.312	23.8359
20.396	23.3603
20.48	23.1447
20.564	23.2609
20.648	23.6496
20.732	24.1619
20.816	24.6231
20.9	24.8914
20.984	24.9014
21.068	24.6682
21.152	24.2541
21.236	23.7366
21.32	23.1833
21.404	22.6685
21.488	22.276
21.572	22.0814
21.656	22.1104
21.74	22.3136
21.824	22.5853
21.908	22.8113
21.992	22.9132
22.076	22.8617
22.16	22.668
22.244	22.3831
22.328	22.0855
22.412	21.8797
22.496	21.866
22.58	22.0877
22.664	22.5169
22.748	23.0508
22.832	23.5538
22.916	23.9038
23	24.0241
23.084	23.8877
23.168	23.5113
23.252	22.9522
23.336	22.3099
23.42	21.6956
23.504	21.2073
23.588	20.8905
23.672	20.7178
23.756	20.5948
23.84	20.4433
23.924	20.2438
24.008	20.0783
24.092	20.1083
24.176	20.4493
24.26	21.1002
24.344	21.8937
24.428	22.5593
24.512	22.8244
24.596	22.5651
24.68	21.8949
24.764	21.1498
24.848	20.6895
24.932	20.7664
25.016	21.3737
25.1	22.2424
25.184	22.9584
25.268	23.1529
25.352	22.6208
25.436	21.3295
25.52	19.3962
25.604	16.9908
25.688	14.2102
25.772	11.1186
25.856	7.843437
25.94	4.607922
26.024	1.740199
26.108	-0.415722
26.192	-1.654160
26.276	-2.018084
26.36	-1.855729
26.444	-1.689613
26.528	-2.033398
26.612	-3.218173
26.696	-5.331303
26.78	-8.201191
26.864	-11.521
26.948	-14.982
27.028	-18.2271

File: LPE453_t94_cm-1.asc
PE IR       SPECTRUM    SPECTRUM    ASCII       PEDS        1.60
  -1
LPEB5B~1.ASC
17/05/16
22:06:40.00
17/05/16
22:06:40.00
tln
$LPE453_t0094$<tbV0>[0.0,7.8,8.0,0.0,27,1,0]
370
64

2002,4.07
MIRTGS : RIGHTBACK : INTERNAL 2
MIR : ON : INTERNAL 2
OPTKBR

0.200000
8
8.000000
FILLER
RATIO
SPECTRUM
UNLOCKED 256

DOUBLE
64
COMBINED
1
0
0

1.000000
RATIO

1
0
TRUE
51149
0
LEFT NOT FITTED RIGHT NOT FITTED 0
NONE
NONE
15600
12
4.427000
51148
TRUE
1 0 8 72 0 0 0 0

15798

#HDR
-1
-1
#GR
CM-1
%T
2.38419e-05
0.0
5000
-1.000000
4631
8
35.4467
-18.2271
#DATA
5000	0.232148
4984	0.084042
4968	0.065398
4952	0.150084
4936	-0.121808
4920	0.170111
4904	-0.157141
4888	-0.042271
4872	0.343775
4856	0.344014
4840	0.126242
4824	-0.269508
4808	0.488948
4792	0.138688
4776	0.130009
4760	0.361442
4744	-0.267982
4728	0.110197
4712	-0.181198
4696	0.339603
4680	-0.296902
4664	-0.791454
4648	0.586104
4632	0.461673
4616	0.971651
4600	-1.008367
4584	0.525474
4568	0.472450
4552	-1.434111
4536	-1.271772
4520	0.601649
4504	3.744244
4488	13.7834
4472	-1.045560
4456	-0.780749
4440	-0.395178
4424	-0.359177
4408	0.428223
4392	0.456047
4376	0.134325
4360	0.506353
4344	0.048923
4328	0.373578
4312	0.009870
4296	-0.021362
4280	0.025725
4264	-0.108718
4248	0.132918
4232	0.368237
4216	0.180673
4200	0.430488
4184	0.238990
4168	-0.132989
4152	0.028038
4136	0.427341
4120	-0.015139
4104	-0.082254
4088	0.155568
4072	0.010108
4056	0.161075
4040	0.397467
4024	0.082850
4008	0.166249
3992	0.019240
3976	0.104069
3960	0.095582
3944	0.171136
3928	-0.074148
3912	0.106835
3896	0.242853
3880	0.004124
3864	0.218200
3848	0.290346
3832	-0.001430
3816	0.177669
3800	0.146102
3784	0.088977
3768	0.086522
3752	-0.022029
3736	0.014185
3720	0.125956
3704	0.088667
3688	0.024127
3672	0.161218
3656	0.036978
3640	-0.068974
3624	-0.070548
3608	0.015878
3592	0.134253
3576	-0.014972
3560	-0.170373
3544	0.100350
3528	-0.076174
3512	0.027370
3496	0.236201
3480	-0.008368
3464	-0.016069
3448	0.011825
3432	-0.096964
3416	-0.011467
3400	0.049376
3384	0.130319
3368	-0.007033
3352	0.120162
3336	-0.049853
3320	0.016975
3304	0.284171
3288	0.201535
3272	0.146007
3256	-0.019240
3240	0.029850
3224	0.072932
3208	-0.092554
3192	-0.033116
3176	0.072336
3160	0.028085
3144	0.002002
3128	0.119972
3112	0.031757
3096	0.004148
3080	-0.018191
3064	0.041437
3048	0.004935
3032	0.053691
3016	-0.067996
3000	0.049471
2984	-0.088191
2968	0.127148
2952	0.047850
2936	-0.043869
2920	0.108885
2904	-0.009083
2888	-0.071883
2872	0.121378
2856	-0.016880
2840	0.025153
2824	0.059771
2808	-0.041031
2792	-0.040125
2776	0.113797
2760	-0.033164
2744	-0.016927
2728	0.129532
2712	-0.021433
2696	0.086498
2680	0.055336
2664	0.019526
2648	0.014710
2632	-0.014281
2616	0.085306
2600	0.131773
2584	0.072836
2568	-0.000762
2552	0.120806
2536	0.004291
2520	-0.003457
2504	0.045037
2488	0.100994
2472	0.065898
2456	-0.006175
2440	0.008463
2424	0.117135
2408	0.032567
2392	0.157594
2376	0.125217
2360	0.072336
2344	0.102114
2328	0.390315
2312	0.559186
2296	0.705170
2280	0.980949
2264	1.393842
2248	2.069497
2232	2.709150
2216	3.713726
2200	4.766845
2184	6.231331
2168	7.868695
2152	9.754872
2136	11.543
2120	13.5767
2104	15.7257
2088	17.714
2072	19.5777
2056	21.4578
2040	23.2705
2024	24.8098
2008	26.0788
1992	27.4733
1976	28.671
1960	29.4291
1944	30.2989
1928	31.2459
1912	31.795
1896	32.1687
1880	32.894
1864	33.4332
1848	33.3001
1832	33.7429
1816	34.1563
1800	34.1654
1784	34.2279
1768	34.6407
1752	34.6012
1736	34.458
1720	34.8857
1704	35.1226
1688	34.759
1672	34.6457
1656	35.181
1640	35.1597
1624	34.7826
1608	35.0161
1592	35.2943
1576	34.8738
1560	34.687
1544	35.2609
1528	35.2779
1512	34.7522
1496	34.9845
1480	35.3967
1464	35.1127
1448	34.5706
1432	35.0782
1416	35.1231
1400	34.535
1384	34.6321
1368	35.2046
1352	34.781
1336	34.2365
1320	34.6308
1304	34.9188
1288	34.2882
1272	34.1548
1256	34.7596
1240	34.4779
1224	34.0423
1208	34.1716
1192	34.6864
1176	34.1329
1160	33.6462
1144	34.2108
1128	34.383
1112	33.5452
1096	33.5119
1080	34.13
1064	33.8025
1048	33.2118
1032	33.5535
1016	33.715
1000	33.0351
984	 32.6144
968	 33.2273
952	 33.1941
936	 32.16
920	 32.2843
904	 32.8181
888	 31.9228
872	 31.2051
856	 31.8837
840	 32.0252
824	 30.9934
808	 30.5837
792	 31.1256
776	 30.9773
760	 29.9699
744	 30.2446
728	 30.3531
712	 29.5712
696	 28.673
680	 29.1335
664	 29.2589
648	 28.045
632	 27.8399
616	 28.0536
600	 27.4816
584	 26.1435
568	 25.8018
552	 26.5207
536	 25.439
520	 25.1873
504	 25.0301
488	 23.1409
472	 24.0502
456	 22.8518
440	 22.9168
424	 20.8993
408	 22.8241
392	 19.6478
376	 -2.913618
370	 -18.2271

File: LPE453_t95.asc
PE IR       SPECTRUM    SPECTRUM    ASCII       PEDS        1.60
  -1
LPD7BD~1.ASC
17/05/16
22:11:16.00
17/05/16
22:11:43.00
tln
$LPE453_t0095$<tbV0>[-2.6,7.8,8.0,0.0,27,1,0]
27.028
64

2002,4.07
MIRTGS : RIGHTBACK : INTERNAL 2
MIR : ON : INTERNAL 2
OPTKBR

0.200000
8
8.000000
FILLER
RATIO
SPECTRUM
UNLOCKED 256

DOUBLE
64
COMBINED
1
0
0

0.002000
RATIO

1
0
TRUE
51149
0
LEFT NOT FITTED RIGHT NOT FITTED 0
NONE
NONE
15600
12
4.427000
51148
TRUE
1 0 8 72 0 0 0 0

15798

#HDR
-1
-1
#GR
µM
%T
2.38419e-05
0.0
2.000000
0.002000
12515
8
37.5832
-2.082308
#DATA
2.000000	 -0.306487
2.084000	 0.574577
2.168000	 2.039044
2.252000	 -0.753591
2.336000	 0.065721
2.420000	 0.107556
2.504000	 0.238178
2.588000	 -0.068722
2.672000	 0.033335
2.756000	 0.076849
2.840000	 0.145607
2.924000	 0.049103
3.008000	 -0.074694
3.092000	 0.099000
3.176000	 0.042323
3.260000	 0.187449
3.344000	 0.117844
3.428000	 0.036687
3.512000	 0.052387
3.596000	 0.069685
3.680000	 0.036383
3.764000	 -0.053983
3.848000	 0.168069
3.932000	 0.026458
4.016000	 -0.056293
4.100000	 -0.124422
4.184000	 0.098376
4.268000	 0.286412
4.352000	 0.848669
4.436000	 2.206589
4.520000	 4.736452
4.604000	 8.713018
4.688000	 13.5595
4.772000	 18.6462
4.856000	 23.1029
4.940000	 26.9871
5.024000	 29.7806
5.108000	 31.7521
5.192000	 33.5947
5.276000	 34.4273
5.359999	 35.6107
5.444000	 35.8239
5.528000	 36.639
5.612000	 36.4872
5.696000	 36.9686
5.780000	 36.9622
5.864000	 36.9459
5.948000	 37.3642
6.032000	 36.9
6.116000	 37.3803
6.200000	 37.2747
6.284000	 36.8581
6.368000	 37.3576
6.452000	 37.1645
6.536000	 36.8688
6.620000	 37.5666
6.704000	 36.9985
6.788000	 36.7775
6.872000	 37.0956
6.956000	 37.2163
7.040000	 36.6067
7.124000	 36.779
7.208000	 37.2551
7.292000	 36.8367
7.376000	 36.3525
7.460000	 36.7949
7.544000	 37.2474
7.628000	 36.8476
7.712000	 36.1832
7.796000	 36.463
7.880000	 36.9231
7.964000	 36.9129
8.048000	 36.157
8.132000	 35.99
8.216000	 36.287
8.300000	 36.7714
8.384000	 36.5831
8.468000	 35.9303
8.552000	 35.7195
8.635999	 36.0157
8.719999	 36.4551
8.804000	 36.529
8.888000	 35.8755
8.972000	 35.4259
9.056000	 35.5771
9.140000	 35.7514
9.224000	 36.0812
9.308000	 36.1255
9.391999	 35.666
9.475999	 35.0495
9.560000	 34.9752
9.644000	 35.2588
9.728000	 35.6022
9.812000	 35.7746
9.896000	 35.8211
9.980000	 35.2331
10.064	34.633
10.148	34.4923
10.232	34.7176
10.316	35.0563
10.4	35.3431
10.484	35.5016
10.568	35.1476
10.652	34.6289
10.736	34.1517
10.82	33.8925
10.904	33.9764
10.988	34.3169
11.072	34.6319
11.156	34.6828
11.24	34.7161
11.324	34.567
11.408	33.9535
11.492	33.5564
11.576	33.1843
11.66	33.1774
11.744	33.3561
11.828	33.6019
11.912	33.9294
11.996	33.9621
12.08	33.8421
12.164	33.5487
12.248	33.2445
12.332	32.802
12.416	32.4202
12.5	32.394
12.584	32.5049
12.668	32.6751
12.752	32.7903
12.836	32.8802
12.92	32.9285
13.004	32.9727
13.088	33.0032
13.172	32.7676
13.256	32.3574
13.34	32.0155
13.424	31.753
13.508	31.4264
13.592	31.168
13.676	31.2096
13.76	31.4175
13.844	31.7009
13.928	31.9718
14.012	32.0921
14.096	32.0988
14.18	32.0664
14.264	31.9086
14.348	31.5968
14.432	31.281
14.516	30.951
14.6	30.599
14.684	30.305
14.768	30.0944
14.852	29.9982
14.936	29.986
15.02	30.0401
15.104	30.173
15.188	30.3314
15.272	30.5024
15.356	30.6959
15.44	30.8278
15.524	30.8373
15.608	30.7266
15.692	30.494
15.776	30.2229
15.86	29.9964
15.944	29.7515
16.028	29.4309
16.112	29.1176
16.196	28.9422
16.28	28.8996
16.364	28.8126
16.448	28.6209
16.532	28.5414
16.616	28.6988
16.7	28.9053
16.784	28.9942
16.868	29.0211
16.952	29.0979
17.036	29.2836
17.12	29.5454
17.204	29.7
17.288	29.5748
17.372	29.2288
17.456	28.8799
17.54	28.6602
17.624	28.542
17.708	28.4154
17.792	28.186
17.876	27.8538
17.96	27.4897
18.044	27.1538
18.128	26.9152
18.212	26.8841
18.296	27.1017
18.38	27.4227
18.464	27.6284
18.548	27.6536
18.632	27.6042
18.716	27.6013
18.8	27.6777
18.884	27.7991
18.968	27.9212
19.052	28.0082
19.136	28.0285
19.22	27.9633
19.304	27.8259
19.388	27.6603
19.472	27.511
19.556	27.3779
19.64	27.2064
19.724	26.9402
19.808	26.5918
19.892	26.2529
19.976	26.0364
20.06	25.9905
20.144	26.0612
20.228	26.1268
20.312	26.079
20.396	25.8877
20.48	25.612
20.564	25.3595
20.648	25.2306
20.732	25.2738
20.816	25.4689
20.9	25.7452
20.984	26.0203
21.068	26.235
21.152	26.3683
21.236	26.4301
21.32	26.4403
21.404	26.4196
21.488	26.3798
21.572	26.3227
21.656	26.2389
21.74	26.1147
21.824	25.9472
21.908	25.7556
21.992	25.5772
22.076	25.4467
22.16	25.3673
22.244	25.3067
22.328	25.2219
22.412	25.0971
22.496	24.9694
22.58	24.8959
22.664	24.9147
22.748	25.0181
22.832	25.1589
22.916	25.2811
23	25.3435
23.084	25.3326
23.168	25.2348
23.252	25.0195
23.336	24.6507
23.42	24.1237
23.504	23.4773
23.588	22.8086
23.672	22.2464
23.756	21.92
23.84	21.9448
23.924	22.3755
24.008	23.1776
24.092	24.2169
24.176	25.2758
24.26	26.1385
24.344	26.6543
24.428	26.8194
24.512	26.8004
24.596	26.8358
24.68	27.0981
24.764	27.5822
24.848	28.1003
24.932	28.3624
25.016	28.1409
25.1	27.3908
25.184	26.2071
25.268	24.759
25.352	23.1985
25.436	21.647
25.52	20.1921
25.604	18.9084
25.688	17.8383
25.772	16.9878
25.856	16.3292
25.94	15.7677
26.024	15.1731
26.108	14.4355
26.192	13.5082
26.276	12.4155
26.36	11.2064
26.444	10.0121
26.528	9.024412
26.612	8.435525
26.696	8.390368
26.78	8.930390
26.864	9.948857
26.948	11.2292
27.028	12.469

File: LPE453_t95_cm-1.asc
PE IR       SPECTRUM    SPECTRUM    ASCII       PEDS        1.60
  -1
LPEBDA~1.ASC
17/05/16
22:11:16.00
17/05/16
22:11:16.00
tln
$LPE453_t0095$<tbV0>[-2.6,7.8,8.0,0.0,27,1,0]
370
64

2002,4.07
MIRTGS : RIGHTBACK : INTERNAL 2
MIR : ON : INTERNAL 2
OPTKBR

0.200000
8
8.000000
FILLER
RATIO
SPECTRUM
UNLOCKED 256

DOUBLE
64
COMBINED
1
0
0

1.000000
RATIO

1
0
TRUE
51149
0
LEFT NOT FITTED RIGHT NOT FITTED 0
NONE
NONE
15600
12
4.427000
51148
TRUE
1 0 8 72 0 0 0 0

15798

#HDR
-1
-1
#GR
CM-1
%T
2.38419e-05
0.0
5000
-1.000000
4631
8
37.5821
-2.152156
#DATA
5000	-0.306487
4984	-0.099301
4968	0.305080
4952	0.153827
4936	-0.462722
4920	0.070190
4904	0.138115
4888	-0.106239
4872	0.281429
4856	0.439262
4840	0.275802
4824	0.332856
4808	0.181865
4792	0.366735
4776	-0.190758
4760	0.162148
4744	0.811505
4728	-0.131440
4712	-0.238370
4696	-0.939583
4680	0.057125
4664	0.366306
4648	1.777172
4632	1.408314
4616	1.860690
4600	0.740885
4584	0.355982
4568	-1.070380
4552	-1.455783
4536	-0.461196
4520	-1.006269
4504	17.4952
4488	2.994680
4472	-1.097583
4456	-0.747084
4440	-0.759983
4424	-0.307774
4408	0.419831
4392	0.852060
4376	0.603437
4360	0.461435
4344	0.436758
4328	0.036263
4312	-0.197315
4296	-0.008440
4280	0.066447
4264	0.167512
4248	-0.007295
4232	0.176644
4216	0.325131
4200	0.122976
4184	0.215506
4168	0.478625
4152	0.114321
4136	0.002312
4120	0.018692
4104	0.371098
4088	-0.074505
4072	0.061440
4056	0.188159
4040	0.027561
4024	0.164389
4008	0.184130
3992	0.192761
3976	0.022101
3960	0.304031
3944	0.174665
3928	0.109195
3912	0.073456
3896	0.079298
3880	0.072431
3864	-0.068736
3848	0.086426
3832	0.224256
3816	0.091218
3800	0.014591
3784	0.156474
3768	0.128602
3752	0.055885
3736	0.012063
3720	0.149846
3704	0.071883
3688	0.094604
3672	-0.043630
3656	-0.000500
3640	0.066518
3624	0.055789
3608	0.015687
3592	0.133466
3576	-0.189852
3560	-0.060701
3544	0.087118
3528	0.183892
3512	0.074768
3496	-0.018906
3480	0.131964
3464	-0.021195
3448	0.046038
3432	0.056409
3416	0.028371
3400	0.168704
3384	-0.059700
3368	0.057744
3352	-0.196671
3336	0.142455
3320	-0.025606
3304	0.113654
3288	-0.010514
3272	0.111913
3256	0.146865
3240	0.025272
3224	0.090789
3208	-0.008606
3192	-0.023555
3176	-0.034809
3160	-0.008225
3144	-0.026440
3128	-0.199174
3112	0.181317
3096	-0.051283
3080	0.009489
3064	0.152802
3048	0.060009
3032	0.067949
3016	0.145602
3000	0.050997
2984	0.062608
2968	0.185036
2952	0.078487
2936	0.113701
2920	0.051641
2904	0.128936
2888	0.060844
2872	0.124812
2856	0.080156
2840	0.037527
2824	-0.067543
2808	0.032496
2792	-0.069522
2776	0.046491
2760	0.030946
2744	0.110626
2728	0.033116
2712	0.049638
2696	-0.050091
2680	0.074481
2664	0.041604
2648	0.029110
2632	0.073099
2616	-0.099134
2600	0.164103
2584	0.039458
2568	0.026535
2552	0.012707
2536	-0.003504
2520	0.056886
2504	-0.030422
2488	-0.079107
2472	0.000739
2456	-0.009274
2440	-0.112414
2424	-0.012445
2408	0.139093
2392	0.062966
2376	0.156474
2360	0.152063
2344	0.269603
2328	0.387287
2312	0.689387
2296	0.921344
2280	1.378107
2264	1.920104
2248	2.497792
2232	3.495287
2216	4.491567
2200	5.892729
2184	7.296204
2168	9.155678
2152	11.1961
2136	13.1716
2120	15.3987
2104	17.5159
2088	19.6217
2072	21.5917
2056	23.4676
2040	25.3623
2024	27.0122
2008	28.2643
1992	29.6566
1976	30.9452
1960	31.6597
1944	32.5711
1928	33.4916
1912	34.0417
1896	34.4089
1880	35.0209
1864	35.641
1848	35.7997
1832	35.8044
1816	36.4378
1800	36.6268
1784	36.5053
1768	36.5622
1752	37.0946
1736	36.9945
1720	36.9042
1704	36.9637
1688	37.4238
1672	37.084
1656	36.8919
1640	37.2414
1624	37.5564
1608	37.1003
1592	36.8412
1576	37.2623
1560	37.4042
1544	36.9548
1528	36.9717
1512	37.5821
1496	37.2355
1480	36.832
1464	36.9242
1448	37.4178
1432	36.9937
1416	36.601
1400	36.9509
1384	37.2702
1368	36.6721
1352	36.3497
1336	36.9986
1320	37.2052
1304	36.4835
1288	36.2357
1272	36.8732
1256	36.9234
1240	36.0517
1224	36.0508
1208	36.6784
1192	36.5533
1176	35.7622
1160	35.8832
1144	36.5025
1128	36.0614
1112	35.4583
1096	35.6929
1080	36.1773
1064	35.6067
1048	34.9942
1032	35.5062
1016	35.8756
1000	35.0825
984	 34.5232
968	 35.1126
952	 35.4357
936	 34.4098
920	 33.9013
904	 34.5992
888	 34.7428
872	 33.6728
856	 33.2103
840	 33.9046
824	 33.6643
808	 32.563
792	 32.5888
776	 32.9163
760	 32.8278
744	 31.6952
728	 31.3509
712	 32.102
696	 31.5191
680	 30.2408
664	 30.0962
648	 30.8206
632	 30.0925
616	 28.915
600	 28.8335
584	 29.5549
568	 28.5643
552	 26.9392
536	 27.595
520	 27.9491
504	 26.4494
488	 25.5727
472	 26.4011
456	 25.7061
440	 24.987
424	 22.8319
408	 26.8008
392	 20.3537
376	 8.508682
370	 12.469

File: LPE453_t96.asc
PE IR       SPECTRUM    SPECTRUM    ASCII       PEDS        1.60
  -1
LPD7B1~1.ASC
17/05/16
22:15:53.00
17/05/16
22:16:19.00
tln
$LPE453_t0096$<tbV0>[-5.2,7.8,8.0,0.0,27,1,0]
27.028
64

2002,4.07
MIRTGS : RIGHTBACK : INTERNAL 2
MIR : ON : INTERNAL 2
OPTKBR

0.200000
8
8.000000
FILLER
RATIO
SPECTRUM
UNLOCKED 256

DOUBLE
64
COMBINED
1
0
0

0.002000
RATIO

1
0
TRUE
51149
0
LEFT NOT FITTED RIGHT NOT FITTED 0
NONE
NONE
15600
12
4.427000
51148
TRUE
1 0 8 72 0 0 0 0

15798

#HDR
-1
-1
#GR
µM
%T
2.38419e-05
0.0
2.000000
0.002000
12515
8
40.3939
-3.051344
#DATA
2.000000	 0.146317
2.084000	 0.522505
2.168000	 -0.427936
2.252000	 -0.904547
2.336000	 0.139725
2.420000	 0.136093
2.504000	 0.251621
2.588000	 0.126746
2.672000	 0.033399
2.756000	 0.012243
2.840000	 -0.070025
2.924000	 0.054569
3.008000	 0.301625
3.092000	 0.149987
3.176000	 0.093228
3.260000	 0.111607
3.344000	 -0.032641
3.428000	 0.082376
3.512000	 -0.014784
3.596000	 0.024370
3.680000	 0.049831
3.764000	 -0.019198
3.848000	 0.171283
3.932000	 -0.009548
4.016000	 -0.044203
4.100000	 0.118420
4.184000	 0.143322
4.268000	 0.351211
4.352000	 0.953991
4.436000	 2.274255
4.520000	 4.907408
4.604000	 8.807983
4.688000	 13.7351
4.772000	 18.8191
4.856000	 23.6247
4.940000	 27.1902
5.024000	 30.3826
5.108000	 32.649
5.192000	 33.7821
5.276000	 35.5189
5.359999	 35.6704
5.444000	 36.9822
5.528000	 36.6527
5.612000	 37.3341
5.696000	 37.4423
5.780000	 37.4219
5.864000	 37.976
5.948000	 37.2708
6.032000	 38.0883
6.116000	 37.7174
6.200000	 37.3508
6.284000	 38.3654
6.368000	 37.4058
6.452000	 37.5268
6.536000	 38.2624
6.620000	 37.62
6.704000	 37.1145
6.788000	 38.1847
6.872000	 37.8744
6.956000	 37.135
7.040000	 37.484
7.124000	 38.0105
7.208000	 37.2367
7.292000	 36.7723
7.376000	 37.393
7.460000	 37.8574
7.544000	 37.0482
7.628000	 36.6107
7.712000	 37.1813
7.796000	 37.8036
7.880000	 37.2527
7.964000	 36.4507
8.048000	 36.4638
8.132000	 37.2979
8.216000	 37.5391
8.300000	 37.0906
8.384000	 36.2254
8.468000	 36.3993
8.552000	 37.0826
8.635999	 37.3207
8.719999	 37.0369
8.804000	 36.1938
8.888000	 35.9436
8.972000	 36.2506
9.056000	 36.8032
9.140000	 37.2378
9.224000	 36.8424
9.308000	 36.3136
9.391999	 35.5124
9.475999	 35.7348
9.560000	 36.11
9.644000	 36.6741
9.728000	 36.5245
9.812000	 36.2624
9.896000	 35.545
9.980000	 35.0812
10.064	35.1563
10.148	35.5861
10.232	36.1138
10.316	36.2395
10.4	36.009
10.484	35.7126
10.568	35.1226
10.652	34.7225
10.736	34.7078
10.82	35.0906
10.904	35.3771
10.988	35.7228
11.072	35.6476
11.156	35.3253
11.24	34.8415
11.324	34.262
11.408	33.9251
11.492	33.7944
11.576	34.2431
11.66	34.7248
11.744	34.8895
11.828	34.9225
11.912	34.8023
11.996	34.4683
12.08	33.8436
12.164	33.3626
12.248	33.3489
12.332	33.1673
12.416	33.019
12.5	33.2423
12.584	33.6272
12.668	34.1665
12.752	34.3452
12.836	34.15
12.92	33.8393
13.004	33.4666
13.088	33.1452
13.172	32.8174
13.256	32.5593
13.34	32.3978
13.424	32.1044
13.508	31.9721
13.592	32.346
13.676	32.8725
13.76	33.2092
13.844	33.2574
13.928	33.0247
14.012	32.8345
14.096	32.7446
14.18	32.6083
14.264	32.3175
14.348	31.8697
14.432	31.5273
14.516	31.3664
14.6	31.2974
14.684	31.3009
14.768	31.3865
14.852	31.5376
14.936	31.6789
15.02	31.9022
15.104	32.2082
15.188	32.3074
15.272	32.177
15.356	31.9965
15.44	31.7527
15.524	31.4291
15.608	31.0321
15.692	30.5995
15.776	30.3407
15.86	30.2716
15.944	30.1038
16.028	29.79
16.112	29.5885
16.196	29.6378
16.28	29.8693
16.364	30.1267
16.448	30.2498
16.532	30.256
16.616	30.3093
16.7	30.4422
16.784	30.5341
16.868	30.5183
16.952	30.4401
17.036	30.3723
17.12	30.3384
17.204	30.2589
17.288	30.0298
17.372	29.6827
17.456	29.3897
17.54	29.2647
17.624	29.2087
17.708	29.0512
17.792	28.7934
17.876	28.6054
17.96	28.5906
18.044	28.6731
18.128	28.7225
18.212	28.6909
18.296	28.5993
18.38	28.4876
18.464	28.419
18.548	28.4709
18.632	28.6735
18.716	28.9586
18.8	29.1846
18.884	29.2255
18.968	29.0455
19.052	28.7333
19.136	28.4622
19.22	28.3745
19.304	28.4589
19.388	28.5591
19.472	28.5189
19.556	28.3021
19.64	27.981
19.724	27.6269
19.808	27.2648
19.892	26.9182
19.976	26.6501
20.06	26.5256
20.144	26.5522
20.228	26.671
20.312	26.7951
20.396	26.8589
20.48	26.8496
20.564	26.8122
20.648	26.8231
20.732	26.9412
20.816	27.1624
20.9	27.4186
20.984	27.6172
21.068	27.6953
21.152	27.6325
21.236	27.4356
21.32	27.1197
21.404	26.7164
21.488	26.2872
21.572	25.9134
21.656	25.6688
21.74	25.5741
21.824	25.5941
21.908	25.6636
21.992	25.73
22.076	25.7803
22.16	25.8193
22.244	25.8445
22.328	25.8329
22.412	25.7565
22.496	25.6173
22.58	25.4562
22.664	25.3316
22.748	25.2759
22.832	25.2582
22.916	25.1968
23	24.9653
23.084	24.4751
23.168	23.7024
23.252	22.7036
23.336	21.6151
23.42	20.5958
23.504	19.8074
23.588	19.3635
23.672	19.3046
23.756	19.5999
23.84	20.1702
23.924	20.8677
24.008	21.5346
24.092	22.063
24.176	22.4035
24.26	22.6213
24.344	22.9039
24.428	23.4686
24.512	24.4654
24.596	25.903
24.68	27.6267
24.764	29.364
24.848	30.8854
24.932	32.0909
25.016	33.0563
25.1	33.9608
25.184	34.9993
25.268	36.2124
25.352	37.4082
25.436	38.0845
25.52	37.6134
25.604	35.5333
25.688	31.7731
25.772	26.8209
25.856	21.5911
25.94	17.1545
26.024	14.4355
26.108	13.8676
26.192	15.4314
26.276	18.7581
26.36	23.2657
26.444	28.2615
26.528	33.0469
26.612	36.9909
26.696	39.5639
26.78	40.3912
26.864	39.37
26.948	36.6907
27.028	33.0408