Folder: Masteroppgave/Bakgrunnsmateriale/MATLAB/FTIR/ftir_data/LPE453/Mapping_121 (part 8)

File: LPE453_t11_cm-1.asc
PE IR       SPECTRUM    SPECTRUM    ASCII       PEDS        1.60
  -1
LPD7D5~1.ASC
17/05/16
15:14:09.00
17/05/16
15:14:09.00
tln
$LPE453_t0011$<tbV0>[-13.0,-13.0,8.0,0.0,27,1,0]
370
64

2002,4.07
MIRTGS : RIGHTBACK : INTERNAL 2
MIR : ON : INTERNAL 2
OPTKBR

0.200000
8
8.000000
FILLER
RATIO
SPECTRUM
UNLOCKED 256

DOUBLE
64
COMBINED
1
0
0

1.000000
RATIO

1
0
TRUE
51149
0
LEFT NOT FITTED RIGHT NOT FITTED 0
NONE
NONE
15600
12
4.427000
51148
TRUE
1 0 8 72 0 0 0 0

15798

#HDR
-1
-1
#GR
CM-1
%T
2.38419e-05
0.0
5000
-1.000000
4631
8
38.2356
-10.7531
#DATA
5000	0.407242
4984	-0.002837
4968	0.644516
4952	1.108908
4936	0.120401
4920	0.210070
4904	-0.273370
4888	-0.045061
4872	0.036430
4856	0.107884
4840	0.257492
4824	0.377154
4808	0.337553
4792	-0.107288
4776	0.111484
4760	0.352025
4744	-0.013041
4728	-0.044655
4712	0.170755
4696	-0.029826
4680	0.435686
4664	0.216722
4648	0.307059
4632	0.541043
4616	0.082564
4600	-0.264072
4584	-1.080536
4568	-0.333905
4552	-1.000022
4536	-0.076794
4520	5.631327
4504	2.327489
4488	-0.568985
4472	-0.529909
4456	-0.156211
4440	-0.564813
4424	-0.399136
4408	0.494146
4392	0.326466
4376	-0.017142
4360	0.278663
4344	0.118851
4328	0.021314
4312	0.085258
4296	0.197458
4280	-0.164628
4264	-0.014901
4248	-0.072860
4232	0.116634
4216	0.268507
4200	0.221848
4184	0.415086
4168	0.518298
4152	0.283384
4136	-0.041723
4120	0.141549
4104	-0.328111
4088	-0.095677
4072	-0.092887
4056	-0.066685
4040	0.302577
4024	0.008702
4008	-0.018954
3992	0.197148
3976	0.164890
3960	-0.019359
3944	-0.064539
3928	-0.043749
3912	0.036001
3896	-0.097751
3880	-0.152015
3864	-0.044345
3848	-0.128817
3832	0.231432
3816	0.003838
3800	-0.151515
3784	0.273323
3768	-0.050115
3752	-0.065970
3736	0.126099
3720	0.056624
3704	0.078082
3688	0.020933
3672	-0.034451
3656	-0.000905
3640	-0.084614
3624	0.122618
3608	0.075769
3592	0.070524
3576	0.178575
3560	0.316429
3544	0.149440
3528	0.072693
3512	0.115871
3496	0.021815
3480	0.074481
3464	0.090312
3448	0.167655
3432	0.268411
3416	-0.023841
3400	0.072646
3384	0.106978
3368	0.061702
3352	-0.131678
3336	0.082111
3320	0.010180
3304	0.161433
3288	-0.083899
3272	0.216841
3256	-0.057816
3240	-0.038838
3224	0.158095
3208	0.158548
3192	-0.119686
3176	0.156402
3160	0.062203
3144	0.082778
3128	0.283479
3112	0.111722
3096	0.209689
3080	0.012993
3064	0.074458
3048	0.052237
3032	0.070905
3016	0.246024
3000	0.026416
2984	0.105357
2968	-0.071096
2952	-0.021576
2936	0.036501
2920	0.058913
2904	0.081229
2888	-0.011444
2872	-0.083065
2856	0.039196
2840	-0.024938
2824	-0.016403
2808	0.003933
2792	0.064682
2776	-0.059890
2760	0.034642
2744	-0.047874
2728	0.004029
2712	0.074148
2696	0.069189
2680	0.070381
2664	-0.113105
2648	0.027704
2632	0.032496
2616	0.066041
2600	0.099682
2584	0.051617
2568	0.121760
2552	0.077629
2536	0.013494
2520	0.112843
2504	-0.169730
2488	0.163793
2472	0.086379
2456	-0.082445
2440	0.206446
2424	0.188469
2408	0.530028
2392	0.071024
2376	-0.195765
2360	-0.054192
2344	0.128006
2328	-0.021886
2312	0.229191
2296	0.251507
2280	0.344085
2264	0.548005
2248	0.756573
2232	1.123857
2216	1.549553
2200	2.047634
2184	2.723526
2168	3.279209
2152	4.272651
2136	5.122590
2120	6.221961
2104	7.355546
2088	8.637595
2072	9.574747
2056	10.548
2040	11.7561
2024	12.6276
2008	13.641
1992	14.3611
1976	14.9456
1960	15.8017
1944	16.2874
1928	16.5893
1912	17.1649
1896	17.4914
1880	17.8866
1864	18.0914
1848	18.4589
1832	18.679
1816	18.894
1800	19.1996
1784	19.3663
1768	19.5132
1752	19.7881
1736	20.0318
1720	19.9457
1704	20.1559
1688	20.2022
1672	20.2833
1656	20.3281
1640	20.3798
1624	20.4782
1608	20.4674
1592	20.735
1576	20.6802
1560	20.9252
1544	20.95
1528	21.1268
1512	21.2352
1496	21.0698
1480	21.2957
1464	21.1791
1448	20.9819
1432	21.2449
1416	21.2581
1400	21.3186
1384	21.129
1368	21.0292
1352	21.251
1336	21.5047
1320	21.876
1304	22.1584
1288	22.1673
1272	22.2345
1256	22.6257
1240	22.6032
1224	22.5385
1208	22.5879
1192	22.653
1176	22.5855
1160	22.7142
1144	22.8936
1128	22.7828
1112	22.6447
1096	22.4631
1080	22.7271
1064	22.5618
1048	22.6897
1032	22.9244
1016	22.9115
1000	22.7402
984	 23.0133
968	 22.7374
952	 22.4044
936	 22.5384
920	 22.6557
904	 22.398
888	 22.0052
872	 22.2747
856	 22.4793
840	 21.9021
824	 22.0382
808	 21.9836
792	 21.7719
776	 21.5914
760	 22.01
744	 21.4669
728	 21.5341
712	 21.2645
696	 20.8783
680	 20.9192
664	 20.4774
648	 20.5364
632	 21.1336
616	 20.2872
600	 20.1918
584	 20.1186
568	 19.4833
552	 19.2157
536	 19.3687
520	 19.1752
504	 18.722
488	 18.3471
472	 19.2194
456	 19.0535
440	 14.4987
424	 12.6537
408	 32.6154
392	 0.319194
376	 -9.809732
370	 -4.255723

File: LPE453_t12.asc
PE IR       SPECTRUM    SPECTRUM    ASCII       PEDS        1.60
  -1
LPC791~1.ASC
17/05/16
15:19:23.00
17/05/16
15:19:49.00
tln
$LPE453_t0012$<tbV0>[13.0,-10.4,8.0,0.0,27,1,0]
27.028
64

2002,4.07
MIRTGS : RIGHTBACK : INTERNAL 2
MIR : ON : INTERNAL 2
OPTKBR

0.200000
8
8.000000
FILLER
RATIO
SPECTRUM
UNLOCKED 256

DOUBLE
64
COMBINED
1
0
0

0.002000
RATIO

1
0
TRUE
51149
0
LEFT NOT FITTED RIGHT NOT FITTED 0
NONE
NONE
15600
12
4.427000
51148
TRUE
1 0 8 72 0 0 0 0

15798

#HDR
-1
-1
#GR
µM
%T
2.38419e-05
0.0
2.000000
0.002000
12515
8
28.0429
-2.947927
#DATA
2.000000	 0.217247
2.084000	 -0.041973
2.168000	 1.141522
2.252000	 0.962938
2.336000	 0.140512
2.420000	 0.514960
2.504000	 0.023612
2.588000	 0.083462
2.672000	 -0.032454
2.756000	 -0.024272
2.840000	 0.166596
2.924000	 -0.019154
3.008000	 -0.083043
3.092000	 -0.033305
3.176000	 -0.010147
3.260000	 0.008424
3.344000	 0.085109
3.428000	 0.084837
3.512000	 -0.001758
3.596000	 0.054067
3.680000	 0.004432
3.764000	 -0.046086
3.848000	 -0.038590
3.932000	 -0.032735
4.016000	 -0.265219
4.100000	 0.033597
4.184000	 -0.043662
4.268000	 -0.081326
4.352000	 0.079502
4.436000	 0.561992
4.520000	 1.669480
4.604000	 3.687444
4.688000	 6.529755
4.772000	 10.0629
4.856000	 13.4119
4.940000	 16.5932
5.024000	 19.132
5.108000	 21.0719
5.192000	 22.5385
5.276000	 23.7461
5.359999	 24.7753
5.444000	 25.2079
5.528000	 25.8754
5.612000	 26.2734
5.696000	 26.6153
5.780000	 26.8348
5.864000	 27.0986
5.948000	 27.2652
6.032000	 27.4766
6.116000	 27.5563
6.200000	 27.6005
6.284000	 27.624
6.368000	 27.7521
6.452000	 27.801
6.536000	 27.7491
6.620000	 28.0277
6.704000	 27.9511
6.788000	 27.8921
6.872000	 27.9596
6.956000	 28.009
7.040000	 27.912
7.124000	 27.9399
7.208000	 27.7897
7.292000	 27.9139
7.376000	 27.8283
7.460000	 27.7013
7.544000	 27.8054
7.628000	 27.8649
7.712000	 27.7687
7.796000	 27.6678
7.880000	 27.7989
7.964000	 27.7046
8.048000	 27.6409
8.132000	 27.7149
8.216000	 27.6395
8.300000	 27.678
8.384000	 27.5884
8.468000	 27.43
8.552000	 27.6086
8.635999	 27.5366
8.719999	 27.4869
8.804000	 27.2946
8.888000	 27.2783
8.972000	 27.2441
9.056000	 27.5622
9.140000	 27.4158
9.224000	 27.1015
9.308000	 26.9381
9.391999	 26.9655
9.475999	 27.3909
9.560000	 27.1774
9.644000	 26.7794
9.728000	 26.6272
9.812000	 26.612
9.896000	 26.5552
9.980000	 26.8958
10.064	26.9261
10.148	26.6578
10.232	26.469
10.316	26.4651
10.4	26.4066
10.484	26.5452
10.568	26.3308
10.652	26.232
10.736	25.9513
10.82	25.8249
10.904	25.9621
10.988	25.9835
11.072	25.9237
11.156	26.0974
11.24	25.7914
11.324	25.498
11.408	25.2487
11.492	25.2453
11.576	25.4154
11.66	25.4354
11.744	25.4764
11.828	25.6477
11.912	25.2863
11.996	24.9804
12.08	24.8292
12.164	24.8014
12.248	24.7297
12.332	24.5294
12.416	24.6841
12.5	24.7356
12.584	24.6981
12.668	24.6464
12.752	24.5161
12.836	24.2931
12.92	24.1399
13.004	23.8591
13.088	23.5811
13.172	23.6207
13.256	23.8619
13.34	24.0117
13.424	24.0322
13.508	23.8908
13.592	23.7883
13.676	23.784
13.76	23.7904
13.844	23.7906
13.928	23.5296
14.012	23.3413
14.096	23.3207
14.18	23.2832
14.264	23.302
14.348	23.1531
14.432	23.0804
14.516	23.3586
14.6	23.42
14.684	23.1832
14.768	22.9347
14.852	22.6467
14.936	22.4046
15.02	22.3313
15.104	22.2471
15.188	22.1276
15.272	22.2131
15.356	22.3808
15.44	22.4351
15.524	22.4396
15.608	22.3958
15.692	22.2709
15.776	22.0952
15.86	21.899
15.944	21.6832
16.028	21.4497
16.112	21.2043
16.196	21.0016
16.28	20.9869
16.364	21.1464
16.448	21.1411
16.532	20.837
16.616	20.5644
16.7	20.5643
16.784	20.7072
16.868	20.8454
16.952	20.9808
17.036	21.0876
17.12	21.0613
17.204	20.8733
17.288	20.6625
17.372	20.5344
17.456	20.4059
17.54	20.1923
17.624	19.9643
17.708	19.811
17.792	19.726
17.876	19.7023
17.96	19.7628
18.044	19.877
18.128	19.9944
18.212	20.1151
18.296	20.2319
18.38	20.2586
18.464	20.1151
18.548	19.8507
18.632	19.5936
18.716	19.4184
18.8	19.3031
18.884	19.1923
18.968	19.0797
19.052	19.0222
19.136	19.0506
19.22	19.0927
19.304	19.0464
19.388	18.922
19.472	18.864
19.556	18.9932
19.64	19.246
19.724	19.4198
19.808	19.3804
19.892	19.1822
19.976	18.9834
20.06	18.8648
20.144	18.7643
20.228	18.5902
20.312	18.3625
20.396	18.2064
20.48	18.2231
20.564	18.3718
20.648	18.5056
20.732	18.507
20.816	18.3841
20.9	18.236
20.984	18.1326
21.068	18.0583
21.152	17.9664
21.236	17.8659
21.32	17.8278
21.404	17.8993
21.488	18.0283
21.572	18.0828
21.656	17.9385
21.74	17.5751
21.824	17.1043
21.908	16.7035
21.992	16.5101
22.076	16.566
22.16	16.8232
22.244	17.1992
22.328	17.6221
22.412	18.0145
22.496	18.2775
22.58	18.3058
22.664	18.033
22.748	17.5138
22.832	16.937
22.916	16.5444
23	16.5073
23.084	16.8152
23.168	17.2842
23.252	17.678
23.336	17.801
23.42	17.6384
23.504	17.3172
23.588	17.0463
23.672	17.01
23.756	17.2931
23.84	17.8638
23.924	18.588
24.008	19.2558
24.092	19.6179
24.176	19.4783
24.26	18.7547
24.344	17.5208
24.428	15.9659
24.512	14.3052
24.596	12.6381
24.68	10.9351
24.764	9.105304
24.848	7.079553
24.932	4.875767
25.016	2.634084
25.1	0.560181
25.184	-1.085791
25.268	-2.090354
25.352	-2.357999
25.436	-1.926820
25.52	-0.939864
25.604	0.453003
25.688	2.193803
25.772	4.363154
25.856	7.092169
25.94	10.3627
26.024	13.861
26.108	16.9786
26.192	18.9968
26.276	19.3196
26.36	17.7338
26.444	14.4461
26.528	10.0378
26.612	5.360511
26.696	1.284754
26.78	-1.552882
26.864	-2.848252
26.948	-2.680649
27.028	-1.538610

File: LPE453_t12_cm-1.asc
PE IR       SPECTRUM    SPECTRUM    ASCII       PEDS        1.60
  -1
LPD750~1.ASC
17/05/16
15:19:23.00
17/05/16
15:19:23.00
tln
$LPE453_t0012$<tbV0>[13.0,-10.4,8.0,0.0,27,1,0]
370
64

2002,4.07
MIRTGS : RIGHTBACK : INTERNAL 2
MIR : ON : INTERNAL 2
OPTKBR

0.200000
8
8.000000
FILLER
RATIO
SPECTRUM
UNLOCKED 256

DOUBLE
64
COMBINED
1
0
0

1.000000
RATIO

1
0
TRUE
51149
0
LEFT NOT FITTED RIGHT NOT FITTED 0
NONE
NONE
15600
12
4.427000
51148
TRUE
1 0 8 72 0 0 0 0

15798

#HDR
-1
-1
#GR
CM-1
%T
2.38419e-05
0.0
5000
-1.000000
4631
8
28.0425
-2.929735
#DATA
5000	0.217247
4984	0.358462
4968	0.253367
4952	-0.432252
4936	0.013232
4920	0.175499
4904	-0.091218
4888	0.347161
4872	-0.323963
4856	0.123715
4840	0.456929
4824	0.032067
4808	0.076556
4792	0.072717
4776	0.152158
4760	-0.232577
4744	-0.032162
4728	0.161266
4712	0.103974
4696	0.248098
4680	0.307321
4664	0.880289
4648	1.034927
4632	0.569391
4616	1.382017
4600	0.672054
4584	1.004195
4568	0.375413
4552	0.701975
4536	0.375008
4520	-0.510430
4504	2.671241
4488	0.505852
4472	0.168061
4456	1.073050
4440	0.967860
4424	0.425100
4408	0.669240
4392	0.340557
4376	0.576329
4360	0.409603
4344	0.201702
4328	0.038194
4312	0.448083
4296	0.016546
4280	0.182437
4264	-0.217533
4248	0.079417
4232	0.073337
4216	0.283288
4200	-0.209355
4184	0.530076
4168	0.567030
4152	-0.018477
4136	0.347900
4120	0.087118
4104	0.019955
4088	0.080394
4072	0.107932
4056	-0.057268
4040	-0.014567
4024	0.017976
4008	0.057220
3992	0.058197
3976	0.287246
3960	-0.074052
3944	0.233173
3928	0.168991
3912	0.099205
3896	0.045871
3880	0.155711
3864	0.083518
3848	-0.053668
3832	0.073599
3816	-0.055861
3800	0.072455
3784	0.061798
3768	0.288391
3752	-0.086593
3736	-0.010013
3720	0.034117
3704	0.137805
3688	0.108647
3672	0.005412
3656	0.124096
3640	-0.021743
3624	-0.005292
3608	0.159239
3592	-0.111246
3576	-0.136566
3560	0.005364
3544	-0.053405
3528	0.037693
3512	0.048923
3496	-0.022959
3480	0.246238
3464	-0.091409
3448	0.010347
3432	-0.027465
3416	0.077915
3400	0.180721
3384	0.022816
3368	0.109338
3352	0.047445
3336	0.067853
3320	0.049614
3304	0.122237
3288	-0.029444
3272	0.053238
3256	-0.036573
3240	-0.026822
3224	0.110793
3208	-0.100922
3192	0.024247
3176	0.152969
3160	0.252151
3144	0.035476
3128	0.093078
3112	0.049161
3096	0.167942
3080	-0.071573
3064	-0.038623
3048	0.040531
3032	0.024747
3016	0.010061
3000	0.040721
2984	0.107407
2968	0.021147
2952	0.002336
2936	0.032138
2920	0.049257
2904	0.044131
2888	0.031065
2872	-0.084185
2856	-0.132179
2840	0.084733
2824	-0.005793
2808	0.116109
2792	0.007486
2776	0.087833
2760	0.069141
2744	0.036096
2728	-0.062704
2712	0.089597
2696	0.087642
2680	0.025439
2664	-0.007367
2648	-0.000715
2632	0.062680
2616	0.034594
2600	-0.023698
2584	0.072765
2568	0.071978
2552	0.081896
2536	-0.029563
2520	0.150704
2504	0.189042
2488	-0.290083
2472	0.018668
2456	0.047636
2440	0.028562
2424	0.072264
2408	0.016617
2392	-0.082516
2376	0.158286
2360	0.029850
2344	-0.078940
2328	0.071549
2312	0.053071
2296	0.109195
2280	0.219440
2264	0.413298
2248	0.755882
2232	1.147937
2216	1.516175
2200	2.115058
2184	2.946043
2168	4.028248
2152	5.094003
2136	6.237959
2120	7.846117
2104	9.237265
2088	10.7302
2072	12.5143
2056	13.7705
2040	15.2834
2024	16.6193
2008	17.874
1992	19.0286
1976	20.0608
1960	20.9213
1944	21.7858
1928	22.4619
1912	23.1724
1896	23.7315
1880	24.1989
1864	24.7841
1848	25.1732
1832	25.3652
1816	25.6885
1800	26.1734
1784	26.2597
1768	26.525
1752	26.6557
1736	26.79
1720	26.9118
1704	27.1601
1688	27.2172
1672	27.3519
1656	27.5799
1640	27.4309
1624	27.4754
1608	27.5936
1592	27.6166
1576	27.6862
1560	27.8905
1544	27.8586
1528	27.7575
1512	28.0034
1496	27.8389
1480	27.8197
1464	27.8624
1448	27.7572
1432	27.8439
1416	27.9372
1400	27.8823
1384	27.8117
1368	27.9142
1352	27.7797
1336	27.6156
1320	27.8488
1304	27.8906
1288	27.7075
1272	27.7391
1256	27.7162
1240	27.6652
1224	27.6154
1208	27.7172
1192	27.5971
1176	27.4814
1160	27.5667
1144	27.4321
1128	27.2516
1112	27.2943
1096	27.443
1080	26.9512
1064	26.9788
1048	27.3084
1032	26.7077
1016	26.5523
1000	26.8925
984	 26.5878
968	 26.4518
952	 26.5042
936	 26.1333
920	 25.8478
904	 25.8921
888	 25.7094
872	 25.2087
856	 25.409
840	 25.3261
824	 24.7741
808	 24.5924
792	 24.6695
776	 24.2064
760	 23.5902
744	 24.0161
728	 23.7795
712	 23.3316
696	 23.1043
680	 23.1173
664	 22.3062
648	 22.4335
632	 21.9879
616	 20.9639
600	 20.5348
584	 21.0566
568	 20.0094
552	 19.9778
536	 19.533
520	 19.0931
504	 19.3121
488	 18.2385
472	 17.9228
456	 16.6295
440	 17.6563
424	 17.0527
408	 14.3487
392	 -1.077222
376	 6.234741
370	 -1.538610

File: LPE453_t13.asc
PE IR       SPECTRUM    SPECTRUM    ASCII       PEDS        1.60
  -1
LPC795~1.ASC
17/05/16
15:24:00.00
17/05/16
15:24:26.00
tln
$LPE453_t0013$<tbV0>[10.4,-10.4,8.0,0.0,27,1,0]
27.028
64

2002,4.07
MIRTGS : RIGHTBACK : INTERNAL 2
MIR : ON : INTERNAL 2
OPTKBR

0.200000
8
8.000000
FILLER
RATIO
SPECTRUM
UNLOCKED 256

DOUBLE
64
COMBINED
1
0
0

0.002000
RATIO

1
0
TRUE
51149
0
LEFT NOT FITTED RIGHT NOT FITTED 0
NONE
NONE
15600
12
4.427000
51148
TRUE
1 0 8 72 0 0 0 0

15798

#HDR
-1
-1
#GR
µM
%T
2.38419e-05
0.0
2.000000
0.002000
12515
8
41.0347
-19.7971
#DATA
2.000000	 -0.148987
2.084000	 0.294408
2.168000	 0.827791
2.252000	 -0.320551
2.336000	 -0.091216
2.420000	 0.064325
2.504000	 0.098075
2.588000	 -0.162091
2.672000	 0.186505
2.756000	 -0.104803
2.840000	 -0.079001
2.924000	 0.092155
3.008000	 0.024265
3.092000	 0.179355
3.176000	 0.072997
3.260000	 0.009590
3.344000	 0.049173
3.428000	 0.073903
3.512000	 0.158078
3.596000	 0.089615
3.680000	 -0.037028
3.764000	 0.120984
3.848000	 0.049603
3.932000	 -0.095610
4.016000	 0.176894
4.100000	 0.023330
4.184000	 0.024866
4.268000	 0.086760
4.352000	 0.307474
4.436000	 0.740023
4.520000	 2.089963
4.604000	 4.581320
4.688000	 7.902700
4.772000	 12.138
4.856000	 16.0846
4.940000	 19.9022
5.024000	 22.8602
5.108000	 25.0993
5.192000	 26.9865
5.276000	 28.3659
5.359999	 29.2971
5.444000	 30.2548
5.528000	 30.7304
5.612000	 31.344
5.696000	 31.5337
5.780000	 31.6956
5.864000	 32.0983
5.948000	 32.1672
6.032000	 32.1746
6.116000	 32.4446
6.200000	 32.0474
6.284000	 32.4316
6.368000	 32.0061
6.452000	 32.5015
6.536000	 32.4204
6.620000	 32.077
6.704000	 32.3194
6.788000	 32.0242
6.872000	 31.9778
6.956000	 32.1073
7.040000	 31.8468
7.124000	 31.6972
7.208000	 32.0364
7.292000	 31.6602
7.376000	 31.3966
7.460000	 31.8169
7.544000	 31.8288
7.628000	 31.1924
7.712000	 31.4892
7.796000	 31.7718
7.880000	 31.2889
7.964000	 30.9558
8.048000	 31.2936
8.132000	 31.5536
8.216000	 31.1434
8.300000	 30.9118
8.384000	 31.0987
8.468000	 31.3483
8.552000	 31.04
8.635999	 30.7991
8.719999	 30.7143
8.804000	 31.0907
8.888000	 31.1531
8.972000	 30.8035
9.056000	 30.2702
9.140000	 30.3635
9.224000	 30.7435
9.308000	 30.8455
9.391999	 30.505
9.475999	 30.0745
9.560000	 29.9804
9.644000	 30.246
9.728000	 30.5065
9.812000	 30.7447
9.896000	 30.2252
9.980000	 29.8283
10.064	29.6061
10.148	29.8402
10.232	30.1011
10.316	30.1768
10.4	29.9396
10.484	29.5759
10.568	29.2896
10.652	29.1514
10.736	29.3552
10.82	29.6742
10.904	29.5308
10.988	29.5304
11.072	29.2388
11.156	28.717
11.24	28.4799
11.324	28.4182
11.408	28.8368
11.492	29.1286
11.576	28.8378
11.66	28.754
11.744	28.433
11.828	27.993
11.912	27.7888
11.996	27.7636
12.08	27.7671
12.164	28.0953
12.248	28.2186
12.332	28.2135
12.416	28.0853
12.5	27.7096
12.584	27.4663
12.668	27.2335
12.752	27.1405
12.836	27.2669
12.92	27.3478
13.004	27.4394
13.088	27.5723
13.172	27.5543
13.256	27.2929
13.34	27.1187
13.424	26.8437
13.508	26.6069
13.592	26.506
13.676	26.5002
13.76	26.5353
13.844	26.5139
13.928	26.6339
14.012	26.7711
14.096	26.7543
14.18	26.6108
14.264	26.3297
14.348	25.9595
14.432	25.6406
14.516	25.4503
14.6	25.295
14.684	25.1713
14.768	25.1261
14.852	25.2127
14.936	25.4407
15.02	25.6305
15.104	25.6475
15.188	25.587
15.272	25.5622
15.356	25.4972
15.44	25.3513
15.524	25.1949
15.608	24.9525
15.692	24.5919
15.776	24.284
15.86	24.1323
15.944	24.1338
16.028	24.2657
16.112	24.4152
16.196	24.4825
16.28	24.5088
16.364	24.5425
16.448	24.5483
16.532	24.4946
16.616	24.388
16.7	24.2259
16.784	23.986
16.868	23.6893
16.952	23.4432
17.036	23.3439
17.12	23.3507
17.204	23.3522
17.288	23.3136
17.372	23.2629
17.456	23.1965
17.54	23.1084
17.624	23.0607
17.708	23.1025
17.792	23.1863
17.876	23.2523
17.96	23.2909
18.044	23.2758
18.128	23.148
18.212	22.9215
18.296	22.6853
18.38	22.4716
18.464	22.2389
18.548	21.9774
18.632	21.7144
18.716	21.4675
18.8	21.2593
18.884	21.1423
18.968	21.1547
19.052	21.2568
19.136	21.3463
19.22	21.3432
19.304	21.2627
19.388	21.2091
19.472	21.311
19.556	21.6277
19.64	22.0932
19.724	22.5464
19.808	22.8285
19.892	22.8528
19.976	22.6193
20.06	22.1886
20.144	21.6637
20.228	21.1687
20.312	20.8033
20.396	20.5819
20.48	20.4316
20.564	20.2622
20.648	20.0541
20.732	19.8718
20.816	19.7916
20.9	19.8178
20.984	19.88
21.068	19.903
21.152	19.8745
21.236	19.8385
21.32	19.8299
21.404	19.8221
21.488	19.746
21.572	19.5598
21.656	19.307
21.74	19.0933
21.824	19.0109
21.908	19.0708
21.992	19.2044
22.076	19.3252
22.16	19.389
22.244	19.421
22.328	19.469
22.412	19.5483
22.496	19.6286
22.58	19.6438
22.664	19.5343
22.748	19.2598
22.832	18.7758
22.916	18.0527
23	17.1256
23.084	16.1078
23.168	15.187
23.252	14.5368
23.336	14.2509
23.42	14.2544
23.504	14.3808
23.588	14.4466
23.672	14.3541
23.756	14.1766
23.84	14.12
23.924	14.4662
24.008	15.4325
24.092	17.0499
24.176	19.1182
24.26	21.2683
24.344	23.0111
24.428	23.9298
24.512	23.8008
24.596	22.6651
24.68	20.9065
24.764	19.2195
24.848	18.2942
24.932	18.6855
25.016	20.5705
25.1	23.6937
25.184	27.472
25.268	31.2426
25.352	34.4892
25.436	36.9667
25.52	38.7259
25.604	39.9476
25.688	40.7401
25.772	41.0335
25.856	40.6072
25.94	39.2402
26.024	36.7955
26.108	33.3023
26.192	28.889
26.276	23.6844
26.36	17.7809
26.444	11.2874
26.528	4.423268
26.612	-2.461299
26.696	-8.843927
26.78	-14.1049
26.864	-17.7443
26.948	-19.5591
27.028	-19.7958

File: LPE453_t13_cm-1.asc
PE IR       SPECTRUM    SPECTRUM    ASCII       PEDS        1.60
  -1
LPD7D0~1.ASC
17/05/16
15:24:00.00
17/05/16
15:24:00.00
tln
$LPE453_t0013$<tbV0>[10.4,-10.4,8.0,0.0,27,1,0]
370
64

2002,4.07
MIRTGS : RIGHTBACK : INTERNAL 2
MIR : ON : INTERNAL 2
OPTKBR

0.200000
8
8.000000
FILLER
RATIO
SPECTRUM
UNLOCKED 256

DOUBLE
64
COMBINED
1
0
0

1.000000
RATIO

1
0
TRUE
51149
0
LEFT NOT FITTED RIGHT NOT FITTED 0
NONE
NONE
15600
12
4.427000
51148
TRUE
1 0 8 72 0 0 0 0

15798

#HDR
-1
-1
#GR
CM-1
%T
2.38419e-05
0.0
5000
-1.000000
4631
8
41.0327
-19.7958
#DATA
5000	-0.148987
4984	0.088548
4968	0.540304
4952	0.367069
4936	-0.002431
4920	0.013661
4904	-0.297403
4888	0.079727
4872	0.256228
4856	0.206112
4840	0.310707
4824	0.098943
4808	0.465750
4792	0.059199
4776	0.069355
4760	0.298881
4744	-0.043272
4728	0.381278
4712	-0.034189
4696	0.267219
4680	0.577116
4664	0.341439
4648	0.437068
4632	0.421476
4616	0.982928
4600	0.201869
4584	-0.469684
4568	-0.834035
4552	-1.378154
4536	-0.627684
4520	12.119
4504	-0.735020
4488	0.084781
4472	-0.838398
4456	-0.645542
4440	-0.294518
4424	-0.083208
4408	0.341343
4392	0.768756
4376	0.892090
4360	0.204205
4344	0.290799
4328	0.254034
4312	0.259518
4296	0.187277
4280	-0.080585
4264	-0.122499
4248	-0.161838
4232	-0.018763
4216	-0.013136
4200	0.360608
4184	0.632715
4168	0.246119
4152	0.109457
4136	0.103187
4120	0.154304
4104	0.099849
4088	0.130295
4072	0.025749
4056	0.057411
4040	0.118446
4024	0.081157
4008	0.105166
3992	0.078177
3976	0.198459
3960	0.065255
3944	0.225496
3928	-0.040006
3912	0.133204
3896	0.124907
3880	0.200033
3864	-0.162076
3848	-0.109434
3832	0.283145
3816	0.110769
3800	0.009894
3784	-0.020861
3768	0.207638
3752	0.179362
3736	0.200581
3720	0.126552
3704	0.108408
3688	0.110006
3672	0.113201
3656	-0.019884
3640	0.005340
3624	-0.022244
3608	-0.016689
3592	-0.103950
3576	0.080513
3560	0.143766
3544	0.125551
3528	0.029230
3512	0.069355
3496	0.016951
3480	-0.019454
3464	-0.008320
3448	0.092554
3432	-0.126075
3416	0.067543
3400	-0.019192
3384	0.113821
3368	0.053048
3352	-0.130176
3336	0.038647
3320	-0.014281
3304	0.184798
3288	0.022959
3272	0.037360
3256	0.092363
3240	0.069761
3224	0.144410
3208	0.026750
3192	0.060606
3176	-0.011730
3160	0.063753
3144	0.036859
3128	0.130128
3112	0.082397
3096	-0.017666
3080	0.076699
3064	0.071763
3048	0.093364
3032	-0.039196
3016	-0.014376
3000	0.047802
2984	0.122332
2968	0.079417
2952	0.007963
2936	0.190997
2920	0.140380
2904	-0.113439
2888	0.058245
2872	0.104975
2856	0.123596
2840	0.228357
2824	0.024485
2808	-0.006008
2792	0.104808
2776	-0.011754
2760	-0.032830
2744	0.009202
2728	0.040221
2712	-0.081777
2696	0.072431
2680	0.070285
2664	0.173020
2648	0.116729
2632	0.034952
2616	0.071096
2600	0.053262
2584	0.026893
2568	-0.023770
2552	0.076341
2536	0.018095
2520	-0.007343
2504	0.064611
2488	0.166559
2472	-0.016331
2456	-0.031089
2440	0.024628
2424	0.119686
2408	-0.076746
2392	0.009322
2376	-0.125598
2360	0.052523
2344	0.099205
2328	0.205039
2312	0.249958
2296	0.317287
2280	0.274038
2264	0.598073
2248	0.851488
2232	1.276111
2216	1.908802
2200	2.710843
2184	3.562951
2168	4.981899
2152	6.106305
2136	7.593798
2120	9.431886
2104	11.1384
2088	12.9503
2072	14.6164
2056	16.4958
2040	18.1948
2024	19.933
2008	21.2093
1992	22.7251
1976	23.9267
1960	24.9333
1944	26.0851
1928	26.8892
1912	27.5298
1896	28.3314
1880	28.9696
1864	29.3155
1848	30.0143
1832	30.3236
1816	30.5588
1800	31.0647
1784	31.3581
1768	31.4087
1752	31.6207
1736	31.8587
1720	31.7799
1704	32.2004
1688	32.2272
1672	31.9501
1656	32.3112
1640	32.4231
1624	32.1618
1608	32.0115
1592	32.4291
1576	32.2358
1560	32.3408
1544	32.6631
1528	32.3701
1512	32.0318
1496	32.1838
1480	32.1979
1464	31.8208
1448	32.1537
1432	32.1485
1416	31.7298
1400	31.8339
1384	31.9669
1368	31.6018
1352	31.4639
1336	31.9612
1320	31.5289
1304	31.2043
1288	31.7462
1272	31.4262
1256	30.9486
1240	31.362
1224	31.4608
1208	30.9872
1192	31.1288
1176	31.2041
1160	30.8722
1144	30.7414
1128	31.1497
1112	30.6575
1096	30.2994
1080	30.8283
1064	30.4601
1048	29.9362
1032	30.4262
1016	30.7223
1000	29.79
984	 29.8673
968	 30.1507
952	 29.5161
936	 29.2051
920	 29.6077
904	 29.3032
888	 28.4334
872	 29.1262
856	 28.7048
840	 27.7941
824	 27.9673
808	 28.1927
792	 27.3541
776	 27.3204
760	 27.5825
744	 26.7822
728	 26.5339
712	 26.7816
696	 25.8734
680	 25.1509
664	 25.6589
648	 25.3659
632	 24.18
616	 24.4943
600	 24.2984
584	 23.3514
568	 23.0638
552	 23.174
536	 21.6396
520	 21.3359
504	 22.8706
488	 20.4104
472	 19.8575
456	 19.1022
440	 19.3454
424	 14.4469
408	 23.8175
392	 38.5507
376	 -1.154422
370	 -19.7958