Folder: Masteroppgave/Bakgrunnsmateriale/MATLAB/FTIR/ftir_data/LPE453/Mapping_121 (part 42)

File: LPE453_t96_cm-1.asc
PE IR       SPECTRUM    SPECTRUM    ASCII       PEDS        1.60
  -1
LPEB5A~1.ASC
17/05/16
22:15:53.00
17/05/16
22:15:53.00
tln
$LPE453_t0096$<tbV0>[-5.2,7.8,8.0,0.0,27,1,0]
370
64

2002,4.07
MIRTGS : RIGHTBACK : INTERNAL 2
MIR : ON : INTERNAL 2
OPTKBR

0.200000
8
8.000000
FILLER
RATIO
SPECTRUM
UNLOCKED 256

DOUBLE
64
COMBINED
1
0
0

1.000000
RATIO

1
0
TRUE
51149
0
LEFT NOT FITTED RIGHT NOT FITTED 0
NONE
NONE
15600
12
4.427000
51148
TRUE
1 0 8 72 0 0 0 0

15798

#HDR
-1
-1
#GR
CM-1
%T
2.38419e-05
0.0
5000
-1.000000
4631
8
40.2418
-3.201127
#DATA
5000	0.146317
4984	-0.019454
4968	-0.129747
4952	0.092911
4936	0.172281
4920	0.199818
4904	-0.336050
4888	0.128960
4872	0.222253
4856	0.058197
4840	0.358557
4824	0.392341
4808	0.486874
4792	0.290346
4776	-0.034904
4760	0.198149
4744	0.373125
4728	-0.066924
4712	0.336527
4696	0.340604
4680	0.539588
4664	0.447750
4648	0.373911
4632	0.869750
4616	-0.189638
4600	0.278425
4584	0.854206
4568	-0.789880
4552	0.125265
4536	-0.082588
4520	-2.575278
4504	17.7719
4488	9.851002
4472	-1.104545
4456	-0.845479
4440	-0.948667
4424	0.339627
4408	0.449323
4392	0.258851
4376	0.586009
4360	0.642371
4344	0.547957
4328	0.322937
4312	0.334954
4296	0.027108
4280	0.137495
4264	0.163960
4248	-0.174975
4232	0.329685
4216	0.065588
4200	0.325179
4184	0.150489
4168	-0.309133
4152	0.142216
4136	0.137758
4120	0.162959
4104	0.140285
4088	0.091242
4072	-0.192022
4056	0.048494
4040	0.123238
4024	0.043249
4008	0.072932
3992	0.277805
3976	0.223135
3960	-0.047969
3944	0.053262
3928	0.042271
3912	-0.065827
3896	0.139021
3880	0.165104
3864	0.126719
3848	0.076627
3832	0.054931
3816	-0.060343
3800	-0.035238
3784	-0.069713
3768	0.039935
3752	0.151729
3736	-0.035357
3720	0.124096
3704	-0.015497
3688	0.082802
3672	0.208687
3656	-0.019311
3640	-0.064611
3624	0.043225
3608	0.159716
3592	-0.059747
3576	0.052618
3560	0.163674
3544	0.138878
3528	-0.070214
3512	0.027942
3496	-0.026965
3480	0.010299
3464	0.089883
3448	0.058102
3432	0.142407
3416	0.085735
3400	0.113487
3384	0.001621
3368	-0.143837
3352	0.193691
3336	0.137591
3320	0.246572
3304	0.052547
3288	0.016784
3272	0.170874
3256	0.001454
3240	0.010156
3224	0.213336
3208	0.120019
3192	-0.078272
3176	-0.020718
3160	-0.034928
3144	0.015735
3128	0.088524
3112	0.012326
3096	-0.039696
3080	0.067400
3064	0.093054
3048	0.026035
3032	-0.025534
3016	0.045847
3000	0.059747
2984	-0.028562
2968	-0.107574
2952	0.096487
2936	0.091695
2920	0.073289
2904	0.036811
2888	0.024819
2872	0.174975
2856	0.001001
2840	0.033545
2824	0.029325
2808	0.005078
2792	0.059080
2776	0.011706
2760	-0.059962
2744	0.018310
2728	0.140476
2712	0.029397
2696	0.017476
2680	0.021386
2664	0.044059
2648	0.007987
2632	0.003004
2616	-0.003218
2600	0.155115
2584	0.060224
2568	0.049996
2552	0.031208
2536	0.070095
2520	0.026845
2504	0.036525
2488	-0.030112
2472	0.048661
2456	0.108361
2440	0.118064
2424	0.027751
2408	0.024557
2392	0.127053
2376	0.227856
2360	0.170707
2344	0.343728
2328	0.520849
2312	0.646758
2296	0.967645
2280	1.401066
2264	1.827120
2248	2.620935
2232	3.542399
2216	4.613852
2200	5.880331
2184	7.529354
2168	9.294581
2152	11.2492
2136	13.3059
2120	15.6217
2104	17.8717
2088	19.8359
2072	22.1067
2056	24.0758
2040	25.7896
2024	27.2237
2008	29.1639
1992	30.324
1976	31.1163
1960	32.4486
1944	33.4967
1928	33.7807
1912	34.292
1896	35.4791
1880	35.8988
1864	35.658
1848	36.1948
1832	37.1836
1816	36.9418
1800	36.603
1784	37.2121
1768	37.7648
1752	37.2712
1736	37.1137
1720	37.9232
1704	37.9283
1688	37.3528
1672	37.4497
1656	38.1287
1640	37.9328
1624	37.3801
1608	37.5023
1592	38.3522
1576	37.6861
1560	37.3416
1544	37.7159
1528	38.2571
1512	37.7144
1496	37.0427
1480	37.8886
1464	38.2112
1448	37.4093
1432	37.1475
1416	37.7006
1400	37.9349
1384	37.1142
1368	36.868
1352	37.5809
1336	37.6688
1320	36.6986
1304	36.7851
1288	37.7379
1272	37.4656
1256	36.4635
1240	36.5825
1224	37.4892
1208	37.3204
1192	36.2072
1176	36.6228
1160	37.3086
1144	36.8064
1128	35.9718
1112	36.4381
1096	37.2227
1080	36.6417
1064	35.4825
1048	36.0364
1032	36.7281
1016	36.083
1000	35.0475
984	 35.6676
968	 36.2059
952	 35.5896
936	 34.6746
920	 35.2926
904	 35.6895
888	 34.6783
872	 33.7811
856	 34.7895
840	 34.82
824	 33.4547
808	 33.0444
792	 33.9022
776	 33.9772
760	 32.8726
744	 32.0453
728	 33.1383
712	 32.7972
696	 31.7702
680	 31.3142
664	 32.0549
648	 31.7796
632	 30.296
616	 29.7271
600	 30.3869
584	 30.3369
568	 29.2251
552	 28.7204
536	 28.7544
520	 28.3778
504	 27.1229
488	 26.8446
472	 27.5672
456	 25.6824
440	 25.2841
424	 19.373
408	 24.4335
392	 37.7478
376	 36.3251
370	 33.0408

File: LPE453_t97.asc
PE IR       SPECTRUM    SPECTRUM    ASCII       PEDS        1.60
  -1
LPD7B5~1.ASC
17/05/16
22:20:30.00
17/05/16
22:20:56.00
tln
$LPE453_t0097$<tbV0>[-7.8,7.8,8.0,0.0,27,1,0]
27.028
64

2002,4.07
MIRTGS : RIGHTBACK : INTERNAL 2
MIR : ON : INTERNAL 2
OPTKBR

0.200000
8
8.000000
FILLER
RATIO
SPECTRUM
UNLOCKED 256

DOUBLE
64
COMBINED
1
0
0

0.002000
RATIO

1
0
TRUE
51149
0
LEFT NOT FITTED RIGHT NOT FITTED 0
NONE
NONE
15600
12
4.427000
51148
TRUE
1 0 8 72 0 0 0 0

15798

#HDR
-1
-1
#GR
µM
%T
2.38419e-05
0.0
2.000000
0.002000
12515
8
36.8799
-11.6681
#DATA
2.000000	 -0.334215
2.084000	 0.419189
2.168000	 -0.021535
2.252000	 0.523644
2.336000	 0.387510
2.420000	 0.097975
2.504000	 -0.080366
2.588000	 -0.022737
2.672000	 0.174863
2.756000	 0.018974
2.840000	 0.079308
2.924000	 0.067258
3.008000	 0.147942
3.092000	 0.037859
3.176000	 0.085154
3.260000	 0.249453
3.344000	 0.027258
3.428000	 0.097045
3.512000	 0.107291
3.596000	 -0.043157
3.680000	 0.005385
3.764000	 -0.033669
3.848000	 0.036919
3.932000	 0.024783
4.016000	 -0.050925
4.100000	 -0.031128
4.184000	 0.074988
4.268000	 0.318119
4.352000	 0.995021
4.436000	 2.191183
4.520000	 4.614771
4.604000	 8.319310
4.688000	 13.1416
4.772000	 17.8897
4.856000	 22.409
4.940000	 26.3364
5.024000	 28.671
5.108000	 31.3614
5.192000	 32.4399
5.276000	 33.7584
5.359999	 34.3845
5.444000	 35.3379
5.528000	 35.2108
5.612000	 36.1304
5.696000	 35.5234
5.780000	 36.5259
5.864000	 35.8328
5.948000	 36.3199
6.032000	 36.6282
6.116000	 35.799
6.200000	 36.7245
6.284000	 36.5088
6.368000	 35.7548
6.452000	 36.7651
6.536000	 36.3728
6.620000	 35.7878
6.704000	 36.542
6.788000	 36.6149
6.872000	 35.7451
6.956000	 35.9852
7.040000	 36.686
7.124000	 36.0347
7.208000	 35.576
7.292000	 36.137
7.376000	 36.6749
7.460000	 35.9777
7.544000	 35.4135
7.628000	 35.9778
7.712000	 36.6162
7.796000	 36.2354
7.880000	 35.3857
7.964000	 35.4311
8.048000	 36.1875
8.132000	 36.5578
8.216000	 35.9113
8.300000	 35.215
8.384000	 35.2037
8.468000	 35.9366
8.552000	 36.3026
8.635999	 35.9966
8.719999	 35.3572
8.804000	 35.0492
8.888000	 35.4718
8.972000	 35.8959
9.056000	 36.2648
9.140000	 35.9668
9.224000	 35.04
9.308000	 34.8026
9.391999	 34.9753
9.475999	 35.4369
9.560000	 35.8404
9.644000	 36.0596
9.728000	 35.5049
9.812000	 34.7521
9.896000	 34.4155
9.980000	 34.5933
10.064	35.0984
10.148	35.5162
10.232	35.6418
10.316	35.4261
10.4	34.9176
10.484	34.3188
10.568	34.0751
10.652	34.3287
10.736	34.756
10.82	35.023
10.904	35.1993
10.988	35.0689
11.072	34.5575
11.156	34.2546
11.24	33.7069
11.324	33.4698
11.408	33.7334
11.492	33.8814
11.576	34.3267
11.66	34.6685
11.744	34.8334
11.828	34.6581
11.912	34.2098
11.996	33.6864
12.08	33.313
12.164	33.0757
12.248	33.0659
12.332	33.3042
12.416	33.3988
12.5	33.7058
12.584	34.0377
12.668	34.2085
12.752	34.1921
12.836	33.8867
12.92	33.2924
13.004	32.7675
13.088	32.3955
13.172	32.1459
13.256	32.1485
13.34	32.2554
13.424	32.4207
13.508	32.6903
13.592	33.0386
13.676	33.3062
13.76	33.3361
13.844	33.2154
13.928	33.0141
14.012	32.7319
14.096	32.3707
14.18	32.0222
14.264	31.764
14.348	31.5018
14.432	31.2451
14.516	31.1521
14.6	31.29
14.684	31.5178
14.768	31.6823
14.852	31.7654
14.936	31.817
15.02	31.913
15.104	31.9877
15.188	31.8801
15.272	31.631
15.356	31.4452
15.44	31.3564
15.524	31.1433
15.608	30.7538
15.692	30.4364
15.776	30.2023
15.86	29.9198
15.944	29.7538
16.028	29.8258
16.112	29.986
16.196	30.1597
16.28	30.3728
16.364	30.5712
16.448	30.7227
16.532	30.9035
16.616	31.1398
16.7	31.3064
16.784	31.2456
16.868	30.9335
16.952	30.516
17.036	30.1729
17.12	29.9539
17.204	29.7725
17.288	29.5356
17.372	29.227
17.456	28.9249
17.54	28.7599
17.624	28.7767
17.708	28.8464
17.792	28.8119
17.876	28.6725
17.96	28.5552
18.044	28.5558
18.128	28.6985
18.212	28.9707
18.296	29.2997
18.38	29.5585
18.464	29.6855
18.548	29.7582
18.632	29.8645
18.716	29.9469
18.8	29.855
18.884	29.5445
18.968	29.1434
19.052	28.8191
19.136	28.6245
19.22	28.5002
19.304	28.3749
19.388	28.2274
19.472	28.0672
19.556	27.9106
19.64	27.7759
19.724	27.6744
19.808	27.5918
19.892	27.494
19.976	27.359
20.06	27.2048
20.144	27.0861
20.228	27.068
20.312	27.196
20.396	27.4743
20.48	27.8463
20.564	28.2033
20.648	28.4275
20.732	28.4542
20.816	28.3038
20.9	28.0688
20.984	27.8617
21.068	27.754
21.152	27.7386
21.236	27.7373
21.32	27.6572
21.404	27.4518
21.488	27.158
21.572	26.8755
21.656	26.7028
21.74	26.68
21.824	26.7707
21.908	26.8871
21.992	26.9428
22.076	26.891
22.16	26.7384
22.244	26.5283
22.328	26.3033
22.412	26.0764
22.496	25.8273
22.58	25.5308
22.664	25.1951
22.748	24.8912
22.832	24.7205
22.916	24.76
23	25.0057
23.084	25.3693
23.168	25.7147
23.252	25.9484
23.336	26.0573
23.42	26.1211
23.504	26.2289
23.588	26.406
23.672	26.5941
23.756	26.6823
23.84	26.6015
23.924	26.3915
24.008	26.1755
24.092	26.0786
24.176	26.1457
24.26	26.2977
24.344	26.3655
24.428	26.2064
24.512	25.7927
24.596	25.2391
24.68	24.7136
24.764	24.3166
24.848	24.0098
24.932	23.6364
25.016	23.0223
25.1	22.1023
25.184	20.919
25.268	19.6307
25.352	18.4709
25.436	17.7003
25.52	17.5114
25.604	17.969
25.688	18.999
25.772	20.3371
25.856	21.5807
25.94	22.3596
26.024	22.4478
26.108	21.8527
26.192	20.7741
26.276	19.5344
26.36	18.5092
26.444	17.9565
26.528	17.9599
26.612	18.4321
26.696	19.2437
26.78	20.2997
26.864	21.6852
26.948	23.6277
27.028	26.1805

File: LPE453_t97_cm-1.asc
PE IR       SPECTRUM    SPECTRUM    ASCII       PEDS        1.60
  -1
LPEBDB~1.ASC
17/05/16
22:20:30.00
17/05/16
22:20:30.00
tln
$LPE453_t0097$<tbV0>[-7.8,7.8,8.0,0.0,27,1,0]
370
64

2002,4.07
MIRTGS : RIGHTBACK : INTERNAL 2
MIR : ON : INTERNAL 2
OPTKBR

0.200000
8
8.000000
FILLER
RATIO
SPECTRUM
UNLOCKED 256

DOUBLE
64
COMBINED
1
0
0

1.000000
RATIO

1
0
TRUE
51149
0
LEFT NOT FITTED RIGHT NOT FITTED 0
NONE
NONE
15600
12
4.427000
51148
TRUE
1 0 8 72 0 0 0 0

15798

#HDR
-1
-1
#GR
CM-1
%T
2.38419e-05
0.0
5000
-1.000000
4631
8
36.8793
-13.4294
#DATA
5000	-0.334215
4984	0.032663
4968	0.172162
4952	0.060915
4936	-0.111007
4920	0.038909
4904	0.113034
4888	0.729799
4872	0.095605
4856	0.781822
4840	0.097918
4824	0.193905
4808	0.317645
4792	0.573205
4776	0.186562
4760	0.535273
4744	0.504899
4728	-0.454545
4712	-0.806832
4696	0.479269
4680	0.583791
4664	1.189684
4648	0.421237
4632	1.545047
4616	-0.611376
4600	1.277756
4584	0.583744
4568	1.383113
4552	0.859618
4536	0.126433
4520	-0.540518
4504	-8.579611
4488	4.184865
4472	0.601673
4456	0.287032
4440	0.511336
4424	0.560569
4408	0.277471
4392	0.584864
4376	0.090742
4360	0.314140
4344	0.712704
4328	0.181722
4312	0.247454
4296	-0.077509
4280	0.419306
4264	-0.116348
4248	0.080442
4232	-0.049638
4216	0.019311
4200	0.221061
4184	0.159883
4168	-0.215315
4152	0.014662
4136	0.170016
4120	0.054335
4104	-0.027513
4088	0.194501
4072	0.013875
4056	-0.010681
4040	0.145268
4024	0.031089
4008	0.050330
3992	-0.052642
3976	0.072646
3960	0.255441
3944	-0.000071
3928	0.061106
3912	-0.008654
3896	0.218296
3880	-0.005745
3864	-0.023078
3848	0.302195
3832	0.053334
3816	0.002503
3800	-0.087761
3784	0.015449
3768	0.076198
3752	0.208401
3736	0.069546
3720	0.153851
3704	0.040245
3688	-0.055599
3672	0.074577
3656	0.101542
3640	0.101852
3624	0.040936
3608	0.023794
3592	-0.031232
3576	0.118446
3560	-0.026535
3544	-0.030875
3528	0.089144
3512	0.181889
3496	0.190639
3480	-0.044131
3464	0.051736
3448	0.007271
3432	0.215816
3416	0.076007
3400	-0.008130
3384	0.039720
3368	0.029826
3352	0.017094
3336	0.166344
3320	0.041460
3304	-0.029826
3288	0.082683
3272	-0.030493
3256	-0.070667
3240	-0.077557
3224	-0.098824
3208	0.024724
3192	0.122261
3176	0.094842
3160	0.076675
3144	0.202918
3128	0.032067
3112	0.033426
3096	0.042366
3080	0.110173
3064	0.212407
3048	-0.073194
3032	0.090956
3016	0.056695
3000	0.062751
2984	0.062561
2968	0.091862
2952	0.045228
2936	0.156092
2920	0.055789
2904	-0.037360
2888	0.004911
2872	-0.063395
2856	0.057673
2840	0.117683
2824	0.060725
2808	0.052618
2792	0.010991
2776	0.008630
2760	0.013327
2744	-0.071740
2728	0.002193
2712	0.036978
2696	-0.010728
2680	0.014710
2664	0.050663
2648	-0.041794
2632	-0.022435
2616	0.097966
2600	0.054216
2584	0.109124
2568	0.075268
2552	0.112533
2536	0.019621
2520	-0.009822
2504	0.023150
2488	-0.004458
2472	-0.042843
2456	-0.035023
2440	-0.015282
2424	0.046706
2408	-0.050258
2392	0.039768
2376	0.135731
2360	0.184965
2344	0.313758
2328	0.446534
2312	0.641536
2296	1.062631
2280	1.373267
2264	1.794004
2248	2.422118
2232	3.276252
2216	4.278612
2200	5.653452
2184	7.012581
2168	8.755111
2152	10.6122
2136	12.7258
2120	14.7733
2104	16.8021
2088	18.8882
2072	21.0854
2056	22.7285
2040	24.4483
2024	26.3648
2008	27.6309
1992	28.5668
1976	30.1868
1960	31.2778
1944	31.6161
1928	32.3299
1912	33.4817
1896	33.7608
1880	33.7067
1864	34.493
1848	35.3291
1832	35.1226
1816	34.9208
1800	35.6293
1784	36.1407
1768	35.6959
1752	35.5951
1736	36.2515
1720	36.4245
1704	35.7985
1688	35.9793
1672	36.6865
1656	36.5375
1640	35.9063
1624	36.1934
1608	36.7933
1592	36.5384
1576	35.7572
1560	36.3532
1544	36.8121
1528	36.2801
1512	35.8151
1496	36.2627
1480	36.8691
1464	36.158
1448	35.7072
1432	36.3759
1416	36.5584
1400	35.8631
1384	35.6805
1368	36.2277
1352	36.6358
1336	35.7441
1320	35.513
1304	36.3568
1288	36.4412
1272	35.5107
1256	35.4189
1240	36.3314
1224	36.3772
1208	35.32
1192	35.2262
1176	36.1567
1160	36.0894
1144	35.2265
1128	35.363
1112	36.0271
1096	36.086
1080	34.8227
1064	35.0054
1048	35.7594
1032	35.8248
1016	34.5511
1000	34.6804
984	 35.582
968	 35.3654
952	 34.2115
936	 34.5115
920	 35.1535
904	 34.6218
888	 33.5517
872	 33.8082
856	 34.7319
840	 34.2543
824	 33.1541
808	 33.3477
792	 34.147
776	 33.5397
760	 32.172
744	 32.4674
728	 33.3486
712	 32.5976
696	 31.4355
680	 31.5694
664	 31.9628
648	 31.3662
632	 30.0467
616	 30.2517
600	 31.2603
584	 29.9468
568	 28.7618
552	 28.6693
536	 29.898
520	 28.4851
504	 27.5568
488	 27.9
472	 27.7424
456	 26.9104
440	 24.9576
424	 26.3989
408	 25.8057
392	 17.4999
376	 18.3108
370	 26.1805

File: LPE453_t98.asc
PE IR       SPECTRUM    SPECTRUM    ASCII       PEDS        1.60
  -1
LPE7B9~1.ASC
17/05/16
22:25:07.00
17/05/16
22:25:33.00
tln
$LPE453_t0098$<tbV0>[-10.4,7.8,8.0,0.0,27,1,0]
27.028
64

2002,4.07
MIRTGS : RIGHTBACK : INTERNAL 2
MIR : ON : INTERNAL 2
OPTKBR

0.200000
8
8.000000
FILLER
RATIO
SPECTRUM
UNLOCKED 256

DOUBLE
64
COMBINED
1
0
0

0.002000
RATIO

1
0
TRUE
51149
0
LEFT NOT FITTED RIGHT NOT FITTED 0
NONE
NONE
15600
12
4.427000
51148
TRUE
1 0 8 72 0 0 0 0

15798

#HDR
-1
-1
#GR
µM
%T
2.38419e-05
0.0
2.000000
0.002000
12515
8
37.5861
-13.1265
#DATA
2.000000	 0.151920
2.084000	 0.105002
2.168000	 1.501297
2.252000	 0.037637
2.336000	 0.098072
2.420000	 -0.030703
2.504000	 -0.171109
2.588000	 0.009572
2.672000	 0.098195
2.756000	 0.143249
2.840000	 0.061712
2.924000	 0.043420
3.008000	 -0.046981
3.092000	 0.131985
3.176000	 0.003497
3.260000	 0.068935
3.344000	 -0.199532
3.428000	 0.045454
3.512000	 0.061394
3.596000	 -0.027617
3.680000	 0.010668
3.764000	 0.091179
3.848000	 -0.038342
3.932000	 0.112576
4.016000	 -0.029936
4.100000	 0.115773
4.184000	 0.024064
4.268000	 0.160816
4.352000	 0.902193
4.436000	 1.949751
4.520000	 4.179342
4.604000	 7.780284
4.688000	 12.3617
4.772000	 17.5066
4.856000	 22.1344
4.940000	 25.8402
5.024000	 29.2566
5.108000	 31.2003
5.192000	 33.2685
5.276000	 34.2656
5.359999	 35.2837
5.444000	 35.7865
5.528000	 36.4025
5.612000	 36.2657
5.696000	 37.0001
5.780000	 36.3243
5.864000	 37.4289
5.948000	 36.7723
6.032000	 37.0783
6.116000	 37.4974
6.200000	 36.5112
6.284000	 37.2933
6.368000	 37.1748
6.452000	 36.4226
6.536000	 37.2055
6.620000	 37.0721
6.704000	 36.1505
6.788000	 36.9913
6.872000	 36.9764
6.956000	 36.3329
7.040000	 36.2117
7.124000	 37.0485
7.208000	 36.7795
7.292000	 35.8204
7.376000	 36.156
7.460000	 36.8193
7.544000	 36.5526
7.628000	 35.7991
7.712000	 35.7676
7.796000	 36.4846
7.880000	 36.5813
7.964000	 35.8108
8.048000	 35.4116
8.132000	 35.885
8.216000	 36.4706
8.300000	 36.2827
8.384000	 35.4688
8.468000	 35.1278
8.552000	 35.642
8.635999	 36.127
8.719999	 36.1827
8.804000	 35.6168
8.888000	 35.0457
8.972000	 35.03
9.056000	 35.5606
9.140000	 35.9353
9.224000	 36.1254
9.308000	 35.3652
9.391999	 34.8585
9.475999	 34.6003
9.560000	 34.7063
9.644000	 35.5034
9.728000	 35.6486
9.812000	 35.395
9.896000	 34.812
9.980000	 34.4111
10.064	34.1575
10.148	34.4266
10.232	35.0483
10.316	35.2954
10.4	35.2003
10.484	34.793
10.568	34.3665
10.652	33.9406
10.736	33.8063
10.82	33.8953
10.904	34.2586
10.988	34.5908
11.072	34.8058
11.156	34.6651
11.24	34.2824
11.324	33.8202
11.408	33.3224
11.492	33.0269
11.576	33.2679
11.66	33.4112
11.744	33.8342
11.828	34.2825
11.912	34.2528
11.996	34.1374
12.08	33.7055
12.164	33.1303
12.248	32.8037
12.332	32.5559
12.416	32.3591
12.5	32.4744
12.584	32.8221
12.668	33.0939
12.752	33.3576
12.836	33.5243
12.92	33.4026
13.004	33.177
13.088	32.9187
13.172	32.6246
13.256	32.1944
13.34	31.8837
13.424	31.7128
13.508	31.7091
13.592	31.9435
13.676	32.2769
13.76	32.5124
13.844	32.5107
13.928	32.5287
14.012	32.6127
14.096	32.5808
14.18	32.3229
14.264	31.9879
14.348	31.6566
14.432	31.326
14.516	31.0649
14.6	30.8823
14.684	30.8011
14.768	30.9117
14.852	31.0564
14.936	31.0542
15.02	31.0397
15.104	31.1535
15.188	31.3686
15.272	31.5582
15.356	31.626
15.44	31.5456
15.524	31.2665
15.608	30.8891
15.692	30.6654
15.776	30.5699
15.86	30.3837
15.944	30.1106
16.028	29.861
16.112	29.6619
16.196	29.5843
16.28	29.6524
16.364	29.6939
16.448	29.6146
16.532	29.5869
16.616	29.786
16.7	30.1561
16.784	30.4738
16.868	30.515
16.952	30.2456
17.036	29.89
17.12	29.7038
17.204	29.6878
17.288	29.647
17.372	29.4846
17.456	29.2936
17.54	29.1744
17.624	29.0876
17.708	28.9354
17.792	28.7038
17.876	28.4701
17.96	28.2973
18.044	28.1681
18.128	28.0297
18.212	27.916
18.296	27.9449
18.38	28.162
18.464	28.4448
18.548	28.6361
18.632	28.7235
18.716	28.8086
18.8	28.9384
18.884	29.0666
18.968	29.1394
19.052	29.1347
19.136	29.0385
19.22	28.8459
19.304	28.5976
19.388	28.376
19.472	28.237
19.556	28.1665
19.64	28.0954
19.724	27.9496
19.808	27.6949
19.892	27.3554
19.976	26.9895
20.06	26.6424
20.144	26.347
20.228	26.1535
20.312	26.1253
20.396	26.2834
20.48	26.5584
20.564	26.8205
20.648	26.976
20.732	27.031
20.816	27.069
20.9	27.166
20.984	27.335
21.068	27.5254
21.152	27.6669
21.236	27.7081
21.32	27.6442
21.404	27.5167
21.488	27.3918
21.572	27.3231
21.656	27.3162
21.74	27.3203
21.824	27.257
21.908	27.0736
21.992	26.7787
22.076	26.4306
22.16	26.0921
22.244	25.7779
22.328	25.4493
22.412	25.0465
22.496	24.5431
22.58	23.9823
22.664	23.4555
22.748	23.061
22.832	22.8549
22.916	22.83
23	22.9258
23.084	23.0648
23.168	23.1893
23.252	23.2823
23.336	23.3449
23.42	23.3916
23.504	23.4344
23.588	23.4831
23.672	23.5535
23.756	23.6704
23.84	23.8353
23.924	24.0208
24.008	24.1528
24.092	24.121
24.176	23.8534
24.26	23.3576
24.344	22.7392
24.428	22.1393
24.512	21.6502
24.596	21.2365
24.68	20.7655
24.764	20.0989
24.848	19.1705
24.932	18.0417
25.016	16.8999
25.1	15.9776
25.184	15.4818
25.268	15.5239
25.352	16.1344
25.436	17.2341
25.52	18.7009
25.604	20.4529
25.688	22.3787
25.772	24.3655
25.856	26.3199
25.94	28.1878
26.024	29.8735
26.108	31.173
26.192	31.9077
26.276	31.9078
26.36	31.0215
26.444	29.1834
26.528	26.5004
26.612	23.2358
26.696	19.8783
26.78	17.0866
26.864	15.5097
26.948	15.6316
27.028	17.4504

File: LPE453_t98_cm-1.asc
PE IR       SPECTRUM    SPECTRUM    ASCII       PEDS        1.60
  -1
LPEB59~1.ASC
17/05/16
22:25:07.00
17/05/16
22:25:07.00
tln
$LPE453_t0098$<tbV0>[-10.4,7.8,8.0,0.0,27,1,0]
370
64

2002,4.07
MIRTGS : RIGHTBACK : INTERNAL 2
MIR : ON : INTERNAL 2
OPTKBR

0.200000
8
8.000000
FILLER
RATIO
SPECTRUM
UNLOCKED 256

DOUBLE
64
COMBINED
1
0
0

1.000000
RATIO

1
0
TRUE
51149
0
LEFT NOT FITTED RIGHT NOT FITTED 0
NONE
NONE
15600
12
4.427000
51148
TRUE
1 0 8 72 0 0 0 0

15798

#HDR
-1
-1
#GR
CM-1
%T
2.38419e-05
0.0
5000
-1.000000
4631
8
37.5853
-13.1976
#DATA
5000	0.151920
4984	0.409054
4968	0.212383
4952	-0.402355
4936	-0.002098
4920	-0.207281
4904	0.543260
4888	0.146293
4872	-0.298333
4856	0.129032
4840	0.328731
4824	-0.157928
4808	0.349712
4792	0.062465
4776	0.191855
4760	0.050044
4744	0.243663
4728	-0.186300
4712	0.301289
4696	0.499987
4680	-0.820636
4664	-1.071476
4648	1.046037
4632	0.507164
4616	1.421856
4600	0.912880
4584	1.701283
4568	0.738763
4552	0.612688
4536	0.471568
4520	-0.458097
4504	0.733208
4488	14.5981
4472	-0.108504
4456	0.979113
4440	0.036120
4424	-0.113940
4408	0.778937
4392	-0.014805
4376	0.276255
4360	0.457525
4344	0.394320
4328	0.243234
4312	0.123047
4296	0.045704
4280	0.102114
4264	0.142216
4248	-0.031900
4232	-0.080251
4216	0.057888
4200	0.057864
4184	-0.156712
4168	0.399160
4152	0.163173
4136	-0.040936
4120	0.031495
4104	0.016593
4088	0.095963
4072	0.273752
4056	0.133967
4040	0.020575
4024	-0.045323
4008	0.153017
3992	-0.171160
3976	0.101637
3960	0.161552
3944	0.019359
3928	0.110769
3912	0.154805
3896	-0.007414
3880	-0.046491
3864	0.009560
3848	0.146961
3832	0.169968
3816	-0.051426
3800	0.076007
3784	0.019931
3768	-0.018191
3752	0.039267
3736	0.078058
3720	-0.029397
3704	0.060820
3688	0.149273
3672	0.014901
3656	0.115680
3640	0.117564
3624	0.082468
3608	0.010633
3592	0.083732
3576	0.101542
3560	-0.001573
3544	-0.027132
3528	0.108861
3512	-0.051856
3496	0.087189
3480	0.001740
3464	0.165939
3448	-0.040531
3432	0.020933
3416	0.027585
3400	0.009679
3384	0.024056
3368	0.052809
3352	0.122022
3336	0.060033
3320	0.007128
3304	0.018811
3288	-0.032758
3272	0.048303
3256	0.007462
3240	0.113630
3224	0.040936
3208	0.016379
3192	-0.001978
3176	0.043725
3160	0.071692
3144	0.012254
3128	0.125050
3112	0.098896
3096	0.015330
3080	-0.011539
3064	0.017309
3048	0.121283
3032	-0.007915
3016	0.063514
3000	0.056624
2984	-0.051021
2968	0.102233
2952	0.093269
2936	-0.078392
2920	-0.018119
2904	0.206208
2888	0.033330
2872	-0.083041
2856	0.205564
2840	0.024223
2824	-0.069165
2808	0.011253
2792	-0.052666
2776	-0.038456
2760	0.106239
2744	0.160288
2728	0.085425
2712	-0.004720
2696	-0.076127
2680	0.041985
2664	0.177264
2648	0.145721
2632	0.007963
2616	0.044870
2600	-0.024938
2584	0.038981
2568	0.030851
2552	-0.010442
2536	0.072073
2520	-0.007390
2504	-0.003457
2488	-0.032162
2472	-0.001573
2456	-0.027632
2440	0.112009
2424	0.293207
2408	-0.046849
2392	0.000834
2376	0.132060
2360	0.178909
2344	0.164294
2328	0.259995
2312	0.636839
2296	0.932550
2280	1.155304
2264	1.603007
2248	2.221632
2232	2.968978
2216	3.911471
2200	5.243301
2184	6.509780
2168	8.243322
2152	10.2248
2136	12.0473
2120	14.2176
2104	16.4902
2088	18.3607
2072	20.4766
2056	22.5981
2040	24.4162
2024	25.8705
2008	27.7219
1992	29.1553
1976	30.1378
1960	30.9998
1944	32.515
1928	33.2372
1912	33.358
1896	34.2153
1880	35.2099
1864	35.2532
1848	35.1503
1832	36.0857
1816	36.5999
1800	36.1242
1784	36.1667
1768	37.0416
1752	36.9341
1736	36.2551
1720	36.8343
1704	37.4601
1688	37.1034
1672	36.5714
1656	37.191
1640	37.5438
1624	36.8411
1608	36.6112
1592	37.2561
1576	37.3431
1560	36.6064
1544	36.6167
1528	37.2769
1512	37.145
1496	36.1704
1480	36.6436
1464	37.2253
1448	36.6641
1432	36.094
1416	36.3781
1400	37.1486
1384	36.5546
1368	35.8556
1352	36.4211
1336	36.8419
1320	36.1921
1304	35.6126
1288	36.298
1272	36.6346
1256	35.8336
1240	35.459
1224	36.1673
1208	36.4292
1192	35.435
1176	35.2444
1160	36.0308
1144	36.113
1128	35.1171
1112	35.0733
1096	35.8698
1080	35.8968
1064	34.8342
1048	34.6038
1032	35.7056
1016	35.2546
1000	34.3204
984	 34.5285
968	 35.3203
952	 34.7021
936	 33.8375
920	 34.0847
904	 34.7965
888	 34.1738
872	 33.0675
856	 33.4555
840	 34.2628
824	 33.284
808	 32.4408
792	 32.9652
776	 33.4762
760	 32.6843
744	 31.6915
728	 32.4731
712	 32.6255
696	 31.5767
680	 30.8116
664	 31.0764
648	 31.5611
632	 30.4839
616	 29.6037
600	 30.0013
584	 29.7009
568	 29.1094
552	 28.0502
536	 28.7442
520	 28.8157
504	 27.5674
488	 26.5987
472	 27.6975
456	 27.0059
440	 23.1417
424	 23.481
408	 21.6617
392	 18.5138
376	 23.8886
370	 17.4504