Folder: Masteroppgave/Bakgrunnsmateriale/MATLAB/FTIR/ftir_data/LPE453/Mapping_121 (part 34)

File: LPE453_t76_cm-1.asc
PE IR       SPECTRUM    SPECTRUM    ASCII       PEDS        1.60
  -1
LPEA5A~1.ASC
17/05/16
20:36:34.00
17/05/16
20:36:34.00
tln
$LPE453_t0076$<tbV0>[-10.4,2.6,8.0,0.0,27,1,0]
370
64

2002,4.07
MIRTGS : RIGHTBACK : INTERNAL 2
MIR : ON : INTERNAL 2
OPTKBR

0.200000
8
8.000000
FILLER
RATIO
SPECTRUM
UNLOCKED 256

DOUBLE
64
COMBINED
1
0
0

1.000000
RATIO

1
0
TRUE
51149
0
LEFT NOT FITTED RIGHT NOT FITTED 0
NONE
NONE
15600
12
4.427000
51148
TRUE
1 0 8 72 0 0 0 0

15798

#HDR
-1
-1
#GR
CM-1
%T
2.38419e-05
0.0
5000
-1.000000
4631
8
33.0618
-1.288700
#DATA
5000	-0.038647
4984	-0.072526
4968	-0.187778
4952	-0.232100
4936	-0.051999
4920	0.215983
4904	0.426578
4888	0.031399
4872	0.591063
4856	-0.015950
4840	-0.621008
4824	0.257658
4808	0.007224
4792	-0.144577
4776	-0.102257
4760	0.029397
4744	-0.161981
4728	0.019741
4712	0.517845
4696	0.107884
4680	0.528430
4664	-0.814795
4648	-0.453901
4632	0.423693
4616	0.590753
4600	0.467181
4584	-0.411963
4568	-0.205993
4552	-0.569009
4536	0.039029
4520	-0.101542
4504	2.346944
4488	10.8597
4472	-0.645804
4456	-0.209951
4440	-0.468230
4424	-0.418472
4408	0.399446
4392	0.163960
4376	0.167679
4360	0.468897
4344	-0.069522
4328	0.143694
4312	0.581121
4296	0.049948
4280	-0.005173
4264	-0.230956
4248	-0.025773
4232	-0.192999
4216	0.055694
4200	0.041866
4184	0.189089
4168	0.314712
4152	-0.113224
4136	0.055789
4120	0.019526
4104	0.154423
4088	-0.198960
4072	0.112462
4056	0.114607
4040	-0.099134
4024	0.188755
4008	0.119495
3992	-0.166368
3976	0.089240
3960	0.178241
3944	0.078463
3928	0.158596
3912	-0.038027
3896	0.151586
3880	-0.044465
3864	-0.072503
3848	-0.044679
3832	0.223731
3816	0.131464
3800	0.087976
3784	-0.031566
3768	0.024890
3752	0.048899
3736	0.115466
3720	0.154209
3704	0.016975
3688	0.049662
3672	0.159668
3656	0.022315
3640	-0.078821
3624	-0.027775
3608	0.204944
3592	0.063228
3576	0.078558
3560	-0.092911
3544	0.072574
3528	0.057697
3512	0.023055
3496	-0.263094
3480	0.069785
3464	0.098037
3448	0.177407
3432	-0.030350
3416	-0.029373
3400	0.112247
3384	-0.062847
3368	0.100970
3352	0.123977
3336	-0.022268
3320	0.122809
3304	0.125646
3288	0.094699
3272	0.147414
3256	0.018954
3240	-0.051879
3224	0.111460
3208	-0.057291
3192	0.095772
3176	0.046277
3160	-0.032711
3144	0.050497
3128	0.080633
3112	0.044631
3096	-0.092482
3080	0.079536
3064	0.037217
3048	-0.095891
3032	-0.053763
3016	0.086927
3000	0.029540
2984	0.012016
2968	-0.029969
2952	-0.047278
2936	-0.016355
2920	0.077128
2904	0.041127
2888	-0.062465
2872	0.003218
2856	0.053739
2840	-0.001907
2824	0.035619
2808	0.142645
2792	-0.064706
2776	0.022983
2760	0.049972
2744	0.123524
2728	0.016498
2712	-0.022363
2696	-0.052022
2680	0.065493
2664	0.076413
2648	0.086736
2632	-0.029087
2616	0.102949
2600	0.036549
2584	0.035619
2568	0.017619
2552	-0.066375
2536	-0.015044
2520	-0.110387
2504	0.132346
2488	0.133752
2472	-0.035643
2456	0.020837
2440	-0.034046
2424	-0.070357
2408	0.048041
2392	-0.153660
2376	0.050067
2360	0.033092
2344	0.186586
2328	0.193953
2312	0.245094
2296	0.261259
2280	0.584125
2264	0.844001
2248	1.322340
2232	1.800632
2216	2.485418
2200	3.451156
2184	4.672884
2168	6.015038
2152	7.578063
2136	9.198045
2120	11.0645
2104	12.9942
2088	15.0159
2072	16.7984
2056	18.6704
2040	20.4731
2024	22.0963
2008	23.5609
1992	24.8006
1976	25.9572
1960	27.1251
1944	27.9508
1928	28.7555
1912	29.5058
1896	29.9664
1880	30.5378
1864	31.0688
1848	31.2794
1832	31.7663
1816	31.9157
1800	32.0341
1784	32.2707
1768	32.5504
1752	32.5069
1736	32.6896
1720	32.6184
1704	32.7272
1688	32.8136
1672	32.9511
1656	32.989
1640	32.8658
1624	33.0581
1608	32.9308
1592	32.8045
1576	32.8773
1560	32.9999
1544	32.8002
1528	32.813
1512	32.8775
1496	32.6245
1480	32.6057
1464	32.6022
1448	32.6203
1432	32.4644
1416	32.6622
1400	32.4141
1384	32.3111
1368	32.3537
1352	32.3808
1336	32.1871
1320	32.2209
1304	32.2396
1288	31.9539
1272	32.003
1256	32.1249
1240	31.8457
1224	31.7732
1208	31.9134
1192	31.797
1176	31.5962
1160	31.7514
1144	31.5788
1128	31.2678
1112	31.4341
1096	31.2812
1080	31.0256
1064	31.0698
1048	31.1771
1032	30.8403
1016	30.7957
1000	30.8173
984	 30.6386
968	 30.2738
952	 30.4123
936	 30.3869
920	 29.8765
904	 29.864
888	 29.9434
872	 29.5147
856	 29.0637
840	 29.4664
824	 28.9846
808	 28.6553
792	 28.4187
776	 28.5069
760	 27.7336
744	 27.8961
728	 27.9826
712	 27.1005
696	 26.3177
680	 26.6818
664	 26.7475
648	 25.5485
632	 25.372
616	 25.6585
600	 25.0477
584	 24.5293
568	 24.2178
552	 23.7031
536	 23.2306
520	 23.3745
504	 22.6899
488	 21.9565
472	 21.4788
456	 22.489
440	 19.6807
424	 19.7887
408	 19.2746
392	 15.8629
376	 10.8118
370	 2.897691

File: LPE453_t77.asc
PE IR       SPECTRUM    SPECTRUM    ASCII       PEDS        1.60
  -1
LPDFA5~1.ASC
17/05/16
20:41:11.00
17/05/16
20:41:37.00
tln
$LPE453_t0077$<tbV0>[-13.0,2.6,8.0,0.0,27,1,0]
27.028
64

2002,4.07
MIRTGS : RIGHTBACK : INTERNAL 2
MIR : ON : INTERNAL 2
OPTKBR

0.200000
8
8.000000
FILLER
RATIO
SPECTRUM
UNLOCKED 256

DOUBLE
64
COMBINED
1
0
0

0.002000
RATIO

1
0
TRUE
51149
0
LEFT NOT FITTED RIGHT NOT FITTED 0
NONE
NONE
15600
12
4.427000
51148
TRUE
1 0 8 72 0 0 0 0

15798

#HDR
-1
-1
#GR
µM
%T
2.38419e-05
0.0
2.000000
0.002000
12515
8
32.0815
-10.7704
#DATA
2.000000	 0.234031
2.084000	 0.348693
2.168000	 0.648963
2.252000	 -0.166265
2.336000	 -0.022532
2.420000	 0.196588
2.504000	 -0.014042
2.588000	 0.114766
2.672000	 0.157587
2.756000	 0.052065
2.840000	 0.096416
2.924000	 0.009351
3.008000	 0.081214
3.092000	 -0.063878
3.176000	 0.194086
3.260000	 -0.035537
3.344000	 0.185837
3.428000	 0.105687
3.512000	 -0.020566
3.596000	 -0.034210
3.680000	 0.023365
3.764000	 0.061155
3.848000	 0.063349
3.932000	 0.071707
4.016000	 0.105349
4.100000	 0.010856
4.184000	 -0.000934
4.268000	 0.052665
4.352000	 0.225939
4.436000	 0.718073
4.520000	 1.970772
4.604000	 4.212447
4.688000	 7.580108
4.772000	 11.4134
4.856000	 15.1181
4.940000	 18.7382
5.024000	 21.6081
5.108000	 23.9489
5.192000	 25.736
5.276000	 27.1706
5.359999	 28.0912
5.444000	 29.0463
5.528000	 29.6811
5.612000	 30.1991
5.696000	 30.5276
5.780000	 30.947
5.864000	 31.1434
5.948000	 31.4128
6.032000	 31.4804
6.116000	 31.6132
6.200000	 31.6554
6.284000	 31.8019
6.368000	 31.7728
6.452000	 31.8427
6.536000	 31.9495
6.620000	 31.9694
6.704000	 31.9811
6.788000	 31.937
6.872000	 31.8702
6.956000	 31.9358
7.040000	 31.9242
7.124000	 31.7572
7.208000	 31.8495
7.292000	 31.598
7.376000	 31.6758
7.460000	 31.773
7.544000	 31.7137
7.628000	 31.6728
7.712000	 31.6397
7.796000	 31.6079
7.880000	 31.5234
7.964000	 31.4017
8.048000	 31.4443
8.132000	 31.385
8.216000	 31.3475
8.300000	 31.2151
8.384000	 31.1299
8.468000	 31.1613
8.552000	 30.9742
8.635999	 30.8468
8.719999	 30.713
8.804000	 30.8135
8.888000	 30.7443
8.972000	 30.5531
9.056000	 30.4281
9.140000	 30.494
9.224000	 30.3474
9.308000	 29.9991
9.391999	 30.0214
9.475999	 29.8641
9.560000	 29.8467
9.644000	 29.6856
9.728000	 29.7123
9.812000	 29.7071
9.896000	 29.2199
9.980000	 29.2166
10.064	29.2413
10.148	29.0867
10.232	29.1574
10.316	28.9416
10.4	28.8711
10.484	28.7473
10.568	28.6303
10.652	28.5027
10.736	28.3894
10.82	28.2196
10.904	28.1432
10.988	27.9037
11.072	27.9398
11.156	27.8505
11.24	27.78
11.324	27.8352
11.408	27.5549
11.492	27.4147
11.576	27.4015
11.66	27.2622
11.744	27.2431
11.828	26.9784
11.912	26.8807
11.996	26.8315
12.08	26.6205
12.164	26.5003
12.248	26.4371
12.332	26.4805
12.416	26.4222
12.5	26.292
12.584	26.3564
12.668	26.1632
12.752	25.771
12.836	25.4861
12.92	25.4116
13.004	25.2997
13.088	25.1633
13.172	25.2698
13.256	25.6528
13.34	25.6987
13.424	25.4479
13.508	25.4046
13.592	25.2511
13.676	24.8578
13.76	24.5897
13.844	24.4823
13.928	24.4327
14.012	24.3356
14.096	24.243
14.18	24.3263
14.264	24.311
14.348	24.0192
14.432	23.8574
14.516	23.9786
14.6	24.0592
14.684	23.9186
14.768	23.6644
14.852	23.488
14.936	23.4594
15.02	23.4495
15.104	23.2985
15.188	23.0822
15.272	23.0098
15.356	23.1518
15.44	23.4476
15.524	23.6822
15.608	23.6505
15.692	23.4578
15.776	23.3152
15.86	23.2428
15.944	23.1025
16.028	22.8096
16.112	22.4998
16.196	22.3746
16.28	22.4029
16.364	22.4239
16.448	22.4368
16.532	22.5111
16.616	22.584
16.7	22.5811
16.784	22.5449
16.868	22.4928
16.952	22.3655
17.036	22.1585
17.12	21.9681
17.204	21.8812
17.288	21.8664
17.372	21.8211
17.456	21.7261
17.54	21.6656
17.624	21.6671
17.708	21.6683
17.792	21.6387
17.876	21.5793
17.96	21.4524
18.044	21.2457
18.128	21.0498
18.212	20.9567
18.296	20.9507
18.38	20.975
18.464	21.0233
18.548	21.0937
18.632	21.1315
18.716	21.0818
18.8	20.9611
18.884	20.8288
18.968	20.7222
19.052	20.6495
19.136	20.6121
19.22	20.592
19.304	20.5344
19.388	20.3843
19.472	20.1376
19.556	19.854
19.64	19.6059
19.724	19.4404
19.808	19.3704
19.892	19.3962
19.976	19.4915
20.06	19.5891
20.144	19.6171
20.228	19.5685
20.312	19.5191
20.396	19.5656
20.48	19.7333
20.564	19.9306
20.648	19.985
20.732	19.7547
20.816	19.2346
20.9	18.5833
20.984	18.0391
21.068	17.7781
21.152	17.8211
21.236	18.0553
21.32	18.3437
21.404	18.6117
21.488	18.8413
21.572	19.0145
21.656	19.0956
21.74	19.0635
21.824	18.9467
21.908	18.8182
21.992	18.7397
22.076	18.7136
22.16	18.6874
22.244	18.6029
22.328	18.4492
22.412	18.2647
22.496	18.1153
22.58	18.06
22.664	18.1286
22.748	18.3076
22.832	18.5439
22.916	18.7468
23	18.8594
23.084	18.875
23.168	18.8528
23.252	18.8787
23.336	19.0099
23.42	19.251
23.504	19.5378
23.588	19.7689
23.672	19.8612
23.756	19.7848
23.84	19.572
23.924	19.2909
24.008	18.9894
24.092	18.6526
24.176	18.2028
24.26	17.5182
24.344	16.4853
24.428	15.0802
24.512	13.4112
24.596	11.6604
24.68	10.0124
24.764	8.584095
24.848	7.367096
24.932	6.279288
25.016	5.239386
25.1	4.208020
25.184	3.255816
25.268	2.504157
25.352	1.999039
25.436	1.775232
25.52	1.821590
25.604	2.075764
25.688	2.468535
25.772	3.009590
25.856	3.786371
25.94	4.791312
26.024	5.800821
26.108	6.376192
26.192	6.151720
26.276	4.995945
26.36	3.193386
26.444	1.088892
26.528	-1.066666
26.612	-3.233227
26.696	-5.375229
26.78	-7.310616
26.864	-8.739473
26.948	-9.647505
27.028	-10.7704

File: LPE453_t77_cm-1.asc
PE IR       SPECTRUM    SPECTRUM    ASCII       PEDS        1.60
  -1
LPEADB~1.ASC
17/05/16
20:41:11.00
17/05/16
20:41:11.00
tln
$LPE453_t0077$<tbV0>[-13.0,2.6,8.0,0.0,27,1,0]
370
64

2002,4.07
MIRTGS : RIGHTBACK : INTERNAL 2
MIR : ON : INTERNAL 2
OPTKBR

0.200000
8
8.000000
FILLER
RATIO
SPECTRUM
UNLOCKED 256

DOUBLE
64
COMBINED
1
0
0

1.000000
RATIO

1
0
TRUE
51149
0
LEFT NOT FITTED RIGHT NOT FITTED 0
NONE
NONE
15600
12
4.427000
51148
TRUE
1 0 8 72 0 0 0 0

15798

#HDR
-1
-1
#GR
CM-1
%T
2.38419e-05
0.0
5000
-1.000000
4631
8
32.0808
-10.7704
#DATA
5000	0.234031
4984	0.182795
4968	0.461864
4952	0.076293
4936	0.180339
4920	0.203728
4904	0.038433
4888	0.320625
4872	0.478148
4856	0.072312
4840	0.101184
4824	0.211501
4808	0.369858
4792	0.393605
4776	-0.093793
4760	-0.042486
4744	0.015759
4728	0.365281
4712	0.523281
4696	0.097966
4680	0.136995
4664	-0.259017
4648	0.507521
4632	2.316761
4616	0.841856
4600	-0.209617
4584	-0.135183
4568	0.819849
4552	0.899505
4536	0.049567
4520	-0.137734
4504	-0.131845
4488	-3.753066
4472	1.234483
4456	-0.439739
4440	-0.131869
4424	-0.275039
4408	0.134825
4392	0.150942
4376	0.789356
4360	0.345873
4344	0.121474
4328	0.247263
4312	0.193548
4296	-0.281333
4280	-0.065255
4264	-0.037193
4248	0.310420
4232	0.028109
4216	-0.006031
4200	-0.153422
4184	0.350928
4168	0.613975
4152	-0.049710
4136	0.157737
4120	0.073218
4104	0.066661
4088	-0.118970
4072	0.176668
4056	0.122928
4040	-0.122046
4024	0.257587
4008	-0.221180
3992	0.080418
3976	0.223445
3960	0.149917
3944	-0.066757
3928	0.087404
3912	0.232124
3896	0.044441
3880	-0.064754
3864	0.114798
3848	0.058507
3832	0.013589
3816	0.123310
3800	-0.030636
3784	-0.106453
3768	0.146579
3752	0.132918
3736	0.017356
3720	0.189709
3704	0.024676
3688	0.122261
3672	0.060129
3656	0.181627
3640	0.035691
3624	0.045156
3608	0.149130
3592	-0.061774
3576	0.002837
3560	-0.117349
3544	-0.022745
3528	0.044870
3512	0.160479
3496	0.012063
3480	-0.055170
3464	-0.130844
3448	0.075197
3432	0.127196
3416	-0.009679
3400	0.021147
3384	0.016689
3368	0.231027
3352	-0.040888
3336	0.120258
3320	0.069117
3304	0.037360
3288	-0.054526
3272	-0.085687
3256	0.221085
3240	0.039696
3224	0.044250
3208	-0.135040
3192	0.032091
3176	0.038099
3160	0.059032
3144	0.056385
3128	0.234341
3112	-0.099539
3096	0.043892
3080	0.037169
3064	-0.040793
3048	0.159430
3032	-0.066876
3016	0.094461
3000	0.056219
2984	0.131630
2968	-0.027418
2952	0.048875
2936	-0.060057
2920	0.046896
2904	0.085282
2888	0.061678
2872	0.113534
2856	-0.065112
2840	0.125980
2824	0.006794
2808	0.123095
2792	-0.012350
2776	-0.004315
2760	0.062203
2744	0.114130
2728	0.070118
2712	0.057983
2696	0.001478
2680	0.043249
2664	0.017619
2648	0.054478
2632	0.082826
2616	0.073337
2600	0.037026
2584	0.092935
2568	-0.093555
2552	0.015878
2536	0.062513
2520	-0.003170
2504	0.141096
2488	0.067949
2472	-0.006985
2456	-0.014591
2440	0.017452
2424	-0.044894
2408	-0.182056
2392	-0.006961
2376	0.111484
2360	0.003075
2344	0.036692
2328	0.054621
2312	0.071001
2296	0.229954
2280	0.346589
2264	0.570869
2248	0.867080
2232	1.318717
2216	1.790118
2200	2.485370
2184	3.418445
2168	4.495573
2152	5.755662
2136	7.241129
2120	8.852219
2104	10.5067
2088	12.1113
2072	13.7923
2056	15.5369
2040	17.2993
2024	18.7611
2008	20.2065
1992	21.496
1976	22.6592
1960	23.8052
1944	24.7427
1928	25.6271
1912	26.5089
1896	27.1606
1880	27.6951
1864	28.1806
1848	28.7096
1832	29.1641
1816	29.5337
1800	29.8635
1784	30.1924
1768	30.3883
1752	30.5956
1736	30.8201
1720	30.9321
1704	31.1576
1688	31.3797
1672	31.4097
1656	31.4917
1640	31.6044
1624	31.6774
1608	31.7232
1592	31.7872
1576	31.7879
1560	31.8044
1544	31.9257
1528	31.9475
1512	31.9704
1496	31.9725
1480	32.0634
1464	31.7796
1448	31.8178
1432	31.972
1416	31.8369
1400	31.7916
1384	31.9122
1368	31.5495
1352	31.7249
1336	31.7621
1320	31.6931
1304	31.6475
1288	31.6051
1272	31.5449
1256	31.3911
1240	31.4461
1224	31.3885
1208	31.2034
1192	31.1374
1176	31.1299
1160	30.8558
1144	30.7138
1128	30.8004
1112	30.5897
1096	30.4598
1080	30.1479
1064	30.0177
1048	29.8425
1032	29.7153
1016	29.5803
1000	29.2506
984	 29.1199
968	 28.9248
952	 28.7019
936	 28.4567
920	 28.1962
904	 27.9341
888	 27.8163
872	 27.4262
856	 27.2552
840	 26.8764
824	 26.5359
808	 26.4733
792	 26.3165
776	 25.4236
760	 25.2256
744	 25.4222
728	 24.6435
712	 24.2846
696	 23.9523
680	 23.8554
664	 23.3973
648	 23.418
632	 23.2736
616	 22.3792
600	 22.5901
584	 21.9625
568	 21.6643
552	 21.0726
536	 21.1269
520	 20.5879
504	 19.3697
488	 19.7623
472	 17.903
456	 18.7915
440	 18.2549
424	 19.7626
408	 13.4564
392	 1.804590
376	 -2.810406
370	 -10.7704

File: LPE453_t78.asc
PE IR       SPECTRUM    SPECTRUM    ASCII       PEDS        1.60
  -1
LPEFA9~1.ASC
17/05/16
20:46:24.00
17/05/16
20:46:50.00
tln
$LPE453_t0078$<tbV0>[13.0,5.2,8.0,0.0,27,1,0]
27.028
64

2002,4.07
MIRTGS : RIGHTBACK : INTERNAL 2
MIR : ON : INTERNAL 2
OPTKBR

0.200000
8
8.000000
FILLER
RATIO
SPECTRUM
UNLOCKED 256

DOUBLE
64
COMBINED
1
0
0

0.002000
RATIO

1
0
TRUE
51149
0
LEFT NOT FITTED RIGHT NOT FITTED 0
NONE
NONE
15600
12
4.427000
51148
TRUE
1 0 8 72 0 0 0 0

15798

#HDR
-1
-1
#GR
µM
%T
2.38419e-05
0.0
2.000000
0.002000
12515
8
39.8222
-11.9202
#DATA
2.000000	 0.310158
2.084000	 0.321144
2.168000	 0.282675
2.252000	 -0.068844
2.336000	 0.044439
2.420000	 0.219674
2.504000	 0.227513
2.588000	 0.245295
2.672000	 -0.023290
2.756000	 0.098077
2.840000	 0.136989
2.924000	 0.199488
3.008000	 0.033748
3.092000	 0.180036
3.176000	 0.156189
3.260000	 0.122458
3.344000	 0.086447
3.428000	 0.029888
3.512000	 0.108213
3.596000	 0.060474
3.680000	 0.017816
3.764000	 0.004486
3.848000	 -0.048843
3.932000	 -0.006099
4.016000	 0.131342
4.100000	 0.008181
4.184000	 -0.031819
4.268000	 0.097647
4.352000	 0.054183
4.436000	 0.093898
4.520000	 0.504516
4.604000	 1.462082
4.688000	 2.979337
4.772000	 4.989554
4.856000	 7.115630
4.940000	 9.257455
5.024000	 11.0752
5.108000	 12.5009
5.192000	 13.6089
5.276000	 14.5711
5.359999	 15.3175
5.444000	 15.8563
5.528000	 16.3331
5.612000	 16.751
5.696000	 17.0532
5.780000	 17.2737
5.864000	 17.694
5.948000	 17.7219
6.032000	 17.8797
6.116000	 18.0823
6.200000	 18.1037
6.284000	 18.2577
6.368000	 18.3478
6.452000	 18.5231
6.536000	 18.5303
6.620000	 18.6434
6.704000	 18.707
6.788000	 18.6787
6.872000	 18.804
6.956000	 18.8536
7.040000	 19.0021
7.124000	 18.9751
7.208000	 19.0445
7.292000	 19.1301
7.376000	 19.1459
7.460000	 19.1295
7.544000	 19.218
7.628000	 19.1764
7.712000	 19.2524
7.796000	 19.3397
7.880000	 19.4527
7.964000	 19.4431
8.048000	 19.4248
8.132000	 19.446
8.216000	 19.4434
8.300000	 19.4657
8.384000	 19.5943
8.468000	 19.6262
8.552000	 19.5909
8.635999	 19.5399
8.719999	 19.5632
8.804000	 19.4913
8.888000	 19.5127
8.972000	 19.643
9.056000	 19.5303
9.140000	 19.6976
9.224000	 19.4282
9.308000	 19.4955
9.391999	 19.4739
9.475999	 19.5057
9.560000	 19.3293
9.644000	 19.2759
9.728000	 19.3726
9.812000	 19.243
9.896000	 19.2587
9.980000	 19.2686
10.064	19.2288
10.148	19.3924
10.232	19.3277
10.316	19.1037
10.4	19.2289
10.484	19.3085
10.568	19.2611
10.652	18.9085
10.736	18.8851
10.82	18.8761
10.904	18.9382
10.988	18.9995
11.072	18.8815
11.156	18.5983
11.24	18.5749
11.324	18.6358
11.408	18.795
11.492	18.8764
11.576	18.7331
11.66	18.4216
11.744	18.405
11.828	18.2837
11.912	18.4176
11.996	18.3609
12.08	18.1267
12.164	18.0297
12.248	18.1613
12.332	18.063
12.416	17.9686
12.5	18.036
12.584	17.9941
12.668	17.7577
12.752	17.7275
12.836	17.7476
12.92	17.6688
13.004	17.5116
13.088	17.3832
13.172	17.2914
13.256	17.3953
13.34	17.3527
13.424	17.2331
13.508	17.2631
13.592	17.2727
13.676	17.1489
13.76	16.9724
13.844	16.7708
13.928	16.6484
14.012	16.7288
14.096	16.7831
14.18	16.6832
14.264	16.6538
14.348	16.8645
14.432	16.9133
14.516	16.6861
14.6	16.4229
14.684	16.2621
14.768	16.182
14.852	16.1049
14.936	16.1158
15.02	16.2167
15.104	16.302
15.188	16.3337
15.272	16.2608
15.356	16.0672
15.44	15.8721
15.524	15.7505
15.608	15.5809
15.692	15.3501
15.776	15.267
15.86	15.3453
15.944	15.3839
16.028	15.3221
16.112	15.267
16.196	15.2722
16.28	15.2484
16.364	15.1392
16.448	15.0728
16.532	15.1373
16.616	15.195
16.7	15.1165
16.784	14.9855
16.868	14.9417
16.952	14.9847
17.036	15.0022
17.12	14.9292
17.204	14.8277
17.288	14.7711
17.372	14.7231
17.456	14.6311
17.54	14.5495
17.624	14.536
17.708	14.5277
17.792	14.4352
17.876	14.2697
17.96	14.0977
18.044	13.9487
18.128	13.8201
18.212	13.6998
18.296	13.5853
18.38	13.5347
18.464	13.6278
18.548	13.83
18.632	13.9618
18.716	13.8832
18.8	13.6496
18.884	13.4254
18.968	13.3064
19.052	13.2764
19.136	13.2753
19.22	13.255
19.304	13.2064
19.388	13.1601
19.472	13.1495
19.556	13.1626
19.64	13.1397
19.724	13.04
19.808	12.8912
19.892	12.7598
19.976	12.68
20.06	12.6354
20.144	12.5989
20.228	12.5702
20.312	12.578
20.396	12.6437
20.48	12.7528
20.564	12.8626
20.648	12.9288
20.732	12.928
20.816	12.853
20.9	12.7095
20.984	12.5218
21.068	12.3307
21.152	12.1683
21.236	12.0263
21.32	11.8444
21.404	11.5497
21.488	11.1251
21.572	10.6447
21.656	10.2477
21.74	10.0646
21.824	10.1508
21.908	10.458
21.992	10.8625
22.076	11.2202
22.16	11.4213
22.244	11.4423
22.328	11.3316
22.412	11.1748
22.496	11.0469
22.58	10.981
22.664	10.9757
22.748	11.0017
22.832	11.018
22.916	10.9929
23	10.9159
23.084	10.8086
23.168	10.7137
23.252	10.6579
23.336	10.6302
23.42	10.5907
23.504	10.4666
23.588	10.1837
23.672	9.705545
23.756	9.056820
23.84	8.312068
23.924	7.578426
24.008	6.973248
24.092	6.602733
24.176	6.525646
24.26	6.724192
24.344	7.151512
24.428	7.760328
24.512	8.449011
24.596	9.126649
24.68	9.657913
24.764	9.834367
24.848	9.448439
24.932	8.354001
25.016	6.594421
25.1	4.450433
25.184	2.448973
25.268	1.135428
25.352	0.818364
25.436	1.474412
25.52	2.692618
25.604	3.851300
25.688	4.300079
25.772	3.724457
25.856	2.366660
25.94	1.052128
26.024	0.947246
26.108	3.035041
26.192	7.666892
26.276	14.4152
26.36	22.1293
26.444	29.4018
26.528	35.0606
26.612	38.5144
26.696	39.7876
26.78	39.4454
26.864	38.1695
26.948	36.3409
27.028	33.952

File: LPE453_t78_cm-1.asc
PE IR       SPECTRUM    SPECTRUM    ASCII       PEDS        1.60
  -1
LPEA59~1.ASC
17/05/16
20:46:24.00
17/05/16
20:46:24.00
tln
$LPE453_t0078$<tbV0>[13.0,5.2,8.0,0.0,27,1,0]
370
64

2002,4.07
MIRTGS : RIGHTBACK : INTERNAL 2
MIR : ON : INTERNAL 2
OPTKBR

0.200000
8
8.000000
FILLER
RATIO
SPECTRUM
UNLOCKED 256

DOUBLE
64
COMBINED
1
0
0

1.000000
RATIO

1
0
TRUE
51149
0
LEFT NOT FITTED RIGHT NOT FITTED 0
NONE
NONE
15600
12
4.427000
51148
TRUE
1 0 8 72 0 0 0 0

15798

#HDR
-1
-1
#GR
CM-1
%T
2.38419e-05
0.0
5000
-1.000000
4631
8
39.7787
-12.0702
#DATA
5000	0.310158
4984	0.132274
4968	0.029516
4952	0.229668
4936	0.054621
4920	0.019526
4904	-0.264000
4888	-0.078582
4872	0.041484
4856	0.506472
4840	0.365734
4824	0.231099
4808	0.282192
4792	0.291585
4776	-0.042629
4760	0.101923
4744	-0.306701
4728	0.111603
4712	-0.501751
4696	0.049877
4680	-0.091433
4664	1.613020
4648	0.188398
4632	1.370382
4616	-0.431013
4600	0.175929
4584	0.545787
4568	-0.232791
4552	-0.142860
4536	-0.639081
4520	-2.957463
4504	-6.174182
4488	29.4298
4472	-0.380802
4456	-0.927591
4440	-0.026845
4424	-0.397944
4408	0.226426
4392	0.606465
4376	0.147414
4360	0.686717
4344	0.139522
4328	0.099611
4312	0.645446
4296	0.287270
4280	0.061988
4264	0.269579
4248	0.084996
4232	0.082373
4216	0.078701
4200	0.036740
4184	0.137281
4168	0.226426
4152	0.266170
4136	0.386047
4120	-0.026774
4104	0.234723
4088	-0.119638
4072	0.081729
4056	0.082850
4040	0.155282
4024	0.028491
4008	0.154304
3992	0.220370
3976	0.001239
3960	-0.156855
3944	0.077009
3928	0.058484
3912	0.113081
3896	0.062894
3880	0.136065
3864	0.245332
3848	-0.034999
3832	-0.113797
3816	0.111651
3800	0.032210
3784	0.025439
3768	-0.031137
3752	-0.044798
3736	-0.081300
3720	0.180149
3704	0.099730
3688	-0.206851
3672	0.023531
3656	0.081562
3640	0.157737
3624	0.035047
3608	0.019288
3592	0.062465
3576	0.004506
3560	-0.096821
3544	0.107431
3528	-0.050997
3512	-0.022149
3496	0.143337
3480	-0.149798
3464	-0.078129
3448	0.150847
3432	0.105190
3416	0.167465
3400	0.066566
3384	0.049114
3368	-0.098228
3352	0.180673
3336	-0.038361
3320	0.040125
3304	-0.024652
3288	-0.025248
3272	0.049591
3256	0.155758
3240	0.085520
3224	0.029635
3208	-0.118374
3192	0.101828
3176	-0.066208
3160	0.112104
3144	0.169324
3128	0.244140
3112	0.058531
3096	-0.093865
3080	0.058102
3064	0.107884
3048	0.060057
3032	-0.049138
3016	0.018978
3000	-0.023412
2984	0.058317
2968	-0.009465
2952	0.065279
2936	0.065207
2920	-0.039768
2904	0.118160
2888	0.086998
2872	-0.030541
2856	0.135588
2840	-0.021314
2824	0.136637
2808	0.087308
2792	0.075984
2776	-0.002431
2760	-0.027251
2744	-0.003600
2728	0.049448
2712	0.087165
2696	0.012350
2680	0.012183
2664	0.027918
2648	0.014781
2632	-0.015759
2616	-0.030708
2600	-0.050210
2584	0.046968
2568	0.021243
2552	0.008654
2536	0.017547
2520	0.008773
2504	0.002956
2488	0.127840
2472	-0.002479
2456	0.026988
2440	-0.001502
2424	0.057458
2408	-0.000190
2392	-0.057530
2376	0.036215
2360	-0.007748
2344	0.090336
2328	0.027680
2312	-0.008082
2296	0.069236
2280	0.207567
2264	0.163292
2248	0.150418
2232	0.303220
2216	0.522351
2200	0.742769
2184	1.008296
2168	1.668214
2152	2.159762
2136	2.785706
2120	3.625369
2104	4.453921
2088	5.344963
2072	6.433558
2056	7.428574
2040	8.243441
2024	9.272837
2008	10.0099
1992	10.9983
1976	11.7034
1960	12.3875
1944	13.0824
1928	13.5391
1912	14.0762
1896	14.5528
1880	15.0359
1864	15.3305
1848	15.6477
1832	15.9833
1816	16.2694
1800	16.3844
1784	16.7189
1768	16.9933
1752	17.1287
1736	17.2042
1720	17.5296
1704	17.7004
1688	17.6624
1672	17.824
1656	17.909
1640	18.0445
1624	18.1804
1608	18.1575
1592	18.2624
1576	18.2787
1560	18.4101
1544	18.4967
1528	18.5449
1512	18.6507
1496	18.6753
1480	18.6209
1464	18.777
1448	18.8668
1432	18.8719
1416	18.9203
1400	19.0011
1384	19.0217
1368	19.1999
1352	19.0972
1336	19.1208
1320	19.2968
1304	19.2678
1288	19.299
1272	19.4455
1256	19.4386
1240	19.4228
1224	19.4679
1208	19.384
1192	19.5988
1176	19.6328
1160	19.6043
1144	19.5381
1128	19.5522
1112	19.5964
1096	19.7232
1080	19.4562
1064	19.4757
1048	19.3606
1032	19.3412
1016	19.244
1000	19.2507
984	 19.433
968	 19.1149
952	 19.3149
936	 18.8462
920	 18.925
904	 18.9169
888	 18.5857
872	 18.8618
856	 18.4
840	 18.4024
824	 18.0223
808	 18.0048
792	 17.8565
776	 17.7209
760	 17.2925
744	 17.2307
728	 17.0218
712	 16.7665
696	 16.9062
680	 16.2385
664	 16.2629
648	 15.8868
632	 15.3033
616	 15.2724
600	 15.1628
584	 14.9251
568	 14.5346
552	 13.8377
536	 13.9623
520	 13.25
504	 12.8338
488	 12.7692
472	 12.1102
456	 10.5597
440	 10.9946
424	 10.1975
408	 8.430910
392	 2.544426
376	 38.0283
370	 33.952