Folder: Masteroppgave/Bakgrunnsmateriale/MATLAB/FTIR/ftir_data/LPE453/Mapping_121 (part 37)

File: LPE453_t84.asc
PE IR       SPECTRUM    SPECTRUM    ASCII       PEDS        1.60
  -1
LPD3B9~1.ASC
17/05/16
21:14:04.00
17/05/16
21:14:31.00
tln
$LPE453_t0084$<tbV0>[-2.6,5.2,8.0,0.0,27,1,0]
27.028
64

2002,4.07
MIRTGS : RIGHTBACK : INTERNAL 2
MIR : ON : INTERNAL 2
OPTKBR

0.200000
8
8.000000
FILLER
RATIO
SPECTRUM
UNLOCKED 256

DOUBLE
64
COMBINED
1
0
0

0.002000
RATIO

1
0
TRUE
51149
0
LEFT NOT FITTED RIGHT NOT FITTED 0
NONE
NONE
15600
12
4.427000
51148
TRUE
1 0 8 72 0 0 0 0

15798

#HDR
-1
-1
#GR
µM
%T
2.38419e-05
0.0
2.000000
0.002000
12515
8
35.8134
-4.246407
#DATA
2.000000	 -0.178670
2.084000	 0.312159
2.168000	 0.326885
2.252000	 -0.997672
2.336000	 -0.022321
2.420000	 0.169829
2.504000	 0.230153
2.588000	 0.281276
2.672000	 0.086689
2.756000	 -0.022775
2.840000	 0.099969
2.924000	 0.102858
3.008000	 -0.064857
3.092000	 0.042904
3.176000	 -0.005217
3.260000	 0.063253
3.344000	 0.096575
3.428000	 0.036954
3.512000	 0.145612
3.596000	 0.053094
3.680000	 0.019586
3.764000	 -0.009486
3.848000	 0.013449
3.932000	 0.039051
4.016000	 0.133999
4.100000	 -0.007234
4.184000	 -0.114347
4.268000	 0.228552
4.352000	 0.796387
4.436000	 1.767532
4.520000	 4.040466
4.604000	 7.613966
4.688000	 12.0641
4.772000	 16.898
4.856000	 21.4995
4.940000	 25.1955
5.024000	 28.1276
5.108000	 30.3839
5.192000	 31.8847
5.276000	 33
5.359999	 33.8338
5.444000	 34.3217
5.528000	 34.8161
5.612000	 34.9779
5.696000	 35.4419
5.780000	 35.3851
5.864000	 35.6325
5.948000	 35.5672
6.032000	 35.6219
6.116000	 35.6189
6.200000	 35.4483
6.284000	 35.7623
6.368000	 35.4137
6.452000	 35.4481
6.536000	 35.6287
6.620000	 35.3405
6.704000	 35.3436
6.788000	 35.5479
6.872000	 35.0237
6.956000	 35.3557
7.040000	 35.3867
7.124000	 35.0562
7.208000	 35.0738
7.292000	 35.1062
7.376000	 34.9257
7.460000	 34.7486
7.544000	 34.9233
7.628000	 35.0173
7.712000	 34.5915
7.796000	 34.6589
7.880000	 34.792
7.964000	 34.7272
8.048000	 34.462
8.132000	 34.1944
8.216000	 34.4234
8.300000	 34.4821
8.384000	 34.4399
8.468000	 34.2247
8.552000	 34.1144
8.635999	 34.2466
8.719999	 34.0141
8.804000	 33.9243
8.888000	 33.8533
8.972000	 33.8432
9.056000	 33.9762
9.140000	 33.7902
9.224000	 33.7448
9.308000	 33.3863
9.391999	 33.3313
9.475999	 33.3509
9.560000	 33.3855
9.644000	 33.3536
9.728000	 33.1668
9.812000	 33.2095
9.896000	 32.8383
9.980000	 32.8895
10.064	33.2794
10.148	33.1836
10.232	33.1572
10.316	32.8601
10.4	32.548
10.484	32.3548
10.568	32.2433
10.652	32.5655
10.736	32.6218
10.82	32.3267
10.904	32.4029
10.988	32.2126
11.072	32.0098
11.156	31.8599
11.24	31.8715
11.324	31.8847
11.408	32.0029
11.492	31.7592
11.576	31.4367
11.66	31.363
11.744	31.0871
11.828	30.9208
11.912	31.0123
11.996	31.1565
12.08	31.1328
12.164	31.1134
12.248	31.1843
12.332	31.0044
12.416	30.6415
12.5	30.3938
12.584	30.2463
12.668	30.2314
12.752	30.0389
12.836	29.9144
12.92	29.9551
13.004	30.0484
13.088	30.101
13.172	30.0097
13.256	29.7865
13.34	29.5771
13.424	29.4089
13.508	29.2334
13.592	29.1341
13.676	29.0822
13.76	29.1174
13.844	29.0852
13.928	29.03
14.012	29.013
14.096	28.98
14.18	28.9471
14.264	28.8715
14.348	28.7386
14.432	28.5541
14.516	28.3107
14.6	28.1558
14.684	28.0635
14.768	28.0139
14.852	28.0713
14.936	28.0667
15.02	28.0062
15.104	27.9736
15.188	27.9301
15.272	27.9563
15.356	28.0082
15.44	27.9662
15.524	27.9593
15.608	27.9968
15.692	27.7768
15.776	27.2271
15.86	26.693
15.944	26.4328
16.028	26.3998
16.112	26.489
16.196	26.6043
16.28	26.5855
16.364	26.3794
16.448	26.1663
16.532	26.0958
16.616	26.1029
16.7	26.1319
16.784	26.2656
16.868	26.5113
16.952	26.7246
17.036	26.7801
17.12	26.6623
17.204	26.4041
17.288	26.0284
17.372	25.5747
17.456	25.1591
17.54	24.933
17.624	24.9307
17.708	25.0267
17.792	25.0803
17.876	25.0507
17.96	24.97
18.044	24.8892
18.128	24.8658
18.212	24.9173
18.296	24.9982
18.38	25.0722
18.464	25.1638
18.548	25.291
18.632	25.3911
18.716	25.3816
18.8	25.259
18.884	25.0861
18.968	24.8995
19.052	24.6846
19.136	24.4313
19.22	24.1612
19.304	23.8977
19.388	23.6605
19.472	23.5016
19.556	23.4965
19.64	23.6614
19.724	23.9
19.808	24.0638
19.892	24.0786
19.976	23.9966
20.06	23.9299
20.144	23.948
20.228	24.0309
20.312	24.0961
20.396	24.0557
20.48	23.8757
20.564	23.5972
20.648	23.3026
20.732	23.0599
20.816	22.8918
20.9	22.7879
20.984	22.754
21.068	22.8236
21.152	23.0309
21.236	23.3497
21.32	23.6692
21.404	23.838
21.488	23.752
21.572	23.4215
21.656	22.9689
21.74	22.5565
21.824	22.2974
21.908	22.1989
21.992	22.1779
22.076	22.1215
22.16	21.9549
22.244	21.6762
22.328	21.3417
22.412	21.0321
22.496	20.8138
22.58	20.7172
22.664	20.7308
22.748	20.8058
22.832	20.8812
22.916	20.877
23	20.7493
23.084	20.5062
23.168	20.2137
23.252	19.9765
23.336	19.9104
23.42	20.0462
23.504	20.3322
23.588	20.6423
23.672	20.8372
23.756	20.8283
23.84	20.6189
23.924	20.2725
24.008	19.8473
24.092	19.3372
24.176	18.657
24.26	17.6478
24.344	16.1687
24.428	14.2458
24.512	12.1555
24.596	10.3433
24.68	9.328938
24.764	9.523554
24.848	10.9992
24.932	13.4969
25.016	16.5109
25.1	19.4974
25.184	21.8612
25.268	23.1426
25.352	23.1478
25.436	21.937
25.52	19.8304
25.604	17.3079
25.688	15.0124
25.772	13.5178
25.856	13.1258
25.94	13.9333
26.024	15.829
26.108	18.4955
26.192	21.3308
26.276	23.4845
26.36	23.8918
26.444	21.8951
26.528	17.5826
26.612	11.886
26.696	6.211528
26.78	1.908572
26.864	-0.059021
26.948	0.864020
27.028	4.850792

File: LPE453_t84_cm-1.asc
PE IR       SPECTRUM    SPECTRUM    ASCII       PEDS        1.60
  -1
LP6B5B~1.ASC
17/05/16
21:14:04.00
17/05/16
21:14:04.00
tln
$LPE453_t0084$<tbV0>[-2.6,5.2,8.0,0.0,27,1,0]
370
64

2002,4.07
MIRTGS : RIGHTBACK : INTERNAL 2
MIR : ON : INTERNAL 2
OPTKBR

0.200000
8
8.000000
FILLER
RATIO
SPECTRUM
UNLOCKED 256

DOUBLE
64
COMBINED
1
0
0

1.000000
RATIO

1
0
TRUE
51149
0
LEFT NOT FITTED RIGHT NOT FITTED 0
NONE
NONE
15600
12
4.427000
51148
TRUE
1 0 8 72 0 0 0 0

15798

#HDR
-1
-1
#GR
CM-1
%T
2.38419e-05
0.0
5000
-1.000000
4631
8
35.813
-4.240179
#DATA
5000	-0.178670
4984	0.407505
4968	0.323653
4952	0.027012
4936	0.396442
4920	0.041055
4904	0.212430
4888	0.005960
4872	0.451946
4856	0.568890
4840	-0.284361
4824	-0.014805
4808	0.046372
4792	0.294661
4776	-0.072979
4760	-0.159311
4744	-0.121712
4728	-0.103688
4712	-0.151300
4696	0.511670
4680	0.549173
4664	0.888347
4648	2.071547
4632	0.240039
4616	0.999474
4600	1.674652
4584	0.445914
4568	0.070858
4552	-0.277519
4536	0.322270
4520	-2.274870
4504	3.927588
4488	20.4686
4472	0.160622
4456	-1.842713
4440	-0.992918
4424	-0.246071
4408	0.301623
4392	0.462055
4376	0.658154
4360	0.417232
4344	0.508475
4328	0.113463
4312	0.342583
4296	0.186324
4280	0.018310
4264	0.215363
4248	-0.150775
4232	0.148010
4216	0.312709
4200	0.127673
4184	0.339436
4168	0.193142
4152	0.161576
4136	0.200772
4120	0.050973
4104	-0.205183
4088	0.262975
4072	0.017285
4056	0.000333
4040	0.091576
4024	0.206303
4008	0.071954
3992	0.139617
3976	-0.053930
3960	0.160264
3944	0.051856
3928	0.076222
3912	0.178956
3896	0.086188
3880	0.083017
3864	0.280952
3848	0.051951
3832	0.152373
3816	-0.155544
3800	-0.024414
3784	0.045990
3768	0.190639
3752	-0.020813
3736	0.161719
3720	0.113248
3704	0.068783
3688	0.121784
3672	0.036406
3656	0.053787
3640	0.187182
3624	-0.015902
3608	-0.092101
3592	-0.030541
3576	-0.006794
3560	0.142908
3544	0.041866
3528	0.125503
3512	0.077390
3496	0.163555
3480	0.052428
3464	0.162672
3448	0.092267
3432	0.014686
3416	0.049543
3400	0.107192
3384	0.065183
3368	0.127840
3352	-0.080442
3336	0.135469
3320	0.031852
3304	0.217866
3288	0.062680
3272	0.013971
3256	0.042057
3240	0.073838
3224	0.098681
3208	-0.068354
3192	0.111126
3176	0.047516
3160	0.043225
3144	0.123214
3128	0.095558
3112	-0.002002
3096	0.047683
3080	0.039649
3064	-0.015616
3048	-0.097155
3032	-0.042891
3016	-0.029134
3000	0.086975
2984	-0.057005
2968	0.056076
2952	0.034737
2936	0.012159
2920	0.110888
2904	0.138425
2888	0.044417
2872	-0.005078
2856	0.059676
2840	0.093698
2824	0.192475
2808	0.075745
2792	0.021338
2776	0.022768
2760	0.007987
2744	0.074648
2728	-0.037074
2712	0.023102
2696	0.145936
2680	0.018644
2664	-0.080251
2648	0.111293
2632	0.073146
2616	-0.093531
2600	0.031185
2584	0.031709
2568	0.064849
2552	0.094747
2536	0.009536
2520	-0.054383
2504	-0.008511
2488	0.122737
2472	-0.033450
2456	0.074505
2440	-0.015187
2424	-0.079321
2408	0.051021
2392	-0.089430
2376	0.121688
2360	0.273609
2344	0.231885
2328	0.317096
2312	0.485634
2296	0.821518
2280	0.978040
2264	1.362538
2248	1.978111
2232	2.701926
2216	3.788971
2200	4.869008
2184	6.305432
2168	8.047270
2152	9.814476
2136	11.7041
2120	13.9126
2104	15.926
2088	17.9368
2072	20.1627
2056	21.9368
2040	23.7211
2024	25.2237
2008	26.6852
1992	28.0162
1976	29.1055
1960	30.2678
1944	30.9694
1928	31.7598
1912	32.4516
1896	32.9885
1880	33.385
1864	33.9008
1848	34.2223
1832	34.393
1816	34.7229
1800	35.0468
1784	34.9596
1768	35.2242
1752	35.4359
1736	35.4467
1720	35.207
1704	35.6297
1688	35.6088
1672	35.3936
1656	35.6587
1640	35.7402
1624	35.4703
1608	35.4511
1592	35.7477
1576	35.5099
1560	35.4021
1544	35.5355
1528	35.6281
1512	35.3388
1496	35.2523
1480	35.527
1464	35.2486
1448	35.0565
1432	35.4349
1416	35.3192
1400	35.035
1384	35.062
1368	35.1176
1352	34.8744
1336	34.7714
1320	35.0274
1304	34.8573
1288	34.5416
1272	34.7539
1256	34.7242
1240	34.3661
1224	34.236
1208	34.4862
1192	34.4381
1176	34.138
1160	34.2334
1144	33.9611
1128	33.8948
1112	33.9168
1096	33.7325
1080	33.5026
1064	33.326
1048	33.3683
1032	33.1889
1016	33.0812
1000	33.0091
984	 33.1875
968	 32.7949
952	 32.2892
936	 32.5996
920	 32.3176
904	 32.0414
888	 31.8708
872	 31.8864
856	 31.3115
840	 31.0005
824	 31.1019
808	 30.8083
792	 30.2388
776	 29.9322
760	 30.0353
744	 29.37
728	 29.1071
712	 29.0017
696	 28.7019
680	 28.0408
664	 27.9904
648	 27.9716
632	 26.9028
616	 26.6214
600	 26.1136
584	 26.6547
568	 24.9169
552	 24.8641
536	 25.402
520	 24.1268
504	 24.0871
488	 23.841
472	 23.1529
456	 22.1906
440	 20.7843
424	 20.6325
408	 12.2079
392	 20.1053
376	 13.0159
370	 4.850792

File: LPE453_t85.asc
PE IR       SPECTRUM    SPECTRUM    ASCII       PEDS        1.60
  -1
LPD3BD~1.ASC
17/05/16
21:18:41.00
17/05/16
21:19:07.00
tln
$LPE453_t0085$<tbV0>[-5.2,5.2,8.0,0.0,27,1,0]
27.028
64

2002,4.07
MIRTGS : RIGHTBACK : INTERNAL 2
MIR : ON : INTERNAL 2
OPTKBR

0.200000
8
8.000000
FILLER
RATIO
SPECTRUM
UNLOCKED 256

DOUBLE
64
COMBINED
1
0
0

0.002000
RATIO

1
0
TRUE
51149
0
LEFT NOT FITTED RIGHT NOT FITTED 0
NONE
NONE
15600
12
4.427000
51148
TRUE
1 0 8 72 0 0 0 0

15798

#HDR
-1
-1
#GR
µM
%T
2.38419e-05
0.0
2.000000
0.002000
12515
8
36.8863
-9.361505
#DATA
2.000000	 0.027561
2.084000	 0.190575
2.168000	 0.099261
2.252000	 -0.021990
2.336000	 0.130992
2.420000	 0.024960
2.504000	 -0.070589
2.588000	 0.008017
2.672000	 0.036938
2.756000	 -0.016149
2.840000	 0.063204
2.924000	 0.163668
3.008000	 -0.030709
3.092000	 0.010207
3.176000	 0.158359
3.260000	 -0.015929
3.344000	 0.058369
3.428000	 0.100127
3.512000	 0.055421
3.596000	 0.027719
3.680000	 0.028091
3.764000	 0.090728
3.848000	 0.006250
3.932000	 -0.003578
4.016000	 -0.051985
4.100000	 0.101781
4.184000	 -0.000693
4.268000	 0.357655
4.352000	 0.604651
4.436000	 1.828233
4.520000	 4.126496
4.604000	 7.832136
4.688000	 12.685
4.772000	 17.6195
4.856000	 22.14
4.940000	 26.0546
5.024000	 28.9554
5.108000	 31.1395
5.192000	 32.8833
5.276000	 33.9265
5.359999	 34.8993
5.444000	 35.2982
5.528000	 35.8955
5.612000	 35.9716
5.696000	 36.3794
5.780000	 36.1681
5.864000	 36.7036
5.948000	 36.388
6.032000	 36.5657
6.116000	 36.7768
6.200000	 36.4762
6.284000	 36.8352
6.368000	 36.4919
6.452000	 36.468
6.536000	 36.7347
6.620000	 36.3131
6.704000	 36.4153
6.788000	 36.4983
6.872000	 36.1052
6.956000	 36.2012
7.040000	 36.5392
7.124000	 36.1106
7.208000	 36.0156
7.292000	 36.2498
7.376000	 36.3104
7.460000	 35.6569
7.544000	 35.9178
7.628000	 36.1941
7.712000	 36.2191
7.796000	 35.5892
7.880000	 35.6909
7.964000	 35.9797
8.048000	 35.9409
8.132000	 35.5389
8.216000	 35.2008
8.300000	 35.4492
8.384000	 35.8129
8.468000	 35.5831
8.552000	 35.0817
8.635999	 35.0811
8.719999	 35.1742
8.804000	 35.5579
8.888000	 35.442
8.972000	 35.0085
9.056000	 34.5984
9.140000	 34.799
9.224000	 35.1192
9.308000	 35.2497
9.391999	 35.056
9.475999	 34.4957
9.560000	 34.2278
9.644000	 34.3383
9.728000	 34.5397
9.812000	 34.8673
9.896000	 34.6687
9.980000	 34.1999
10.064	33.9742
10.148	33.9096
10.232	33.9946
10.316	34.1314
10.4	34.3676
10.484	34.2809
10.568	33.9945
10.652	33.5664
10.736	33.2468
10.82	33.2368
10.904	33.328
10.988	33.5577
11.072	33.7579
11.156	33.5549
11.24	33.2135
11.324	32.8308
11.408	32.4571
11.492	32.3455
11.576	32.3603
11.66	32.6269
11.744	33.0198
11.828	33.2094
11.912	33.1227
11.996	32.782
12.08	32.3483
12.164	31.9529
12.248	31.7441
12.332	31.3981
12.416	31.6155
12.5	31.9418
12.584	32.2821
12.668	32.335
12.752	32.2225
12.836	32.0657
12.92	31.838
13.004	31.5527
13.088	31.2076
13.172	30.979
13.256	30.8777
13.34	30.8396
13.424	30.7271
13.508	30.947
13.592	31.2877
13.676	31.3946
13.76	31.3526
13.844	31.2157
13.928	31.0448
14.012	30.7603
14.096	30.4375
14.18	29.9961
14.264	29.5062
14.348	29.3904
14.432	29.5267
14.516	29.7057
14.6	29.8815
14.684	29.9494
14.768	30.0997
14.852	30.3958
14.936	30.5748
15.02	30.5511
15.104	30.3805
15.188	30.0502
15.272	29.6371
15.356	29.3
15.44	29.0614
15.524	28.8389
15.608	28.686
15.692	28.6679
15.776	28.6212
15.86	28.4907
15.944	28.4172
16.028	28.4073
16.112	28.4094
16.196	28.4502
16.28	28.5114
16.364	28.5823
16.448	28.6883
16.532	28.7224
16.616	28.5671
16.7	28.3158
16.784	28.0967
16.868	27.8771
16.952	27.6021
17.036	27.3128
17.12	27.082
17.204	26.965
17.288	26.9598
17.372	26.9825
17.456	26.9693
17.54	26.9744
17.624	27.0766
17.708	27.2415
17.792	27.3704
17.876	27.4293
17.96	27.468
18.044	27.5323
18.128	27.6074
18.212	27.6484
18.296	27.6357
18.38	27.5855
18.464	27.512
18.548	27.3868
18.632	27.1483
18.716	26.7752
18.8	26.3353
18.884	25.9365
18.968	25.6394
19.052	25.4332
19.136	25.2925
19.22	25.2079
19.304	25.1723
19.388	25.1698
19.472	25.2046
19.556	25.3038
19.64	25.4694
19.724	25.6441
19.808	25.7602
19.892	25.8119
19.976	25.8463
20.06	25.8748
20.144	25.8382
20.228	25.6777
20.312	25.4305
20.396	25.2139
20.48	25.1199
20.564	25.1333
20.648	25.1628
20.732	25.1344
20.816	25.0479
20.9	24.9443
20.984	24.857
21.068	24.7931
21.152	24.7542
21.236	24.7466
21.32	24.7503
21.404	24.6942
21.488	24.4942
21.572	24.1269
21.656	23.6664
21.74	23.2523
21.824	23.003
21.908	22.9358
21.992	22.9551
22.076	22.9173
22.16	22.7335
22.244	22.4469
22.328	22.2021
22.412	22.1353
22.496	22.2635
22.58	22.476
22.664	22.6109
22.748	22.5473
22.832	22.2775
22.916	21.903
23	21.5674
23.084	21.392
23.168	21.4248
23.252	21.6257
23.336	21.9164
23.42	22.2439
23.504	22.5966
23.588	23.0089
23.672	23.506
23.756	24.025
23.84	24.4165
23.924	24.4975
24.008	24.1482
24.092	23.3981
24.176	22.4636
24.26	21.689
24.344	21.4511
24.428	21.9698
24.512	23.2325
24.596	24.9819
24.68	26.8305
24.764	28.4105
24.848	29.4502
24.932	29.7486
25.016	29.1946
25.1	27.7372
25.184	25.4573
25.268	22.6486
25.352	19.8258
25.436	17.5645
25.52	16.3316
25.604	16.3742
25.688	17.6296
25.772	19.6475
25.856	21.7428
25.94	23.4212
26.024	24.5408
26.108	25.2972
26.192	25.8375
26.276	26.0048
26.36	25.0922
26.444	22.6281
26.528	18.6439
26.612	13.8589
26.696	8.997865
26.78	4.311720
26.864	-0.444219
26.948	-5.378791
27.028	-9.361505

File: LPE453_t85_cm-1.asc
PE IR       SPECTRUM    SPECTRUM    ASCII       PEDS        1.60
  -1
LP6BDA~1.ASC
17/05/16
21:18:41.00
17/05/16
21:18:41.00
tln
$LPE453_t0085$<tbV0>[-5.2,5.2,8.0,0.0,27,1,0]
370
64

2002,4.07
MIRTGS : RIGHTBACK : INTERNAL 2
MIR : ON : INTERNAL 2
OPTKBR

0.200000
8
8.000000
FILLER
RATIO
SPECTRUM
UNLOCKED 256

DOUBLE
64
COMBINED
1
0
0

1.000000
RATIO

1
0
TRUE
51149
0
LEFT NOT FITTED RIGHT NOT FITTED 0
NONE
NONE
15600
12
4.427000
51148
TRUE
1 0 8 72 0 0 0 0

15798

#HDR
-1
-1
#GR
CM-1
%T
2.38419e-05
0.0
5000
-1.000000
4631
8
36.8858
-9.361505
#DATA
5000	0.027561
4984	0.605416
4968	-0.120186
4952	0.007200
4936	0.383472
4920	0.350356
4904	-0.190830
4888	0.072860
4872	0.267124
4856	-0.165009
4840	0.134277
4824	0.278282
4808	-0.021791
4792	0.389051
4776	0.320148
4760	-0.124001
4744	0.230407
4728	-0.158715
4712	0.325965
4696	0.381898
4680	1.121377
4664	0.626420
4648	0.805711
4632	-0.120782
4616	-0.241756
4600	0.118947
4584	-1.364469
4568	-0.979876
4552	-0.950551
4536	-1.109671
4520	-0.245165
4504	0.260376
4488	15.5957
4472	-0.409340
4456	-0.540280
4440	-0.007271
4424	-0.551819
4408	0.032281
4392	-0.124096
4376	0.279712
4360	-0.163936
4344	0.525379
4328	0.661659
4312	0.603652
4296	-0.253963
4280	0.145673
4264	0.306868
4248	0.139689
4232	-0.213050
4216	0.041913
4200	0.173234
4184	0.513577
4168	0.018167
4152	0.148081
4136	0.112843
4120	-0.041389
4104	0.278282
4088	0.017857
4072	0.100445
4056	0.268292
4040	-0.119853
4024	-0.111436
4008	0.119924
3992	-0.054287
3976	-0.004982
3960	0.077128
3944	0.126242
3928	-0.112414
3912	-0.008988
3896	0.132036
3880	0.060844
3864	0.007843
3848	-0.019097
3832	0.029969
3816	0.004863
3800	0.137948
3784	-0.022959
3768	-0.052523
3752	0.143098
3736	0.064325
3720	0.080561
3704	-0.026035
3688	-0.082755
3672	0.123548
3656	0.137567
3640	-0.007581
3624	0.032544
3608	0.061726
3592	0.014233
3576	0.032806
3560	0.039148
3544	-0.039792
3528	-0.001025
3512	0.041460
3496	0.069999
3480	0.003314
3464	0.011444
3448	0.033569
3432	-0.039339
3416	0.171947
3400	0.047159
3384	0.040984
3368	0.037622
3352	0.079846
3336	0.014090
3320	0.023198
3304	0.144314
3288	0.012063
3272	-0.010037
3256	0.035500
3240	-0.034356
3224	0.053620
3208	0.058078
3192	-0.026965
3176	0.027251
3160	0.230908
3144	0.090360
3128	0.123524
3112	0.135111
3096	-0.027513
3080	-0.040769
3064	-0.070929
3048	0.067520
3032	0.175714
3016	0.031614
3000	0.012588
2984	0.071811
2968	0.006055
2952	0.023579
2936	-0.109648
2920	0.041007
2904	0.134682
2888	-0.144052
2872	0.028920
2856	0.044226
2840	-0.013184
2824	-0.050997
2808	-0.059413
2792	0.117969
2776	-0.000834
2760	-0.013542
2744	0.051331
2728	0.097560
2712	0.082111
2696	0.034976
2680	-0.108742
2664	0.129222
2648	0.043463
2632	-0.059986
2616	-0.018382
2600	-0.017881
2584	0.086665
2568	0.072145
2552	-0.021982
2536	0.088191
2520	0.073766
2504	0.008726
2488	-0.031876
2472	0.026464
2456	0.096201
2440	0.101208
2424	0.027441
2408	0.159072
2392	0.005555
2376	0.169944
2360	0.157284
2344	0.336742
2328	0.337409
2312	0.572991
2296	0.627589
2280	1.092863
2264	1.396417
2248	2.120327
2232	2.884244
2216	3.845405
2200	5.113363
2184	6.564116
2168	8.337593
2152	10.1966
2136	12.2525
2120	14.3852
2104	16.5685
2088	18.5797
2072	20.6185
2056	22.4969
2040	24.3376
2024	26.0836
2008	27.5357
1992	28.8438
1976	30.1405
1960	31.0507
1944	31.8644
1928	32.7824
1912	33.4108
1896	33.9042
1880	34.3637
1864	34.9654
1848	35.1427
1832	35.3986
1816	35.7851
1800	36.0136
1784	35.9446
1768	36.2189
1752	36.39
1736	36.2582
1720	36.4126
1704	36.6905
1688	36.5241
1672	36.3415
1656	36.5974
1640	36.8813
1624	36.4486
1608	36.5597
1592	36.8311
1576	36.6415
1560	36.3543
1544	36.5633
1528	36.7245
1512	36.3308
1496	36.3423
1480	36.5523
1464	36.3996
1448	35.9481
1432	36.3177
1416	36.4681
1400	36
1384	36.0718
1368	36.2989
1352	36.2224
1336	35.6229
1320	36.0434
1304	36.3381
1288	35.822
1272	35.5794
1256	35.9713
1240	35.8815
1224	35.3708
1208	35.3487
1192	35.8044
1176	35.4085
1160	35.041
1144	35.2594
1128	35.5246
1112	34.9036
1096	34.7175
1080	35.2163
1064	35.0138
1048	34.258
1032	34.3834
1016	34.7846
1000	34.1234
984	 33.9026
968	 34.1949
952	 34.2341
936	 33.4396
920	 33.3122
904	 33.7459
888	 33.1152
872	 32.3435
856	 32.7529
840	 33.1458
824	 32.0415
808	 31.4516
792	 32.3616
776	 31.9261
760	 31.0105
744	 30.7353
728	 31.3778
712	 30.6347
696	 29.4138
680	 29.9698
664	 30.4879
648	 29.0822
632	 28.5497
616	 28.4779
600	 28.4154
584	 27.075
568	 27.0457
552	 27.5978
536	 27.0513
520	 25.201
504	 25.7859
488	 25.1168
472	 24.7474
456	 22.9383
440	 22.5842
424	 22.9922
408	 23.1924
392	 16.4103
376	 14.7965
370	 -9.361505

File: LPE453_t86.asc
PE IR       SPECTRUM    SPECTRUM    ASCII       PEDS        1.60
  -1
LPD3B1~1.ASC
17/05/16
21:23:18.00
17/05/16
21:23:44.00
tln
$LPE453_t0086$<tbV0>[-7.8,5.2,8.0,0.0,27,1,0]
27.028
64

2002,4.07
MIRTGS : RIGHTBACK : INTERNAL 2
MIR : ON : INTERNAL 2
OPTKBR

0.200000
8
8.000000
FILLER
RATIO
SPECTRUM
UNLOCKED 256

DOUBLE
64
COMBINED
1
0
0

0.002000
RATIO

1
0
TRUE
51149
0
LEFT NOT FITTED RIGHT NOT FITTED 0
NONE
NONE
15600
12
4.427000
51148
TRUE
1 0 8 72 0 0 0 0

15798

#HDR
-1
-1
#GR
µM
%T
2.38419e-05
0.0
2.000000
0.002000
12515
8
37.0353
-1.753078
#DATA
2.000000	 0.585174
2.084000	 0.219110
2.168000	 -0.305844
2.252000	 0.093432
2.336000	 -0.081810
2.420000	 -0.069442
2.504000	 -0.146477
2.588000	 -0.113796
2.672000	 0.058498
2.756000	 0.035026
2.840000	 -0.110031
2.924000	 0.044027
3.008000	 0.045799
3.092000	 -0.009838
3.176000	 -0.001037
3.260000	 -0.028095
3.344000	 0.069590
3.428000	 0.004239
3.512000	 0.033180
3.596000	 -0.007816
3.680000	 -0.199050
3.764000	 0.025611
3.848000	 0.063374
3.932000	 0.064612
4.016000	 0.124582
4.100000	 0.013511
4.184000	 0.136290
4.268000	 0.208510
4.352000	 0.811367
4.436000	 1.995866
4.520000	 4.142383
4.604000	 8.011798
4.688000	 12.7044
4.772000	 17.6865
4.856000	 22.3322
4.940000	 26.1309
5.024000	 29.1694
5.108000	 31.2166
5.192000	 32.9467
5.276000	 34.0535
5.359999	 34.9942
5.444000	 35.4564
5.528000	 35.9229
5.612000	 36.2356
5.696000	 36.5882
5.780000	 36.4793
5.864000	 36.7765
5.948000	 36.7323
6.032000	 36.7697
6.116000	 36.9474
6.200000	 36.6473
6.284000	 36.8652
6.368000	 36.7406
6.452000	 36.5307
6.536000	 36.7462
6.620000	 36.854
6.704000	 36.5003
6.788000	 36.6614
6.872000	 36.682
6.956000	 36.4516
7.040000	 36.3661
7.124000	 36.6606
7.208000	 36.3811
7.292000	 36.0227
7.376000	 36.3248
7.460000	 36.3023
7.544000	 36.1169
7.628000	 36.0652
7.712000	 36.2823
7.796000	 36.3348
7.880000	 36.0701
7.964000	 35.7585
8.048000	 35.9131
8.132000	 36.1014
8.216000	 36.154
8.300000	 35.7701
8.384000	 35.5068
8.468000	 35.656
8.552000	 36.0528
8.635999	 35.892
8.719999	 35.4922
8.804000	 35.1601
8.888000	 35.4138
8.972000	 35.6635
9.056000	 35.6792
9.140000	 35.4881
9.224000	 35.2178
9.308000	 35.0498
9.391999	 34.9661
9.475999	 35.3777
9.560000	 35.6384
9.644000	 35.3214
9.728000	 34.855
9.812000	 34.7806
9.896000	 34.6271
9.980000	 34.571
10.064	34.8351
10.148	35.1992
10.232	35.1493
10.316	34.6438
10.4	34.346
10.484	34.0781
10.568	34.1793
10.652	34.3076
10.736	34.485
10.82	34.4842
10.904	34.568
10.988	34.3006
11.072	33.8167
11.156	33.5471
11.24	33.388
11.324	33.5075
11.408	33.6549
11.492	33.9474
11.576	34.3147
11.66	34.085
11.744	33.6488
11.828	33.2168
11.912	33.0895
11.996	32.8846
12.08	32.7843
12.164	33.1169
12.248	33.3603
12.332	33.2763
12.416	33.2648
12.5	33.1584
12.584	32.9112
12.668	32.6126
12.752	32.2689
12.836	32.109
12.92	32.0647
13.004	31.9905
13.088	32.0566
13.172	32.1656
13.256	32.3052
13.34	32.3746
13.424	32.3422
13.508	32.1912
13.592	31.9914
13.676	31.8768
13.76	31.6385
13.844	31.3171
13.928	31.1284
14.012	30.9712
14.096	30.9016
14.18	31.0468
14.264	31.2466
14.348	31.4376
14.432	31.5852
14.516	31.5627
14.6	31.4305
14.684	31.3132
14.768	31.2252
14.852	30.9886
14.936	30.631
15.02	30.4228
15.104	30.2528
15.188	29.9544
15.272	29.7429
15.356	29.727
15.44	29.7472
15.524	29.7721
15.608	29.9249
15.692	30.1446
15.776	30.2318
15.86	30.1792
15.944	30.1089
16.028	30.0525
16.112	29.9388
16.196	29.7208
16.28	29.4482
16.364	29.1906
16.448	29.0111
16.532	28.9923
16.616	29.0202
16.7	28.8426
16.784	28.4952
16.868	28.2296
16.952	28.1761
17.036	28.3549
17.12	28.7033
17.204	28.9771
17.288	28.9742
17.372	28.7774
17.456	28.5661
17.54	28.3851
17.624	28.212
17.708	28.0789
17.792	28.0259
17.876	28.0325
17.96	28.0446
18.044	28.0272
18.128	27.966
18.212	27.8167
18.296	27.516
18.38	27.0974
18.464	26.7251
18.548	26.5482
18.632	26.5529
18.716	26.6131
18.8	26.6571
18.884	26.7078
18.968	26.7731
19.052	26.786
19.136	26.7086
19.22	26.6219
19.304	26.6491
19.388	26.8006
19.472	26.9608
19.556	27.0236
19.64	27.0129
19.724	27.0442
19.808	27.1864
19.892	27.3896
19.976	27.5194
20.06	27.4611
20.144	27.1971
20.228	26.8092
20.312	26.4155
20.396	26.1069
20.48	25.9283
20.564	25.887
20.648	25.9588
20.732	26.0655
20.816	26.0775
20.9	25.8832
20.984	25.4953
21.068	25.0681
21.152	24.7994
21.236	24.7857
21.32	24.9703
21.404	25.2118
21.488	25.3944
21.572	25.4787
21.656	25.4638
21.74	25.3451
21.824	25.1267
21.908	24.8608
21.992	24.6381
22.076	24.525
22.16	24.5003
22.244	24.4539
22.328	24.2718
22.412	23.9284
22.496	23.5221
22.58	23.2121
22.664	23.1256
22.748	23.2876
22.832	23.6221
22.916	23.9874
23	24.2375
23.084	24.2702
23.168	24.0469
23.252	23.6115
23.336	23.0814
23.42	22.5823
23.504	22.2155
23.588	21.9951
23.672	21.8459
23.756	21.6497
23.84	21.3317
23.924	20.8791
24.008	20.3405
24.092	19.7872
24.176	19.2384
24.26	18.6757
24.344	18.06
24.428	17.3842
24.512	16.7357
24.596	16.2942
24.68	16.2589
24.764	16.7433
24.848	17.7534
24.932	19.2166
25.016	20.9955
25.1	22.9107
25.184	24.6996
25.268	26.0301
25.352	26.5327
25.436	25.968
25.52	24.3096
25.604	21.6976
25.688	18.4319
25.772	14.8823
25.856	11.374
25.94	8.041557
26.024	4.902986
26.108	2.005415
26.192	-0.343952
26.276	-1.554681
26.36	-0.799322
26.444	2.287745
26.528	7.335010
26.612	13.2331
26.696	18.6512
26.78	22.5643
26.864	24.5787
26.948	24.7368
27.028	23.175