Folder: Masteroppgave/Bakgrunnsmateriale/MATLAB/FTIR/ftir_data/LPE453/Mapping_121 (part 21)

File: LPE453_t44.asc
PE IR       SPECTRUM    SPECTRUM    ASCII       PEDS        1.60
  -1
LPD3A9~1.ASC
17/05/16
17:54:43.00
17/05/16
17:55:09.00
tln
$LPE453_t0044$<tbV0>[-13.0,-5.2,8.0,0.0,27,1,0]
27.028
64

2002,4.07
MIRTGS : RIGHTBACK : INTERNAL 2
MIR : ON : INTERNAL 2
OPTKBR

0.200000
8
8.000000
FILLER
RATIO
SPECTRUM
UNLOCKED 256

DOUBLE
64
COMBINED
1
0
0

0.002000
RATIO

1
0
TRUE
51149
0
LEFT NOT FITTED RIGHT NOT FITTED 0
NONE
NONE
15600
12
4.427000
51148
TRUE
1 0 8 72 0 0 0 0

15798

#HDR
-1
-1
#GR
µM
%T
2.38419e-05
0.0
2.000000
0.002000
12515
8
32.5653
-19.1003
#DATA
2.000000	 -0.017309
2.084000	 -0.113432
2.168000	 0.307369
2.252000	 0.531232
2.336000	 -0.113988
2.420000	 0.031645
2.504000	 -0.057448
2.588000	 0.026344
2.672000	 0.001764
2.756000	 0.155849
2.840000	 -0.187990
2.924000	 0.089628
3.008000	 0.135074
3.092000	 0.106830
3.176000	 -0.015911
3.260000	 0.057314
3.344000	 0.071227
3.428000	 -0.006931
3.512000	 0.047973
3.596000	 0.086562
3.680000	 -0.056574
3.764000	 0.091285
3.848000	 0.049449
3.932000	 -0.059469
4.016000	 -0.013399
4.100000	 0.120491
4.184000	 -0.011489
4.268000	 0.049945
4.352000	 0.297947
4.436000	 0.892131
4.520000	 2.226500
4.604000	 4.631319
4.688000	 8.115722
4.772000	 11.9272
4.856000	 15.7148
4.940000	 19.1979
5.024000	 22.1553
5.108000	 24.2563
5.192000	 26.0208
5.276000	 27.446
5.359999	 28.2705
5.444000	 29.2287
5.528000	 29.6884
5.612000	 30.3211
5.696000	 30.642
5.780000	 30.9522
5.864000	 31.1078
5.948000	 31.5433
6.032000	 31.5336
6.116000	 31.8414
6.200000	 31.6633
6.284000	 32.0223
6.368000	 32.0167
6.452000	 32.1059
6.536000	 32.3473
6.620000	 32.0708
6.704000	 32.1419
6.788000	 32.2306
6.872000	 31.9629
6.956000	 32.2836
7.040000	 32.3973
7.124000	 32.1035
7.208000	 32.124
7.292000	 32.4315
7.376000	 31.9724
7.460000	 31.8767
7.544000	 32.1808
7.628000	 32.2092
7.712000	 31.6923
7.796000	 31.7697
7.880000	 32.0467
7.964000	 31.7914
8.048000	 31.4334
8.132000	 31.5673
8.216000	 31.7856
8.300000	 31.5197
8.384000	 31.1629
8.468000	 31.1941
8.552000	 31.4413
8.635999	 31.376
8.719999	 31.0904
8.804000	 30.6397
8.888000	 30.6513
8.972000	 30.8132
9.056000	 31.092
9.140000	 30.8423
9.224000	 30.1928
9.308000	 30.1239
9.391999	 30.3371
9.475999	 30.5583
9.560000	 30.4514
9.644000	 30.0714
9.728000	 29.9093
9.812000	 29.6865
9.896000	 29.8985
9.980000	 29.9026
10.064	29.9312
10.148	29.385
10.232	29.0718
10.316	28.9137
10.4	29.0311
10.484	29.1713
10.568	29.2872
10.652	29.2028
10.736	28.7638
10.82	28.5317
10.904	28.242
10.988	28.2646
11.072	28.5621
11.156	28.5012
11.24	28.4838
11.324	28.415
11.408	27.902
11.492	27.6165
11.576	27.61
11.66	27.6883
11.744	27.7418
11.828	27.8797
11.912	27.9666
11.996	27.8997
12.08	27.5729
12.164	27.2862
12.248	26.8682
12.332	26.43
12.416	26.292
12.5	26.5569
12.584	26.7712
12.668	26.8501
12.752	26.7646
12.836	26.7394
12.92	26.5655
13.004	26.267
13.088	25.9275
13.172	25.9228
13.256	26.1169
13.34	26.2006
13.424	26.1027
13.508	25.8471
13.592	25.6896
13.676	25.8747
13.76	25.8356
13.844	25.7428
13.928	25.7702
14.012	25.4432
14.096	24.9859
14.18	24.83
14.264	24.9342
14.348	24.9695
14.432	24.9168
14.516	24.9658
14.6	25.1413
14.684	25.2108
14.768	25.0682
14.852	24.879
14.936	24.7194
15.02	24.6123
15.104	24.4904
15.188	24.191
15.272	23.84
15.356	23.7196
15.44	23.8004
15.524	23.8398
15.608	23.8101
15.692	23.8545
15.776	23.9371
15.86	24.0175
15.944	24.163
16.028	24.2437
16.112	24.1109
16.196	23.8885
16.28	23.6792
16.364	23.4365
16.448	23.2346
16.532	23.2134
16.616	23.2752
16.7	23.1828
16.784	22.9249
16.868	22.7307
16.952	22.7085
17.036	22.7102
17.12	22.6012
17.204	22.4687
17.288	22.4926
17.372	22.7298
17.456	23.0532
17.54	23.2626
17.624	23.287
17.708	23.221
17.792	23.1261
17.876	22.9236
17.96	22.5861
18.044	22.2713
18.128	22.1233
18.212	22.0666
18.296	21.9453
18.38	21.7638
18.464	21.6516
18.548	21.6428
18.632	21.6339
18.716	21.5361
18.8	21.3943
18.884	21.3378
18.968	21.433
19.052	21.6109
19.136	21.7589
19.22	21.8421
19.304	21.9042
19.388	21.9564
19.472	21.9294
19.556	21.7602
19.64	21.4905
19.724	21.2272
19.808	21.0465
19.892	20.9706
19.976	20.9977
20.06	21.1036
20.144	21.2114
20.228	21.2003
20.312	20.9819
20.396	20.575
20.48	20.1006
20.564	19.7069
20.648	19.5021
20.732	19.5163
20.816	19.6926
20.9	19.9131
20.984	20.0605
21.068	20.0793
21.152	19.9929
21.236	19.8732
21.32	19.7892
21.404	19.7758
21.488	19.8301
21.572	19.9231
21.656	20.0092
21.74	20.0357
21.824	19.974
21.908	19.8476
21.992	19.7178
22.076	19.6437
22.16	19.6423
22.244	19.6783
22.328	19.7017
22.412	19.6822
22.496	19.6353
22.58	19.6061
22.664	19.6357
22.748	19.7287
22.832	19.8386
22.916	19.8794
23	19.7653
23.084	19.4354
23.168	18.8881
23.252	18.1951
23.336	17.4812
23.42	16.8802
23.504	16.5079
23.588	16.4221
23.672	16.6226
23.756	17.0671
23.84	17.6693
23.924	18.3293
24.008	18.9659
24.092	19.5178
24.176	19.9175
24.26	20.1131
24.344	20.016
24.428	19.5194
24.512	18.5931
24.596	17.2836
24.68	15.741
24.764	14.2179
24.848	12.9973
24.932	12.3173
25.016	12.3005
25.1	13.0296
25.184	14.4716
25.268	16.4764
25.352	18.833
25.436	21.3262
25.52	23.7424
25.604	25.8369
25.688	27.2312
25.772	27.4639
25.856	26.1204
25.94	23.0097
26.024	18.207
26.108	12.0739
26.192	5.095220
26.276	-2.135280
26.36	-8.952682
26.444	-14.5996
26.528	-18.2051
26.612	-18.9684
26.696	-16.0983
26.78	-9.016719
26.864	2.058597
26.948	15.8951
27.028	29.543

File: LPE453_t44_cm-1.asc
PE IR       SPECTRUM    SPECTRUM    ASCII       PEDS        1.60
  -1
LP695B~1.ASC
17/05/16
17:54:43.00
17/05/16
17:54:43.00
tln
$LPE453_t0044$<tbV0>[-13.0,-5.2,8.0,0.0,27,1,0]
370
64

2002,4.07
MIRTGS : RIGHTBACK : INTERNAL 2
MIR : ON : INTERNAL 2
OPTKBR

0.200000
8
8.000000
FILLER
RATIO
SPECTRUM
UNLOCKED 256

DOUBLE
64
COMBINED
1
0
0

1.000000
RATIO

1
0
TRUE
51149
0
LEFT NOT FITTED RIGHT NOT FITTED 0
NONE
NONE
15600
12
4.427000
51148
TRUE
1 0 8 72 0 0 0 0

15798

#HDR
-1
-1
#GR
CM-1
%T
2.38419e-05
0.0
5000
-1.000000
4631
8
32.5645
-19.0875
#DATA
5000	-0.017309
4984	0.200867
4968	0.181555
4952	-0.035429
4936	0.398325
4920	0.162863
4904	0.052642
4888	0.522327
4872	-0.157403
4856	0.064063
4840	0.203037
4824	0.294494
4808	0.065946
4792	0.146007
4776	0.379920
4760	-0.052428
4744	0.146389
4728	0.240063
4712	0.289940
4696	0.188446
4680	0.290727
4664	0.245523
4648	0.233149
4632	0.322198
4616	0.722765
4600	0.733375
4584	0.198960
4568	0.404262
4552	1.190352
4536	1.251125
4520	-14.9433
4504	2.864670
4488	-0.238633
4472	0.556135
4456	0.352096
4440	0.545811
4424	0.081419
4408	0.263357
4392	0.594615
4376	0.602197
4360	0.078940
4344	0.005364
4328	0.038075
4312	-0.071358
4296	-0.004148
4280	-0.131583
4264	0.204443
4248	-0.177907
4232	0.252413
4216	0.121068
4200	-0.120592
4184	0.063681
4168	0.339031
4152	0.038003
4136	0.064039
4120	0.054502
4104	0.070476
4088	-0.084376
4072	0.061893
4056	0.100946
4040	-0.021433
4024	0.189733
4008	-0.050830
3992	-0.051522
3976	0.112199
3960	0.131893
3944	0.079202
3928	-0.181317
3912	0.152087
3896	-0.035524
3880	0.137543
3864	0.026679
3848	0.006866
3832	0.069522
3816	0.205993
3800	-0.030803
3784	-0.024962
3768	0.030183
3752	-0.037264
3736	0.038242
3720	-0.009608
3704	0.151777
3688	0.040054
3672	0.041556
3656	-0.142121
3640	0.097918
3624	0.153279
3608	-0.065875
3592	0.063228
3576	0.190496
3560	-0.022697
3544	0.073957
3528	0.132775
3512	-0.039196
3496	0.101757
3480	0.047922
3464	0.262522
3448	0.182628
3432	-0.046467
3416	0.117683
3400	0.241661
3384	0.022006
3368	0.162506
3352	0.001502
3336	0.107860
3320	-0.009632
3304	-0.046849
3288	0.067591
3272	-0.018191
3256	0.074911
3240	0.116491
3224	0.009727
3208	0.103044
3192	-0.059938
3176	-0.051689
3160	-0.064158
3144	0.062870
3128	-0.022315
3112	-0.010633
3096	0.112748
3080	0.165724
3064	0.084280
3048	-0.070905
3032	0.052905
3016	0.094246
3000	0.113224
2984	0.114512
2968	0.107264
2952	-0.076389
2936	0.025153
2920	-0.043129
2904	0.221753
2888	-0.016498
2872	0.084447
2856	0.157475
2840	0.017738
2824	0.153112
2808	0.048041
2792	0.067710
2776	0.010871
2760	0.155997
2744	-0.026655
2728	-0.055480
2712	0.021553
2696	0.089788
2680	-0.051927
2664	0.102424
2648	-0.044488
2632	0.102663
2616	0.056195
2600	0.030422
2584	0.132846
2568	0.054621
2552	-0.021314
2536	-0.024724
2520	0.027370
2504	-0.001549
2488	-0.004577
2472	0.084996
2456	-0.004243
2440	0.119590
2424	0.373291
2408	0.097799
2392	0.008463
2376	0.064253
2360	0.112557
2344	0.065135
2328	0.168800
2312	0.175619
2296	0.299882
2280	0.426030
2264	0.814032
2248	1.012277
2232	1.529431
2216	2.166056
2200	2.794599
2184	3.794741
2168	5.032825
2152	6.284379
2136	7.777929
2120	9.370183
2104	11.0926
2088	12.782
2072	14.3572
2056	16.0691
2040	17.8641
2024	19.2221
2008	20.6287
1992	22.0269
1976	23.0507
1960	24.0789
1944	25.1081
1928	25.9256
1912	26.5587
1896	27.4224
1880	27.9467
1864	28.3287
1848	29.0157
1832	29.2758
1816	29.5582
1800	29.94
1784	30.3005
1768	30.4379
1752	30.8136
1736	30.9798
1720	30.9996
1704	31.1166
1688	31.5129
1672	31.3239
1656	31.586
1640	31.8363
1624	31.7799
1608	31.6969
1592	32.017
1576	32.0337
1560	31.9979
1544	32.2576
1528	32.3227
1512	32.0858
1496	32.1027
1480	32.34
1464	32.1206
1448	32.0375
1432	32.4915
1416	32.3093
1400	32.0981
1384	32.2461
1368	32.2752
1352	31.8674
1336	31.9954
1320	32.2706
1304	31.9634
1288	31.7299
1272	32.0249
1256	31.797
1240	31.3647
1224	31.5913
1208	31.6121
1192	31.1448
1176	31.3066
1160	31.4356
1144	30.9781
1128	30.651
1112	30.9072
1096	30.9454
1080	29.9549
1064	30.3794
1048	30.4852
1032	29.9641
1016	29.7026
1000	29.948
984	 29.3227
968	 28.9262
952	 29.164
936	 29.0188
920	 28.3555
904	 28.5404
888	 28.4919
872	 27.6439
856	 27.6933
840	 27.9564
824	 27.3947
808	 26.2889
792	 26.8377
776	 26.6581
760	 25.8969
744	 26.0625
728	 25.882
712	 25.2486
696	 24.9578
680	 25.1892
664	 24.568
648	 23.7914
632	 23.9766
616	 23.795
600	 23.2466
584	 22.5954
568	 23.2939
552	 22.135
536	 21.6152
520	 21.8502
504	 21.0037
488	 20.0374
472	 19.9431
456	 19.8113
440	 19.7016
424	 16.4201
408	 18.6224
392	 23.4731
376	 -19.0875
370	 29.543

File: LPE453_t45.asc
PE IR       SPECTRUM    SPECTRUM    ASCII       PEDS        1.60
  -1
LPD3AD~1.ASC
17/05/16
18:06:16.00
17/05/16
18:06:42.00
tln
$LPE453_t0045$<tbV0>[13.0,-2.6,8.0,0.0,27,1,0]
27.028
64

2002,4.07
MIRTGS : RIGHTBACK : INTERNAL 2
MIR : ON : INTERNAL 2
OPTKBR

0.200000
8
8.000000
FILLER
RATIO
SPECTRUM
UNLOCKED 256

DOUBLE
64
COMBINED
1
0
0

0.002000
RATIO

1
0
TRUE
51149
0
LEFT NOT FITTED RIGHT NOT FITTED 0
NONE
NONE
15600
12
4.427000
51148
TRUE
1 0 8 72 0 0 0 0

15798

#HDR
-1
-1
#GR
µM
%T
2.38419e-05
0.0
2.000000
0.002000
12515
8
61.9483
-4.511648
#DATA
2.000000	 -0.150012
2.084000	 -0.027536
2.168000	 0.358675
2.252000	 0.322798
2.336000	 0.051261
2.420000	 0.162108
2.504000	 0.152307
2.588000	 -0.045791
2.672000	 0.263765
2.756000	 0.099304
2.840000	 -0.004311
2.924000	 0.037955
3.008000	 0.006759
3.092000	 -0.012954
3.176000	 0.085272
3.260000	 0.139424
3.344000	 0.134694
3.428000	 -0.030994
3.512000	 -0.053013
3.596000	 0.110056
3.680000	 -0.049418
3.764000	 0.005133
3.848000	 0.076513
3.932000	 -0.114147
4.016000	 0.062992
4.100000	 0.125699
4.184000	 0.016937
4.268000	 -0.036410
4.352000	 0.061807
4.436000	 0.259769
4.520000	 0.903129
4.604000	 2.300269
4.688000	 4.475843
4.772000	 7.553319
4.856000	 10.6924
4.940000	 13.5822
5.024000	 16.0374
5.108000	 18.138
5.192000	 19.7026
5.276000	 20.8859
5.359999	 21.9581
5.444000	 22.7327
5.528000	 23.3022
5.612000	 23.7505
5.696000	 24.0789
5.780000	 24.3778
5.864000	 24.5477
5.948000	 24.8165
6.032000	 24.9903
6.116000	 24.9982
6.200000	 25.2264
6.284000	 25.0053
6.368000	 25.1477
6.452000	 25.1142
6.536000	 25.2812
6.620000	 25.2319
6.704000	 25.4321
6.788000	 25.2704
6.872000	 25.2452
6.956000	 25.2676
7.040000	 25.1222
7.124000	 25.3309
7.208000	 25.061
7.292000	 25.0055
7.376000	 25.3333
7.460000	 25.0251
7.544000	 25.0372
7.628000	 25.1792
7.712000	 24.822
7.796000	 24.9659
7.880000	 25.0748
7.964000	 24.8687
8.048000	 24.7817
8.132000	 24.9254
8.216000	 24.8332
8.300000	 24.5872
8.384000	 24.6508
8.468000	 24.8377
8.552000	 24.5616
8.635999	 24.3806
8.719999	 24.4554
8.804000	 24.4171
8.888000	 24.3161
8.972000	 24.1947
9.056000	 24.3333
9.140000	 24.2258
9.224000	 24.0975
9.308000	 23.8403
9.391999	 23.8728
9.475999	 24.1905
9.560000	 23.9774
9.644000	 23.6845
9.728000	 23.5967
9.812000	 23.4992
9.896000	 23.7111
9.980000	 23.7386
10.064	23.4342
10.148	23.0631
10.232	22.982
10.316	23.1854
10.4	23.1695
10.484	23.1219
10.568	23.0076
10.652	22.638
10.736	22.5804
10.82	22.6409
10.904	22.7665
10.988	22.5674
11.072	22.3223
11.156	22.1079
11.24	22.1259
11.324	22.0177
11.408	22.1592
11.492	22.1902
11.576	21.9978
11.66	21.8282
11.744	21.6539
11.828	21.4889
11.912	21.5384
11.996	21.4182
12.08	21.2721
12.164	21.2923
12.248	21.3555
12.332	21.1401
12.416	20.7815
12.5	20.819
12.584	20.8846
12.668	20.8666
12.752	20.8822
12.836	20.7972
12.92	20.6095
13.004	20.4326
13.088	20.155
13.172	19.8722
13.256	19.886
13.34	19.9323
13.424	20.0403
13.508	20.16
13.592	20.0467
13.676	19.8042
13.76	19.6537
13.844	19.4456
13.928	19.2857
14.012	19.1991
14.096	19.2582
14.18	19.3385
14.264	19.3276
14.348	19.2563
14.432	19.0996
14.516	18.883
14.6	18.6941
14.684	18.5212
14.768	18.4061
14.852	18.3955
14.936	18.3478
15.02	18.3179
15.104	18.5084
15.188	18.7049
15.272	18.6354
15.356	18.4916
15.44	18.4305
15.524	18.2942
15.608	17.9845
15.692	17.5558
15.776	17.1855
15.86	17.0606
15.944	17.0801
16.028	17.0666
16.112	17.1108
16.196	17.262
16.28	17.2988
16.364	17.1298
16.448	16.9898
16.532	17.0449
16.616	17.1238
16.7	17.0297
16.784	16.8385
16.868	16.6814
16.952	16.5568
17.036	16.4708
17.12	16.4594
17.204	16.4283
17.288	16.2635
17.372	16.0706
17.456	16.0513
17.54	16.1848
17.624	16.2392
17.708	16.1126
17.792	15.941
17.876	15.8573
17.96	15.8442
18.044	15.8668
18.128	15.9491
18.212	16.0693
18.296	16.1249
18.38	16.0653
18.464	15.9459
18.548	15.8175
18.632	15.6465
18.716	15.3881
18.8	15.0762
18.884	14.7981
18.968	14.6052
19.052	14.4792
19.136	14.3846
19.22	14.3114
19.304	14.2687
19.388	14.2636
19.472	14.2976
19.556	14.3595
19.64	14.4176
19.724	14.4265
19.808	14.3648
19.892	14.2486
19.976	14.1055
20.06	13.9381
20.144	13.7496
20.228	13.5843
20.312	13.5104
20.396	13.5451
20.48	13.6135
20.564	13.6187
20.648	13.5352
20.732	13.4374
20.816	13.421
20.9	13.5043
20.984	13.6204
21.068	13.6867
21.152	13.6749
21.236	13.6049
21.32	13.4903
21.404	13.3193
21.488	13.1058
21.572	12.9455
21.656	12.9927
21.74	13.3584
21.824	13.9992
21.908	14.6949
21.992	15.1742
22.076	15.2648
22.16	14.968
22.244	14.4432
22.328	13.8851
22.412	13.4463
22.496	13.1942
22.58	13.1164
22.664	13.1541
22.748	13.2335
22.832	13.3046
22.916	13.35
23	13.3943
23.084	13.4685
23.168	13.5579
23.252	13.5848
23.336	13.4334
23.42	12.9941
23.504	12.2446
23.588	11.2815
23.672	10.2779
23.756	9.430560
23.84	8.867659
23.924	8.617859
24.008	8.632545
24.092	8.820640
24.176	9.069102
24.26	9.262396
24.344	9.302158
24.428	9.139912
24.512	8.740532
24.596	8.206822
24.68	7.781701
24.764	7.761791
24.848	8.390681
24.932	9.789089
25.016	11.8635
25.1	14.2897
25.184	16.6854
25.268	18.752
25.352	20.3038
25.436	21.2836
25.52	21.6832
25.604	21.4521
25.688	20.5001
25.772	18.8075
25.856	16.5827
25.94	14.3084
26.024	12.8402
26.108	13.242
26.192	16.3417
26.276	22.4106
26.36	30.9876
26.444	40.8652
26.528	50.3333
26.612	57.7338
26.696	61.6052
26.78	61.0302
26.864	55.8337
26.948	46.6428
27.028	35.5398

File: LPE453_t45_cm-1.asc
PE IR       SPECTRUM    SPECTRUM    ASCII       PEDS        1.60
  -1
LP69DB~1.ASC
17/05/16
18:06:16.00
17/05/16
18:06:16.00
tln
$LPE453_t0045$<tbV0>[13.0,-2.6,8.0,0.0,27,1,0]
370
64

2002,4.07
MIRTGS : RIGHTBACK : INTERNAL 2
MIR : ON : INTERNAL 2
OPTKBR

0.200000
8
8.000000
FILLER
RATIO
SPECTRUM
UNLOCKED 256

DOUBLE
64
COMBINED
1
0
0

1.000000
RATIO

1
0
TRUE
51149
0
LEFT NOT FITTED RIGHT NOT FITTED 0
NONE
NONE
15600
12
4.427000
51148
TRUE
1 0 8 72 0 0 0 0

15798

#HDR
-1
-1
#GR
CM-1
%T
2.38419e-05
0.0
5000
-1.000000
4631
8
61.9129
-4.807329
#DATA
5000	-0.150012
4984	0.618791
4968	0.277256
4952	-0.249886
4936	0.295591
4920	0.006246
4904	-0.044703
4888	0.620794
4872	0.182867
4856	0.086832
4840	-0.165390
4824	0.235557
4808	0.168800
4792	0.052595
4776	-0.121450
4760	0.183653
4744	-0.049757
4728	-0.001454
4712	0.097775
4696	0.112867
4680	-0.017762
4664	0.533652
4648	0.001168
4632	0.509309
4616	0.279426
4600	0.324177
4584	-0.558042
4568	0.175929
4552	-1.012349
4536	-0.957846
4520	12.8867
4504	0.081348
4488	2.292633
4472	-1.043081
4456	-0.450515
4440	0.289821
4424	-0.498223
4408	0.207328
4392	0.316762
4376	-0.137090
4360	0.169277
4344	0.075531
4328	0.006628
4312	-0.022387
4296	-0.085425
4280	0.060796
4264	0.131106
4248	0.248527
4232	-0.136017
4216	0.188136
4200	0.162267
4184	0.327134
4168	0.195527
4152	0.209045
4136	-0.051474
4120	0.395750
4104	0.163507
4088	0.013852
4072	0.016665
4056	0.318217
4040	0.053930
4024	-0.039029
4008	-0.049448
3992	0.102448
3976	0.172328
3960	-0.013613
3944	0.026369
3928	-0.036525
3912	0.075483
3896	0.057172
3880	-0.076484
3864	-0.045919
3848	0.095844
3832	0.424361
3816	0.058770
3800	-0.057792
3784	0.018572
3768	-0.075817
3752	0.146389
3736	0.018429
3720	0.018215
3704	0.095772
3688	0.070190
3672	-0.063371
3656	-0.049233
3640	0.113081
3624	0.061750
3608	0.116252
3592	-0.059461
3576	-0.100946
3560	0.147485
3544	0.110173
3528	0.059747
3512	-0.043439
3496	0.003790
3480	-0.038766
3464	0.213599
3448	0.055742
3432	0.049090
3416	0.087141
3400	-0.049757
3384	-0.130581
3368	0.178360
3352	0.165748
3336	-0.060582
3320	0.007867
3304	0.015473
3288	0.292873
3272	0.074028
3256	-0.079607
3240	-0.020384
3224	0.106191
3208	0.051617
3192	0.064349
3176	0.191664
3160	0.084710
3144	0.074028
3128	0.219869
3112	-0.115203
3096	0.088477
3080	0.019645
3064	0.170755
3048	0.028777
3032	0.145530
3016	0.073242
3000	0.070714
2984	0.053906
2968	0.110483
2952	0.056171
2936	0.177311
2920	-0.039529
2904	-0.142884
2888	0.010967
2872	0.029778
2856	-0.103425
2840	0.008678
2824	0.059652
2808	0.000119
2792	0.006341
2776	0.120663
2760	0.009584
2744	0.133109
2728	0.163364
2712	-0.069904
2696	0.084853
2680	0.029087
2664	0.028324
2648	0.038957
2632	-0.014615
2616	-0.056195
2600	0.081586
2584	-0.015759
2568	0.003027
2552	0.011134
2536	0.011253
2520	0.061035
2504	-0.142550
2488	0.092935
2472	0.067472
2456	0.023221
2440	0.107932
2424	0.078368
2408	-0.147294
2392	0.013279
2376	-0.043392
2360	-0.002098
2344	-0.010752
2328	0.057315
2312	-0.001239
2296	0.046706
2280	0.153970
2264	0.173258
2248	0.310611
2232	0.518870
2216	0.873422
2200	1.326155
2184	1.745200
2168	2.470970
2152	3.208374
2136	4.267144
2120	5.521011
2104	6.799411
2088	8.147931
2072	9.573268
2056	10.9915
2040	12.231
2024	13.6034
2008	14.887
1992	15.9051
1976	17.0288
1960	18.0177
1944	18.8206
1928	19.6079
1912	20.3237
1896	20.8588
1880	21.5828
1864	22.0062
1848	22.4212
1832	22.8707
1816	23.2023
1800	23.4782
1784	23.7423
1768	23.9574
1752	24.1109
1736	24.2079
1720	24.5528
1704	24.543
1688	24.78
1672	24.8167
1656	24.9982
1640	24.9006
1624	25.1751
1608	25.1493
1592	24.9991
1576	25.0913
1560	25.1546
1544	25.124
1528	25.2585
1512	25.2099
1496	25.3226
1480	25.3025
1464	25.1841
1448	25.2599
1432	25.1727
1416	25.2027
1400	25.3556
1384	25.0748
1368	25.1029
1352	25.21
1336	25.0129
1320	25.136
1304	25.0795
1288	24.826
1272	25.0384
1256	24.8768
1240	24.8267
1224	24.8829
1208	24.5917
1192	24.6675
1176	24.731
1160	24.3795
1144	24.496
1128	24.4127
1112	24.2573
1096	24.2538
1080	23.9337
1064	23.8902
1048	24.0714
1032	23.6001
1016	23.56
1000	23.68
984	 22.9909
968	 23.1924
952	 23.154
936	 22.5918
920	 22.7429
904	 22.35
888	 22.1066
872	 22.2143
856	 21.7988
840	 21.5385
824	 21.272
808	 20.9236
792	 20.8656
776	 20.6922
760	 19.896
744	 20.0694
728	 19.6996
712	 19.2053
696	 19.2284
680	 18.4807
664	 18.3831
648	 18.4364
632	 17.0842
616	 17.3069
600	 17.0882
584	 16.4595
568	 16.2439
552	 15.9332
536	 15.58
520	 14.304
504	 14.3233
488	 13.6197
472	 13.6517
456	 14.8501
440	 13.2132
424	 11.3185
408	 8.753180
392	 21.668
376	 56.5531
370	 35.5398

File: LPE453_t46.asc
PE IR       SPECTRUM    SPECTRUM    ASCII       PEDS        1.60
  -1
LPD3A1~1.ASC
17/05/16
18:10:53.00
17/05/16
18:11:19.00
tln
$LPE453_t0046$<tbV0>[10.4,-2.6,8.0,0.0,27,1,0]
27.028
64

2002,4.07
MIRTGS : RIGHTBACK : INTERNAL 2
MIR : ON : INTERNAL 2
OPTKBR

0.200000
8
8.000000
FILLER
RATIO
SPECTRUM
UNLOCKED 256

DOUBLE
64
COMBINED
1
0
0

0.002000
RATIO

1
0
TRUE
51149
0
LEFT NOT FITTED RIGHT NOT FITTED 0
NONE
NONE
15600
12
4.427000
51148
TRUE
1 0 8 72 0 0 0 0

15798

#HDR
-1
-1
#GR
µM
%T
2.38419e-05
0.0
2.000000
0.002000
12515
8
23.1146
-7.726876
#DATA
2.000000	 -0.082921
2.084000	 0.293139
2.168000	 -0.407459
2.252000	 -0.353352
2.336000	 0.009364
2.420000	 -0.152925
2.504000	 0.058221
2.588000	 0.001326
2.672000	 0.053439
2.756000	 0.132090
2.840000	 0.136783
2.924000	 0.081463
3.008000	 0.164395
3.092000	 -0.032446
3.176000	 0.102260
3.260000	 -0.021138
3.344000	 0.139570
3.428000	 0.124145
3.512000	 -0.118606
3.596000	 -0.093680
3.680000	 0.051648
3.764000	 0.031543
3.848000	 0.026597
3.932000	 0.098249
4.016000	 -0.080150
4.100000	 0.121295
4.184000	 -0.079607
4.268000	 0.139855
4.352000	 0.003101
4.436000	 -0.079589
4.520000	 0.560493
4.604000	 1.516027
4.688000	 3.233720
4.772000	 5.783889
4.856000	 8.785767
4.940000	 11.662
5.024000	 14.3408
5.108000	 16.4309
5.192000	 18.1582
5.276000	 19.4783
5.359999	 20.3697
5.444000	 21.183
5.528000	 21.659
5.612000	 22.184
5.696000	 22.3226
5.780000	 22.6199
5.864000	 22.7686
5.948000	 22.7768
6.032000	 22.9077
6.116000	 23.092
6.200000	 22.9236
6.284000	 23.0002
6.368000	 23.0587
6.452000	 22.9753
6.536000	 22.865
6.620000	 23.021
6.704000	 22.8529
6.788000	 22.8432
6.872000	 22.6861
6.956000	 22.767
7.040000	 22.714
7.124000	 22.8127
7.208000	 22.4549
7.292000	 22.5706
7.376000	 22.5395
7.460000	 22.3237
7.544000	 22.4152
7.628000	 22.2967
7.712000	 22.2206
7.796000	 22.307
7.880000	 22.2039
7.964000	 22.1051
8.048000	 22.1914
8.132000	 22.0713
8.216000	 21.8898
8.300000	 22.0149
8.384000	 21.9045
8.468000	 21.8753
8.552000	 21.876
8.635999	 21.7438
8.719999	 21.7347
8.804000	 21.5886
8.888000	 21.5316
8.972000	 21.3536
9.056000	 21.2441
9.140000	 21.1738
9.224000	 21.093
9.308000	 21.161
9.391999	 21.1317
9.475999	 20.9737
9.560000	 20.8094
9.644000	 20.8631
9.728000	 20.7161
9.812000	 20.7345
9.896000	 20.3447
9.980000	 20.4847
10.064	20.2879
10.148	20.2941
10.232	20.0227
10.316	20.18
10.4	19.9757
10.484	19.9513
10.568	19.9052
10.652	19.9049
10.736	19.7665
10.82	19.5935
10.904	19.4366
10.988	19.406
11.072	19.1536
11.156	19.2426
11.24	19.1998
11.324	19.1713
11.408	18.9531
11.492	18.8282
11.576	18.6905
11.66	18.5645
11.744	18.486
11.828	18.3281
11.912	18.2359
11.996	18.1621
12.08	18.115
12.164	18.0669
12.248	17.8812
12.332	17.7579
12.416	17.6695
12.5	17.6246
12.584	17.7584
12.668	17.7186
12.752	17.4497
12.836	17.2721
12.92	17.274
13.004	17.2307
13.088	17.0394
13.172	16.8374
13.256	16.8008
13.34	16.7346
13.424	16.6549
13.508	16.7719
13.592	16.8936
13.676	16.8966
13.76	16.6978
13.844	16.3776
13.928	16.1475
14.012	16.023
14.096	15.8996
14.18	15.8748
14.264	15.9206
14.348	15.9026
14.432	15.745
14.516	15.5397
14.6	15.4465
14.684	15.3592
14.768	15.1829
14.852	15.082
14.936	15.0887
15.02	14.9868
15.104	14.7647
15.188	14.6291
15.272	14.5969
15.356	14.6109
15.44	14.6345
15.524	14.5533
15.608	14.3575
15.692	14.1606
15.776	14.0674
15.86	14.1202
15.944	14.2045
16.028	14.1486
16.112	13.9827
16.196	13.835
16.28	13.6769
16.364	13.4392
16.448	13.2145
16.532	13.1116
16.616	13.0962
16.7	13.0944
16.784	13.0927
16.868	13.0918
16.952	13.0874
17.036	13.1132
17.12	13.1905
17.204	13.2291
17.288	13.0949
17.372	12.7956
17.456	12.5137
17.54	12.4203
17.624	12.5008
17.708	12.5953
17.792	12.5745
17.876	12.4425
17.96	12.2958
18.044	12.2339
18.128	12.3074
18.212	12.4712
18.296	12.598
18.38	12.5991
18.464	12.5259
18.548	12.4997
18.632	12.5416
18.716	12.5455
18.8	12.41
18.884	12.1407
18.968	11.8209
19.052	11.5524
19.136	11.4193
19.22	11.4643
19.304	11.6584
19.388	11.8923
19.472	12.0345
19.556	12.014
19.64	11.856
19.724	11.6236
19.808	11.3581
19.892	11.0734
19.976	10.7965
20.06	10.5729
20.144	10.4304
20.228	10.3496
20.312	10.3026
20.396	10.2993
20.48	10.3899
20.564	10.6106
20.648	10.9388
20.732	11.2982
20.816	11.6043
20.9	11.8034
20.984	11.878
21.068	11.8391
21.152	11.7095
21.236	11.5025
21.32	11.1971
21.404	10.7546
21.488	10.1691
21.572	9.525871
21.656	8.996627
21.74	8.748830
21.824	8.840575
21.908	9.168240
21.992	9.540359
22.076	9.801038
22.16	9.892217
22.244	9.842008
22.328	9.684775
22.412	9.429428
22.496	9.087318
22.58	8.721676
22.664	8.459927
22.748	8.433657
22.832	8.661334
22.916	9.027586
23	9.313449
23.084	9.316827
23.168	8.944604
23.252	8.259087
23.336	7.428513
23.42	6.647036
23.504	6.053462
23.588	5.703881
23.672	5.581077
23.756	5.602317
23.84	5.699773
23.924	5.853829
24.008	6.105912
24.092	6.549568
24.176	7.288349
24.26	8.340564
24.344	9.576526
24.428	10.7335
24.512	11.4476
24.596	11.4413
24.68	10.6265
24.764	9.154801
24.848	7.361116
24.932	5.616274
25.016	4.132836
25.1	2.900991
25.184	1.676756
25.268	0.156263
25.352	-1.815235
25.436	-4.076753
25.52	-6.156977
25.604	-7.491760
25.688	-7.609044
25.772	-6.386230
25.856	-4.110637
25.94	-1.348583
26.024	1.236028
26.108	3.130300
26.192	4.184336
26.276	4.573435
26.36	4.643348
26.444	4.732401
26.528	5.042800
26.612	5.671526
26.696	6.601317
26.78	7.745015
26.864	9.015180
26.948	10.351
27.028	11.6733