Folder: Masteroppgave/Bakgrunnsmateriale/MATLAB/FTIR/ftir_data/LPE453/Mapping_121 (part 13)

File: LPE453_t24.asc
PE IR       SPECTRUM    SPECTRUM    ASCII       PEDS        1.60
  -1
LPDB99~1.ASC
17/05/16
16:21:52.00
17/05/16
16:22:19.00
tln
$LPE453_t0024$<tbV0>[10.4,-7.8,8.0,0.0,27,1,0]
27.028
64

2002,4.07
MIRTGS : RIGHTBACK : INTERNAL 2
MIR : ON : INTERNAL 2
OPTKBR

0.200000
8
8.000000
FILLER
RATIO
SPECTRUM
UNLOCKED 256

DOUBLE
64
COMBINED
1
0
0

0.002000
RATIO

1
0
TRUE
51149
0
LEFT NOT FITTED RIGHT NOT FITTED 0
NONE
NONE
15600
12
4.427000
51148
TRUE
1 0 8 72 0 0 0 0

15798

#HDR
-1
-1
#GR
µM
%T
2.38419e-05
0.0
2.000000
0.002000
12515
8
39.1874
-2.198343
#DATA
2.000000	 -0.007224
2.084000	 0.218422
2.168000	 0.320125
2.252000	 -0.850886
2.336000	 0.003109
2.420000	 0.261530
2.504000	 0.116379
2.588000	 0.112908
2.672000	 0.070145
2.756000	 0.032544
2.840000	 0.280433
2.924000	 -0.034284
3.008000	 0.137691
3.092000	 0.038805
3.176000	 0.065955
3.260000	 -0.006723
3.344000	 0.185644
3.428000	 0.141864
3.512000	 0.123670
3.596000	 0.070167
3.680000	 0.088948
3.764000	 0.150224
3.848000	 -0.013009
3.932000	 0.018860
4.016000	 0.099375
4.100000	 -0.148754
4.184000	 -0.046755
4.268000	 -0.149907
4.352000	 0.124549
4.436000	 0.426977
4.520000	 1.334029
4.604000	 2.889319
4.688000	 5.688248
4.772000	 9.449613
4.856000	 12.92
4.940000	 16.3556
5.024000	 19.4047
5.108000	 21.6211
5.192000	 23.4627
5.276000	 24.861
5.359999	 25.9254
5.444000	 26.6369
5.528000	 27.2487
5.612000	 27.6276
5.696000	 27.8421
5.780000	 28.1246
5.864000	 28.4082
5.948000	 28.3666
6.032000	 28.484
6.116000	 28.5521
6.200000	 28.5714
6.284000	 28.5108
6.368000	 28.6119
6.452000	 28.6136
6.536000	 28.4895
6.620000	 28.4549
6.704000	 28.4335
6.788000	 28.4201
6.872000	 28.3897
6.956000	 28.3674
7.040000	 28.3935
7.124000	 28.2604
7.208000	 28.2331
7.292000	 28.2646
7.376000	 28.1346
7.460000	 28.1729
7.544000	 28.1057
7.628000	 28.1478
7.712000	 27.9879
7.796000	 27.9781
7.880000	 27.8524
7.964000	 27.7989
8.048000	 27.6724
8.132000	 27.875
8.216000	 27.7076
8.300000	 27.6044
8.384000	 27.6042
8.468000	 27.615
8.552000	 27.7367
8.635999	 27.4157
8.719999	 27.4081
8.804000	 27.4113
8.888000	 27.2237
8.972000	 27.0716
9.056000	 27.1997
9.140000	 26.8984
9.224000	 26.7897
9.308000	 26.8397
9.391999	 26.6644
9.475999	 26.765
9.560000	 26.8752
9.644000	 26.7888
9.728000	 26.5832
9.812000	 26.7469
9.896000	 26.5906
9.980000	 26.461
10.064	26.3808
10.148	26.3041
10.232	26.1294
10.316	25.9985
10.4	25.9885
10.484	26.0872
10.568	25.9363
10.652	25.8746
10.736	25.5702
10.82	25.4693
10.904	25.4879
10.988	25.2143
11.072	25.2104
11.156	25.3049
11.24	25.0477
11.324	24.8232
11.408	24.7761
11.492	24.9392
11.576	24.7941
11.66	24.6146
11.744	24.6223
11.828	24.5236
11.912	24.4698
11.996	24.4695
12.08	24.2898
12.164	23.9801
12.248	23.9712
12.332	23.7714
12.416	23.8298
12.5	23.8932
12.584	23.5652
12.668	23.4301
12.752	23.2408
12.836	23.2205
12.92	23.3281
13.004	23.2457
13.088	23.312
13.172	23.4537
13.256	23.4992
13.34	23.5573
13.424	23.4184
13.508	23.2615
13.592	23.0407
13.676	22.8678
13.76	22.6587
13.844	22.4112
13.928	22.3369
14.012	22.3492
14.096	22.2873
14.18	22.0593
14.264	21.8427
14.348	21.9492
14.432	22.1788
14.516	22.245
14.6	22.0921
14.684	21.8128
14.768	21.6576
14.852	21.678
14.936	21.741
15.02	21.6845
15.104	21.2736
15.188	20.7199
15.272	20.6096
15.356	20.8564
15.44	20.9461
15.524	20.8817
15.608	20.8513
15.692	20.7771
15.776	20.6643
15.86	20.6179
15.944	20.5505
16.028	20.3969
16.112	20.228
16.196	20.0781
16.28	19.9862
16.364	19.9913
16.448	20.0209
16.532	19.9736
16.616	19.8502
16.7	19.7422
16.784	19.7121
16.868	19.6989
16.952	19.6263
17.036	19.4793
17.12	19.2233
17.204	18.8502
17.288	18.509
17.372	18.3676
17.456	18.4101
17.54	18.5266
17.624	18.6647
17.708	18.7937
17.792	18.8479
17.876	18.7711
17.96	18.5768
18.044	18.3329
18.128	18.1252
18.212	18.0177
18.296	18.0087
18.38	18.0136
18.464	17.9226
18.548	17.7179
18.632	17.5339
18.716	17.5388
18.8	17.7468
18.884	17.9788
18.968	18.0276
19.052	17.8479
19.136	17.5667
19.22	17.3626
19.304	17.3395
19.388	17.4791
19.472	17.653
19.556	17.7019
19.64	17.5482
19.724	17.2567
19.808	16.965
19.892	16.7536
19.976	16.5994
20.06	16.4584
20.144	16.364
20.228	16.412
20.312	16.6493
20.396	17.0012
20.48	17.3129
20.564	17.4612
20.648	17.4182
20.732	17.2327
20.816	16.97
20.9	16.6824
20.984	16.4054
21.068	16.1735
21.152	16.0098
21.236	15.9075
21.32	15.8264
21.404	15.7107
21.488	15.5323
21.572	15.3081
21.656	15.0876
21.74	14.9218
21.824	14.8467
21.908	14.8793
21.992	15.024
22.076	15.2718
22.16	15.5876
22.244	15.9214
22.328	16.2058
22.412	16.3618
22.496	16.3287
22.58	16.0983
22.664	15.7225
22.748	15.3031
22.832	14.9446
22.916	14.7306
23	14.6705
23.084	14.7441
23.168	14.8977
23.252	15.0453
23.336	15.075
23.42	14.854
23.504	14.2783
23.588	13.3632
23.672	12.2751
23.756	11.3075
23.84	10.7394
23.924	10.6872
24.008	11.0376
24.092	11.5081
24.176	11.8214
24.26	11.9067
24.344	12.0019
24.428	12.5329
24.512	13.891
24.596	16.1849
24.68	19.1539
24.764	22.2342
24.848	24.8159
24.932	26.4115
25.016	26.8705
25.1	26.3711
25.184	25.3227
25.268	24.1715
25.352	23.248
25.436	22.6506
25.52	22.2467
25.604	21.8244
25.688	21.2416
25.772	20.5645
25.856	20.0776
25.94	20.2138
26.024	21.4017
26.108	23.8304
26.192	27.3438
26.276	31.4222
26.36	35.2825
26.444	38.082
26.528	39.1845
26.612	38.312
26.696	35.6547
26.78	31.8518
26.864	27.8178
26.948	24.4947
27.028	22.7205

File: LPE453_t24_cm-1.asc
PE IR       SPECTRUM    SPECTRUM    ASCII       PEDS        1.60
  -1
LP685B~1.ASC
17/05/16
16:21:52.00
17/05/16
16:21:52.00
tln
$LPE453_t0024$<tbV0>[10.4,-7.8,8.0,0.0,27,1,0]
370
64

2002,4.07
MIRTGS : RIGHTBACK : INTERNAL 2
MIR : ON : INTERNAL 2
OPTKBR

0.200000
8
8.000000
FILLER
RATIO
SPECTRUM
UNLOCKED 256

DOUBLE
64
COMBINED
1
0
0

1.000000
RATIO

1
0
TRUE
51149
0
LEFT NOT FITTED RIGHT NOT FITTED 0
NONE
NONE
15600
12
4.427000
51148
TRUE
1 0 8 72 0 0 0 0

15798

#HDR
-1
-1
#GR
CM-1
%T
2.38419e-05
0.0
5000
-1.000000
4631
8
39.1796
-2.231478
#DATA
5000	-0.007224
4984	-0.046443
4968	-0.161051
4952	0.513744
4936	-0.026535
4920	-0.196003
4904	0.088882
4888	0.164008
4872	0.201296
4856	0.225067
4840	0.309038
4824	0.402450
4808	0.119948
4792	-0.052547
4776	0.044512
4760	0.034141
4744	-0.253081
4728	0.008273
4712	0.382256
4696	0.429606
4680	0.721645
4664	0.601911
4648	0.032734
4632	1.199555
4616	0.157046
4600	0.532269
4584	1.503586
4568	-0.311255
4552	-0.010514
4536	-0.858783
4520	3.004765
4504	5.399465
4488	-2.231478
4472	-0.190067
4456	0.037407
4440	-0.865769
4424	0.289964
4408	-0.149488
4392	0.538086
4376	-0.132369
4360	0.312805
4344	0.437092
4328	0.077629
4312	0.210356
4296	0.101351
4280	0.033521
4264	0.375342
4248	0.006103
4232	0.242447
4216	0.022172
4200	0.373864
4184	0.579500
4168	-0.630712
4152	0.227856
4136	0.266098
4120	0.292396
4104	0.165438
4088	0.087785
4072	-0.190711
4056	0.069284
4040	0.014472
4024	-0.102877
4008	0.185751
3992	0.041651
3976	0.131630
3960	0.132775
3944	0.111818
3928	0.104260
3912	0.026535
3896	-0.015306
3880	-0.024223
3864	0.113010
3848	-0.011181
3832	-0.083398
3816	0.273418
3800	0.075769
3784	0.218009
3768	-0.038504
3752	0.121927
3736	0.116515
3720	-0.181293
3704	0.094985
3688	0.083661
3672	0.078964
3656	0.091433
3640	0.069522
3624	-0.015974
3608	0.013136
3592	-0.148439
3576	0.033354
3560	0.239062
3544	0.301480
3528	0.099301
3512	0.279712
3496	0.010919
3480	0.095438
3464	0.150156
3448	-0.022363
3432	-0.098395
3416	0.006365
3400	-0.128293
3384	0.117707
3368	0.077533
3352	0.066184
3336	-0.067925
3320	0.187754
3304	0.082206
3288	0.051403
3272	0.028681
3256	0.083088
3240	0.078868
3224	0.047183
3208	0.087833
3192	0.163936
3176	0.015830
3160	-0.074577
3144	0.114989
3128	-0.007724
3112	-0.001978
3096	0.201392
3080	-0.005173
3064	0.046205
3048	0.016951
3032	0.045990
3016	0.038266
3000	0.017452
2984	0.069141
2968	0.065374
2952	0.003719
2936	0.105500
2920	0.167179
2904	-0.066852
2888	0.030088
2872	0.142955
2856	0.187683
2840	0.032496
2824	0.099396
2808	0.091576
2792	-0.074386
2776	0.054955
2760	0.033378
2744	-0.003361
2728	-0.106310
2712	0.073027
2696	0.075578
2680	-0.057244
2664	0.059580
2648	0.108528
2632	0.044894
2616	-0.013327
2600	-0.013685
2584	0.042819
2568	0.032305
2552	0.107192
2536	-0.011038
2520	0.209140
2504	0.272393
2488	0.136494
2472	0.065708
2456	0.002908
2440	-0.143051
2424	0.143718
2408	0.167107
2392	-0.073862
2376	-0.107431
2360	0.081872
2344	-0.151872
2328	0.032877
2312	0.147128
2296	0.149369
2280	0.090551
2264	0.274372
2248	0.531768
2232	0.833630
2216	1.223802
2200	1.650619
2184	2.506804
2168	3.153872
2152	4.401278
2136	5.460572
2120	6.999659
2104	8.522081
2088	10.3611
2072	11.7581
2056	13.2292
2040	14.9928
2024	16.3882
2008	17.9636
1992	19.2874
1976	20.5038
1960	21.4492
1944	22.4209
1928	23.3699
1912	24.0911
1896	24.8443
1880	25.358
1864	25.9539
1848	26.3886
1832	26.7394
1816	27.1996
1800	27.2055
1784	27.6064
1768	27.8485
1752	27.8433
1736	27.989
1720	28.2674
1704	28.4022
1688	28.3506
1672	28.3853
1656	28.4519
1640	28.5496
1624	28.56
1608	28.5792
1592	28.5083
1576	28.5593
1560	28.6111
1544	28.502
1528	28.5112
1512	28.4745
1496	28.4875
1480	28.3669
1464	28.5181
1448	28.3367
1432	28.3408
1416	28.3808
1400	28.2481
1384	28.2065
1368	28.2772
1352	28.1169
1336	28.1503
1320	28.179
1304	28.0706
1288	27.8768
1272	27.8764
1256	27.7954
1240	27.6937
1224	27.7617
1208	27.6396
1192	27.6071
1176	27.6674
1160	27.4832
1144	27.3902
1128	27.3216
1112	27.0943
1096	26.965
1080	26.7494
1064	26.666
1048	26.8796
1032	26.6718
1016	26.7043
1000	26.4245
984	 26.2642
968	 26.0014
952	 26.1037
936	 25.8215
920	 25.5222
904	 25.1887
888	 24.9888
872	 24.8955
856	 24.6293
840	 24.4742
824	 24.0455
808	 23.7419
792	 23.4738
776	 23.307
760	 23.4426
744	 23.3859
728	 22.731
712	 22.3402
696	 22.0074
680	 21.7523
664	 21.5371
648	 20.9484
632	 20.6317
616	 20.0257
600	 19.7765
584	 19.2105
568	 18.6337
552	 18.1499
536	 17.5105
520	 17.3486
504	 16.8711
488	 17.3453
472	 15.9621
456	 14.9061
440	 15.4049
424	 13.4009
408	 13.8433
392	 22.2921
376	 38.6319
370	 22.7205

File: LPE453_t25.asc
PE IR       SPECTRUM    SPECTRUM    ASCII       PEDS        1.60
  -1
LPDB9D~1.ASC
17/05/16
16:26:29.00
17/05/16
16:26:55.00
tln
$LPE453_t0025$<tbV0>[7.8,-7.8,8.0,0.0,27,1,0]
27.028
64

2002,4.07
MIRTGS : RIGHTBACK : INTERNAL 2
MIR : ON : INTERNAL 2
OPTKBR

0.200000
8
8.000000
FILLER
RATIO
SPECTRUM
UNLOCKED 256

DOUBLE
64
COMBINED
1
0
0

0.002000
RATIO

1
0
TRUE
51149
0
LEFT NOT FITTED RIGHT NOT FITTED 0
NONE
NONE
15600
12
4.427000
51148
TRUE
1 0 8 72 0 0 0 0

15798

#HDR
-1
-1
#GR
µM
%T
2.38419e-05
0.0
2.000000
0.002000
12515
8
64.9791
-3.884160
#DATA
2.000000	 0.300812
2.084000	 0.397431
2.168000	 -0.288795
2.252000	 0.224553
2.336000	 0.232162
2.420000	 0.179103
2.504000	 0.337156
2.588000	 0.072651
2.672000	 0.114710
2.756000	 0.061642
2.840000	 -0.043944
2.924000	 0.024186
3.008000	 0.155246
3.092000	 0.145399
3.176000	 0.033997
3.260000	 -0.009636
3.344000	 0.097321
3.428000	 -0.048441
3.512000	 0.050661
3.596000	 0.103322
3.680000	 0.028769
3.764000	 0.048546
3.848000	 0.159029
3.932000	 0.024051
4.016000	 0.187744
4.100000	 0.061468
4.184000	 -0.081492
4.268000	 -0.002265
4.352000	 0.097358
4.436000	 0.342737
4.520000	 0.935907
4.604000	 2.623932
4.688000	 5.086125
4.772000	 8.586889
4.856000	 12.2808
4.940000	 15.8781
5.024000	 18.686
5.108000	 21.189
5.192000	 23.0633
5.276000	 24.2667
5.359999	 25.2924
5.444000	 26.1033
5.528000	 26.6526
5.612000	 27.0084
5.696000	 27.3266
5.780000	 27.4832
5.864000	 27.591
5.948000	 27.6358
6.032000	 27.8112
6.116000	 27.7784
6.200000	 27.8307
6.284000	 27.7857
6.368000	 27.7509
6.452000	 27.8122
6.536000	 27.7135
6.620000	 27.7782
6.704000	 27.615
6.788000	 27.5763
6.872000	 27.6767
6.956000	 27.4634
7.040000	 27.1793
7.124000	 27.3112
7.208000	 27.3064
7.292000	 27.0786
7.376000	 27.1686
7.460000	 27.0274
7.544000	 26.9738
7.628000	 26.9461
7.712000	 26.9088
7.796000	 26.7049
7.880000	 26.7301
7.964000	 26.667
8.048000	 26.6724
8.132000	 26.5933
8.216000	 26.5506
8.300000	 26.37
8.384000	 26.3802
8.468000	 26.2794
8.552000	 26.2085
8.635999	 26.0479
8.719999	 26.0678
8.804000	 26.3559
8.888000	 25.9717
8.972000	 25.8512
9.056000	 25.8202
9.140000	 25.8965
9.224000	 25.5645
9.308000	 25.6731
9.391999	 25.4052
9.475999	 25.1849
9.560000	 25.0785
9.644000	 25.1977
9.728000	 25.2393
9.812000	 24.8799
9.896000	 24.7527
9.980000	 24.7621
10.064	24.8659
10.148	24.8598
10.232	24.7212
10.316	24.7219
10.4	24.6399
10.484	24.3182
10.568	24.3269
10.652	24.2679
10.736	24.1393
10.82	24.0416
10.904	24.0699
10.988	23.8285
11.072	23.575
11.156	23.5852
11.24	23.5004
11.324	23.3554
11.408	23.2007
11.492	23.1305
11.576	23.0915
11.66	22.9879
11.744	22.9138
11.828	22.8624
11.912	22.8978
11.996	22.9993
12.08	22.6424
12.164	22.4583
12.248	22.4287
12.332	22.3863
12.416	22.2526
12.5	21.9716
12.584	21.8911
12.668	21.8177
12.752	21.7284
12.836	21.6235
12.92	21.554
13.004	21.4243
13.088	21.28
13.172	21.2898
13.256	21.1696
13.34	21.1273
13.424	21.1585
13.508	21.4115
13.592	21.4897
13.676	21.0051
13.76	20.603
13.844	20.5908
13.928	20.5669
14.012	20.4824
14.096	20.3597
14.18	20.1233
14.264	19.992
14.348	20.0932
14.432	20.209
14.516	20.197
14.6	20.0624
14.684	19.8244
14.768	19.59
14.852	19.4117
14.936	19.2969
15.02	19.2989
15.104	19.2766
15.188	19.1391
15.272	19.0547
15.356	19.0287
15.44	18.9424
15.524	18.8775
15.608	18.9326
15.692	18.9404
15.776	18.7023
15.86	18.3263
15.944	18.0671
16.028	18.0413
16.112	18.1726
16.196	18.29
16.28	18.3172
16.364	18.3485
16.448	18.4473
16.532	18.4647
16.616	18.2633
16.7	17.9823
16.784	17.8325
16.868	17.7818
16.952	17.6757
17.036	17.5399
17.12	17.4953
17.204	17.46
17.288	17.2412
17.372	16.8859
17.456	16.6498
17.54	16.6359
17.624	16.6891
17.708	16.6614
17.792	16.5704
17.876	16.4968
17.96	16.4743
18.044	16.5086
18.128	16.5847
18.212	16.6406
18.296	16.6033
18.38	16.4748
18.464	16.3375
18.548	16.2536
18.632	16.1876
18.716	16.0724
18.8	15.9141
18.884	15.7886
18.968	15.7399
19.052	15.7308
19.136	15.7219
19.22	15.7228
19.304	15.754
19.388	15.7881
19.472	15.7959
19.556	15.7955
19.64	15.8271
19.724	15.8825
19.808	15.9094
19.892	15.8841
19.976	15.8197
20.06	15.6874
20.144	15.3811
20.228	14.8122
20.312	14.0567
20.396	13.3727
20.48	13.0483
20.564	13.2003
20.648	13.6864
20.732	14.2007
20.816	14.4572
20.9	14.3495
20.984	13.9935
21.068	13.627
21.152	13.4428
21.236	13.4712
21.32	13.5802
21.404	13.5934
21.488	13.4336
21.572	13.1784
21.656	12.9886
21.74	13.0098
21.824	13.287
21.908	13.7499
21.992	14.2612
22.076	14.6618
22.16	14.826
22.244	14.7259
22.328	14.4307
22.412	14.0764
22.496	13.7933
22.58	13.6388
22.664	13.592
22.748	13.5908
22.832	13.6167
22.916	13.7327
23	14.0595
23.084	14.6963
23.168	15.6307
23.252	16.7016
23.336	17.64
23.42	18.1721
23.504	18.1288
23.588	17.5328
23.672	16.5608
23.756	15.4563
23.84	14.4058
23.924	13.4745
24.008	12.631
24.092	11.8315
24.176	11.0968
24.26	10.5496
24.344	10.3909
24.428	10.7744
24.512	11.6777
24.596	12.9514
24.68	14.3738
24.764	15.7183
24.848	16.9038
24.932	17.9016
25.016	18.6651
25.1	19.0938
25.184	19.0826
25.268	18.5888
25.352	17.6642
25.436	16.4582
25.52	15.1472
25.604	13.849
25.688	12.6119
25.772	11.4491
25.856	10.4299
25.94	9.757024
26.024	9.790556
26.108	10.9459
26.192	13.6429
26.276	18.1759
26.36	24.535
26.444	32.3444
26.528	40.877
26.612	49.24
26.696	56.471
26.78	61.7553
26.864	64.5667
26.948	64.7231
27.028	62.5605

File: LPE453_t25_cm-1.asc
PE IR       SPECTRUM    SPECTRUM    ASCII       PEDS        1.60
  -1
LP68DB~1.ASC
17/05/16
16:26:29.00
17/05/16
16:26:29.00
tln
$LPE453_t0025$<tbV0>[7.8,-7.8,8.0,0.0,27,1,0]
370
64

2002,4.07
MIRTGS : RIGHTBACK : INTERNAL 2
MIR : ON : INTERNAL 2
OPTKBR

0.200000
8
8.000000
FILLER
RATIO
SPECTRUM
UNLOCKED 256

DOUBLE
64
COMBINED
1
0
0

1.000000
RATIO

1
0
TRUE
51149
0
LEFT NOT FITTED RIGHT NOT FITTED 0
NONE
NONE
15600
12
4.427000
51148
TRUE
1 0 8 72 0 0 0 0

15798

#HDR
-1
-1
#GR
CM-1
%T
2.38419e-05
0.0
5000
-1.000000
4631
8
64.823
-4.008865
#DATA
5000	0.300812
4984	-0.236034
4968	1.077556
4952	0.468277
4936	-0.136995
4920	0.271296
4904	-0.166606
4888	0.041222
4872	-0.105428
4856	0.234317
4840	0.171327
4824	-0.081443
4808	0.156855
4792	0.044465
4776	0.005412
4760	0.014257
4744	0.361299
4728	-0.130391
4712	-0.063037
4696	-0.213766
4680	1.006555
4664	-0.227236
4648	0.225567
4632	0.484132
4616	0.044894
4600	0.074148
4584	0.143980
4568	-0.240731
4552	0.774884
4536	1.197052
4520	3.691816
4504	-1.222038
4488	1.375007
4472	-0.525784
4456	0.819206
4440	0.160431
4424	-0.287818
4408	-0.293374
4392	0.370597
4376	0.050330
4360	0.305604
4344	-0.170183
4328	0.363945
4312	0.041508
4296	-0.172948
4280	0.243091
4264	0.393509
4248	-0.085401
4232	0.036859
4216	-0.175404
4200	0.207304
4184	0.356435
4168	-0.620365
4152	0.190377
4136	0.197792
4120	0.142335
4104	-0.107264
4088	-0.142765
4072	0.280976
4056	-0.016331
4040	-0.062131
4024	-0.127696
4008	0.103831
3992	0.321102
3976	0.067639
3960	0.248694
3944	0.018095
3928	-0.071620
3912	-0.171303
3896	-0.172495
3880	0.163912
3864	0.072836
3848	-0.094819
3832	0.122570
3816	0.195837
3800	0.248527
3784	-0.054979
3768	0.058341
3752	0.047397
3736	0.048494
3720	-0.004267
3704	0.200295
3688	0.037288
3672	0.024557
3656	-0.009012
3640	0.033998
3624	-0.001430
3608	0.125455
3592	0.013375
3576	-0.044584
3560	0.343394
3544	0.081777
3528	-0.060820
3512	0.026488
3496	0.150251
3480	-0.043869
3464	0.091290
3448	-0.029206
3432	0.023651
3416	0.015878
3400	0.112509
3384	-0.014114
3368	0.012588
3352	0.082159
3336	0.108218
3320	0.273847
3304	-0.021123
3288	0.036263
3272	-0.050306
3256	0.002217
3240	0.141692
3224	0.058126
3208	0.146484
3192	0.058770
3176	0.002741
3160	0.041651
3144	0.074911
3128	-0.183558
3112	0.022625
3096	0.158643
3080	-0.090909
3064	-0.006222
3048	-0.123357
3032	0.151729
3016	0.140452
3000	0.095987
2984	0.050878
2968	-0.058197
2952	-0.010800
2936	0.083374
2920	-0.030732
2904	0.043416
2888	0.115180
2872	0.017595
2856	0.036668
2840	-0.054621
2824	0.168967
2808	0.169634
2792	0.113224
2776	0.006699
2760	0.082063
2744	-0.033521
2728	0.082206
2712	0.027418
2696	-0.028491
2680	0.086283
2664	0.034976
2648	-0.023007
2632	0.170373
2616	0.003218
2600	0.159406
2584	0.021195
2568	0.049471
2552	0.000667
2536	0.003671
2520	0.008702
2504	0.101113
2488	0.129294
2472	0.025248
2456	0.094556
2440	0.046229
2424	0.197553
2408	0.148749
2392	-0.112557
2376	0.000572
2360	-0.059771
2344	-0.017762
2328	0.042128
2312	0.022912
2296	0.109457
2280	0.027275
2264	0.145792
2248	0.285887
2232	0.567841
2216	0.871348
2200	1.321148
2184	1.998877
2168	2.849984
2152	3.585338
2136	4.808950
2120	6.357789
2104	7.754278
2088	9.375691
2072	11.2583
2056	12.6307
2040	14.3082
2024	15.9154
2008	17.2674
1992	18.5642
1976	19.8882
1960	21.0693
1944	21.9997
1928	22.9584
1912	23.6686
1896	24.2378
1880	24.883
1864	25.3638
1848	25.8245
1832	26.1961
1816	26.5304
1800	26.7521
1784	26.995
1768	27.1223
1752	27.3354
1736	27.4386
1720	27.4799
1704	27.5951
1688	27.6152
1672	27.5987
1656	27.7956
1640	27.7982
1624	27.6094
1608	27.8704
1592	27.7842
1576	27.6139
1560	27.8141
1544	27.7565
1528	27.7124
1512	27.8056
1496	27.5127
1480	27.6213
1464	27.598
1448	27.5654
1432	27.5109
1416	27.1786
1400	27.2641
1384	27.2284
1368	27.0411
1352	27.1436
1336	27.0737
1320	26.9384
1304	26.8831
1288	26.7351
1272	26.7843
1256	26.6659
1240	26.6048
1224	26.5709
1208	26.4271
1192	26.3789
1176	26.1921
1160	26.0697
1144	26.1364
1128	26.0283
1112	25.7993
1096	25.9125
1080	25.6163
1064	25.386
1048	25.1407
1032	25.331
1016	24.9005
1000	24.8293
984	 24.8731
968	 24.7396
952	 24.292
936	 24.1961
920	 24.0789
904	 23.5964
888	 23.4639
872	 23.1409
856	 22.955
840	 22.8834
824	 22.4738
808	 22.3489
792	 21.8596
776	 21.5787
760	 21.294
744	 21.1886
728	 20.6691
712	 20.4473
696	 20.1286
680	 19.7581
664	 19.3049
648	 18.9523
632	 18.4922
616	 18.3107
600	 18.0861
584	 17.495
568	 16.6818
552	 16.5731
536	 16.1606
520	 15.7252
504	 15.9048
488	 13.041
472	 13.4337
456	 13.8845
440	 13.5892
424	 17.5623
408	 11.6489
392	 15.3003
376	 47.6914
370	 62.5605

File: LPE453_t26.asc
PE IR       SPECTRUM    SPECTRUM    ASCII       PEDS        1.60
  -1
LPDB91~1.ASC
17/05/16
16:31:06.00
17/05/16
16:31:32.00
tln
$LPE453_t0026$<tbV0>[5.2,-7.8,8.0,0.0,27,1,0]
27.028
64

2002,4.07
MIRTGS : RIGHTBACK : INTERNAL 2
MIR : ON : INTERNAL 2
OPTKBR

0.200000
8
8.000000
FILLER
RATIO
SPECTRUM
UNLOCKED 256

DOUBLE
64
COMBINED
1
0
0

0.002000
RATIO

1
0
TRUE
51149
0
LEFT NOT FITTED RIGHT NOT FITTED 0
NONE
NONE
15600
12
4.427000
51148
TRUE
1 0 8 72 0 0 0 0

15798

#HDR
-1
-1
#GR
µM
%T
2.38419e-05
0.0
2.000000
0.002000
12515
8
27.186
-4.014942
#DATA
2.000000	 0.228953
2.084000	 0.194243
2.168000	 1.197335
2.252000	 -1.507688
2.336000	 0.075227
2.420000	 0.200335
2.504000	 0.062568
2.588000	 0.038840
2.672000	 0.183420
2.756000	 -0.048146
2.840000	 0.008183
2.924000	 -0.012282
3.008000	 -0.080130
3.092000	 0.047392
3.176000	 0.060062
3.260000	 0.009539
3.344000	 0.005377
3.428000	 0.021023
3.512000	 0.006543
3.596000	 -0.034094
3.680000	 0.123386
3.764000	 -0.010139
3.848000	 0.108966
3.932000	 0.009220
4.016000	 0.139594
4.100000	 -0.005045
4.184000	 0.022063
4.268000	 -0.030791
4.352000	 0.002464
4.436000	 0.126095
4.520000	 0.880627
4.604000	 2.318158
4.688000	 5.075248
4.772000	 8.185334
4.856000	 11.8442
4.940000	 15.1873
5.024000	 18.1069
5.108000	 20.2971
5.192000	 22.083
5.276000	 23.557
5.359999	 24.6009
5.444000	 25.2868
5.528000	 25.6954
5.612000	 26.3365
5.696000	 26.5147
5.780000	 26.6447
5.864000	 26.8885
5.948000	 26.8731
6.032000	 27.0877
6.116000	 26.7954
6.200000	 27.0963
6.284000	 26.8849
6.368000	 27.0571
6.452000	 26.8374
6.536000	 27.0245
6.620000	 26.6549
6.704000	 27.0686
6.788000	 26.7018
6.872000	 26.8657
6.956000	 26.6381
7.040000	 26.5976
7.124000	 26.6547
7.208000	 26.381
7.292000	 26.5653
7.376000	 26.3859
7.460000	 26.1602
7.544000	 26.5261
7.628000	 26.2992
7.712000	 26.1646
7.796000	 26.2062
7.880000	 26.0561
7.964000	 25.8944
8.048000	 26.0261
8.132000	 25.9161
8.216000	 25.5946
8.300000	 25.7173
8.384000	 25.7817
8.468000	 25.5018
8.552000	 25.4094
8.635999	 25.5108
8.719999	 25.5176
8.804000	 25.2494
8.888000	 25.2444
8.972000	 25.1063
9.056000	 25.4576
9.140000	 24.8011
9.224000	 24.8628
9.308000	 24.7526
9.391999	 25.1812
9.475999	 24.8555
9.560000	 24.5068
9.644000	 24.4651
9.728000	 24.5509
9.812000	 24.5838
9.896000	 24.3031
9.980000	 24.1187
10.064	24.1032
10.148	24.2545
10.232	24.4354
10.316	23.9857
10.4	23.6552
10.484	23.4845
10.568	23.6234
10.652	23.769
10.736	23.8536
10.82	23.4729
10.904	23.2089
10.988	22.9598
11.072	23.0964
11.156	23.15
11.24	23.2571
11.324	22.9315
11.408	22.7174
11.492	22.4609
11.576	22.4681
11.66	22.7397
11.744	22.5654
11.828	22.4407
11.912	22.2545
11.996	22.0238
12.08	21.7991
12.164	21.6141
12.248	21.7166
12.332	21.7959
12.416	21.8196
12.5	21.7099
12.584	21.2789
12.668	20.9925
12.752	21.018
12.836	21.0922
12.92	20.9308
13.004	20.8121
13.088	20.7673
13.172	20.6066
13.256	20.6595
13.34	20.5508
13.424	20.4408
13.508	20.416
13.592	20.1119
13.676	19.884
13.76	19.8523
13.844	19.8892
13.928	19.8655
14.012	19.8718
14.096	19.8066
14.18	19.6358
14.264	19.5066
14.348	19.4983
14.432	19.5027
14.516	19.3166
14.6	19.1812
14.684	19.2704
14.768	19.2902
14.852	19.0447
14.936	18.7486
15.02	18.6909
15.104	18.6584
15.188	18.4032
15.272	18.1511
15.356	18.0236
15.44	17.9259
15.524	17.9393
15.608	18.0647
15.692	18.1155
15.776	18.0494
15.86	17.962
15.944	17.9421
16.028	17.9865
16.112	17.922
16.196	17.6749
16.28	17.4253
16.364	17.231
16.448	16.9855
16.532	16.757
16.616	16.657
16.7	16.6097
16.784	16.5886
16.868	16.691
16.952	16.8354
17.036	16.8197
17.12	16.6802
17.204	16.6295
17.288	16.6992
17.372	16.7346
17.456	16.6492
17.54	16.4998
17.624	16.3762
17.708	16.2953
17.792	16.2019
17.876	16.0549
17.96	15.9006
18.044	15.8087
18.128	15.7742
18.212	15.7505
18.296	15.7332
18.38	15.7225
18.464	15.6647
18.548	15.528
18.632	15.386
18.716	15.3439
18.8	15.3895
18.884	15.4091
18.968	15.3484
19.052	15.2803
19.136	15.2674
19.22	15.2424
19.304	15.0969
19.388	14.8668
19.472	14.7363
19.556	14.8447
19.64	15.1126
19.724	15.3051
19.808	15.2521
19.892	14.9847
19.976	14.6599
20.06	14.3901
20.144	14.1817
20.228	14.0191
20.312	13.9614
20.396	14.1016
20.48	14.4426
20.564	14.8262
20.648	15.0271
20.732	14.9184
20.816	14.5506
20.9	14.1077
20.984	13.7809
21.068	13.6716
21.152	13.7815
21.236	14.0408
21.32	14.3387
21.404	14.5502
21.488	14.5625
21.572	14.3097
21.656	13.798
21.74	13.1194
21.824	12.4511
21.908	12.0104
21.992	11.951
22.076	12.272
22.16	12.7901
22.244	13.2141
22.328	13.3158
22.412	13.0381
22.496	12.5322
22.58	12.0424
22.664	11.7603
22.748	11.7235
22.832	11.8333
22.916	11.9348
23	11.9265
23.084	11.818
23.168	11.7114
23.252	11.7202
23.336	11.9177
23.42	12.2929
23.504	12.7632
23.588	13.2202
23.672	13.5843
23.756	13.8222
23.84	13.9285
23.924	13.8952
24.008	13.6813
24.092	13.2102
24.176	12.4195
24.26	11.3261
24.344	10.0815
24.428	8.952951
24.512	8.301743
24.596	8.386665
24.68	9.251621
24.764	10.6678
24.848	12.231
24.932	13.4034
25.016	13.7426
25.1	13.1099
25.184	11.728
25.268	10.0794
25.352	8.664863
25.436	7.894576
25.52	7.919866
25.604	8.627335
25.688	9.709218
25.772	10.8158
25.856	11.6903
25.94	12.2113
26.024	12.3109
26.108	11.906
26.192	10.7915
26.276	8.789339
26.36	5.833160
26.444	2.391878
26.528	-0.541529
26.612	-1.699426
26.696	-0.044038
26.78	4.767468
26.864	11.9939
26.948	19.9401
27.028	26.132