Folder: Masteroppgave/Bakgrunnsmateriale/MATLAB/FTIR/ftir_data/LPE453/Mapping_121 (part 40)

File: LPE453_t91_cm-1.asc
PE IR       SPECTRUM    SPECTRUM    ASCII       PEDS        1.60
  -1
LPDBD0~1.ASC
17/05/16
21:52:49.00
17/05/16
21:52:49.00
tln
$LPE453_t0091$<tbV0>[7.8,7.8,8.0,0.0,27,1,0]
370
64

2002,4.07
MIRTGS : RIGHTBACK : INTERNAL 2
MIR : ON : INTERNAL 2
OPTKBR

0.200000
8
8.000000
FILLER
RATIO
SPECTRUM
UNLOCKED 256

DOUBLE
64
COMBINED
1
0
0

1.000000
RATIO

1
0
TRUE
51149
0
LEFT NOT FITTED RIGHT NOT FITTED 0
NONE
NONE
15600
12
4.427000
51148
TRUE
1 0 8 72 0 0 0 0

15798

#HDR
-1
-1
#GR
CM-1
%T
2.38419e-05
0.0
5000
-1.000000
4631
8
35.9926
-8.822131
#DATA
5000	-0.374388
4984	0.450730
4968	-0.220036
4952	0.185918
4936	-0.092196
4920	0.484609
4904	-0.016021
4888	0.275087
4872	-0.018095
4856	0.111842
4840	0.314188
4824	-0.007557
4808	0.069284
4792	0.203037
4776	-0.012135
4760	-0.042963
4744	-0.076603
4728	0.063443
4712	-0.195789
4696	-0.208187
4680	0.051665
4664	-0.405883
4648	-0.200915
4632	0.145649
4616	1.419329
4600	0.827622
4584	-0.089049
4568	0.211071
4552	0.487279
4536	-0.175786
4520	-0.307869
4504	8.508419
4488	4.191136
4472	-1.424622
4456	0.504350
4440	0.059342
4424	0.039982
4408	-0.186896
4392	0.282645
4376	-0.275588
4360	-0.111317
4344	0.272035
4328	0.285029
4312	-0.215220
4296	0.241971
4280	-0.058341
4264	0.115871
4248	0.328922
4232	0.132226
4216	0.206112
4200	0.253629
4184	0.217342
4168	0.244903
4152	0.035762
4136	-0.149226
4120	0.224614
4104	0.054121
4088	0.208401
4072	0.055599
4056	-0.014185
4040	-0.022935
4024	0.155735
4008	0.268959
3992	0.394511
3976	-0.054860
3960	-0.058794
3944	0.123381
3928	0.000619
3912	0.184512
3896	0.201892
3880	0.210356
3864	0.158667
3848	-0.018382
3832	0.127506
3816	0.121784
3800	0.207471
3784	0.159382
3768	0.027203
3752	-0.104165
3736	0.057792
3720	-0.036668
3704	-0.086236
3688	0.212430
3672	0.123143
3656	0.023603
3640	-0.098085
3624	0.097632
3608	0.114512
3592	0.034141
3576	0.021576
3560	-0.021839
3544	-0.044584
3528	-0.083446
3512	0.143504
3496	0.011086
3480	-0.080466
3464	-0.134849
3448	-0.020098
3432	0.073719
3416	0.112080
3400	0.078201
3384	0.121641
3368	0.013065
3352	-0.044679
3336	0.150871
3320	-0.027227
3304	0.013923
3288	-0.029349
3272	0.192904
3256	0.105810
3240	0.071811
3224	0.176429
3208	0.201702
3192	0.187706
3176	0.045180
3160	-0.035715
3144	0.105786
3128	0.047802
3112	-0.050354
3096	0.123524
3080	0.019454
3064	0.027632
3048	0.102066
3032	0.108885
3016	0.006628
3000	0.057482
2984	-0.062823
2968	-0.052428
2952	0.097870
2936	0.097656
2920	-0.017571
2904	-0.082397
2888	0.065302
2872	0.049924
2856	0.150918
2840	-0.080037
2824	-0.015354
2808	0.056314
2792	0.090265
2776	0.015616
2760	0.024986
2744	0.020003
2728	-0.027322
2712	0.021958
2696	0.006842
2680	-0.033521
2664	0.071239
2648	0.096106
2632	-0.090932
2616	0.164985
2600	0.054001
2584	0.020098
2568	0.020956
2552	-0.005769
2536	0.072121
2520	-0.013804
2504	0.050854
2488	0.033307
2472	0.110888
2456	-0.009250
2440	0.113368
2424	-0.022864
2408	-0.013017
2392	0.056076
2376	0.117540
2360	0.190091
2344	0.223851
2328	0.130558
2312	0.350666
2296	0.576758
2280	0.743317
2264	1.207041
2248	1.689267
2232	2.253580
2216	3.094696
2200	4.083943
2184	5.339264
2168	6.868767
2152	8.715462
2136	10.4902
2120	12.5089
2104	14.5803
2088	16.646
2072	18.6269
2056	20.5038
2040	22.348
2024	24.1068
2008	25.7295
1992	26.9813
1976	28.3118
1960	29.4345
1944	30.3868
1928	31.2197
1912	31.8828
1896	32.5417
1880	33.0173
1864	33.4562
1848	33.878
1832	34.3317
1816	34.4863
1800	34.7135
1784	34.9305
1768	35.1182
1752	35.1685
1736	35.3624
1720	35.5268
1704	35.5197
1688	35.6858
1672	35.7017
1656	35.7414
1640	35.8035
1624	35.8447
1608	35.9273
1592	35.8431
1576	35.8699
1560	35.8855
1544	35.7015
1528	35.8305
1512	35.8335
1496	35.7024
1480	35.7333
1464	35.7841
1448	35.6566
1432	35.6551
1416	35.5338
1400	35.5735
1384	35.5677
1368	35.3479
1352	35.4645
1336	35.4338
1320	35.4123
1304	35.2881
1288	35.3522
1272	35.2597
1256	35.2615
1240	35.1909
1224	35.0627
1208	34.9753
1192	34.986
1176	34.9288
1160	34.9552
1144	34.681
1128	34.694
1112	34.8583
1096	34.6352
1080	34.6571
1064	34.3897
1048	34.1825
1032	34.1173
1016	33.964
1000	33.934
984	 33.9508
968	 33.5844
952	 33.675
936	 33.173
920	 33.116
904	 32.8547
888	 32.7034
872	 32.5474
856	 32.4048
840	 32.0745
824	 31.5984
808	 31.8867
792	 31.6874
776	 31.4461
760	 30.8713
744	 30.6907
728	 30.9044
712	 30.2979
696	 29.579
680	 29.7904
664	 29.274
648	 28.6595
632	 28.9813
616	 28.4471
600	 27.6881
584	 27.3957
568	 27.0323
552	 26.67
536	 25.8859
520	 24.9561
504	 24.8752
488	 25.2758
472	 23.5776
456	 23.2486
440	 24.1564
424	 21.5675
408	 20.8205
392	 -8.541631
376	 -1.135277
370	 0.586509

File: LPE453_t92.asc
PE IR       SPECTRUM    SPECTRUM    ASCII       PEDS        1.60
  -1
LPC7B1~1.ASC
17/05/16
21:57:26.00
17/05/16
21:57:52.00
tln
$LPE453_t0092$<tbV0>[5.2,7.8,8.0,0.0,27,1,0]
27.028
64

2002,4.07
MIRTGS : RIGHTBACK : INTERNAL 2
MIR : ON : INTERNAL 2
OPTKBR

0.200000
8
8.000000
FILLER
RATIO
SPECTRUM
UNLOCKED 256

DOUBLE
64
COMBINED
1
0
0

0.002000
RATIO

1
0
TRUE
51149
0
LEFT NOT FITTED RIGHT NOT FITTED 0
NONE
NONE
15600
12
4.427000
51148
TRUE
1 0 8 72 0 0 0 0

15798

#HDR
-1
-1
#GR
µM
%T
2.38419e-05
0.0
2.000000
0.002000
12515
8
36.2392
-6.058593
#DATA
2.000000	 -0.077843
2.084000	 0.091529
2.168000	 0.983418
2.252000	 0.201418
2.336000	 0.220190
2.420000	 0.076492
2.504000	 0.011442
2.588000	 0.037188
2.672000	 -0.032279
2.756000	 -0.032008
2.840000	 0.200991
2.924000	 0.214459
3.008000	 -0.042799
3.092000	 -0.053863
3.176000	 0.128508
3.260000	 0.003190
3.344000	 -0.070184
3.428000	 0.035205
3.512000	 0.040965
3.596000	 -0.023508
3.680000	 0.002581
3.764000	 -0.009659
3.848000	 0.027141
3.932000	 0.047662
4.016000	 0.020483
4.100000	 0.022165
4.184000	 0.126941
4.268000	 0.138635
4.352000	 0.522790
4.436000	 1.452221
4.520000	 3.658268
4.604000	 6.914737
4.688000	 11.4438
4.772000	 16.4017
4.856000	 21.0946
4.940000	 24.7846
5.024000	 27.7323
5.108000	 30.2281
5.192000	 31.6677
5.276000	 33.0106
5.359999	 33.8704
5.444000	 34.4639
5.528000	 35.0628
5.612000	 35.2603
5.696000	 35.5438
5.780000	 35.6263
5.864000	 35.8684
5.948000	 36.0558
6.032000	 35.6975
6.116000	 36.1714
6.200000	 35.7853
6.284000	 36.0051
6.368000	 36.0873
6.452000	 35.7948
6.536000	 36.1175
6.620000	 35.9942
6.704000	 35.5715
6.788000	 35.9452
6.872000	 35.7891
6.956000	 35.439
7.040000	 35.7424
7.124000	 35.8134
7.208000	 35.3765
7.292000	 35.379
7.376000	 35.7416
7.460000	 35.6114
7.544000	 35.0989
7.628000	 35.3456
7.712000	 35.5108
7.796000	 35.3179
7.880000	 34.9492
7.964000	 35.0488
8.048000	 35.3425
8.132000	 35.4693
8.216000	 34.9211
8.300000	 34.7937
8.384000	 34.9947
8.468000	 35.1776
8.552000	 34.9675
8.635999	 34.6284
8.719999	 34.4465
8.804000	 34.9035
8.888000	 34.8969
8.972000	 34.7197
9.056000	 34.1162
9.140000	 34.0768
9.224000	 34.2637
9.308000	 34.4952
9.391999	 34.6313
9.475999	 34.4723
9.560000	 34.1237
9.644000	 33.781
9.728000	 33.6342
9.812000	 33.8921
9.896000	 34.1562
9.980000	 34.028
10.064	33.9529
10.148	33.5218
10.232	33.5457
10.316	33.3452
10.4	33.6177
10.484	33.7315
10.568	33.7749
10.652	33.4585
10.736	32.8995
10.82	32.6565
10.904	32.5619
10.988	32.7504
11.072	32.8244
11.156	32.8956
11.24	32.8262
11.324	32.6733
11.408	32.5685
11.492	32.2619
11.576	32.1437
11.66	32.0256
11.744	32.1121
11.828	32.3688
11.912	32.3218
11.996	32.151
12.08	32.1867
12.164	31.9091
12.248	31.5333
12.332	31.4611
12.416	31.2468
12.5	31.1783
12.584	31.2199
12.668	31.3514
12.752	31.3098
12.836	31.3538
12.92	31.4193
13.004	31.2401
13.088	31.0913
13.172	30.7894
13.256	30.4705
13.34	30.5071
13.424	30.6753
13.508	30.6142
13.592	30.5344
13.676	30.6165
13.76	30.7037
13.844	30.5704
13.928	30.3791
14.012	30.0918
14.096	29.6964
14.18	29.6015
14.264	29.6494
14.348	29.4752
14.432	29.2312
14.516	29.1296
14.6	29.1618
14.684	29.1436
14.768	29.0975
14.852	29.1874
14.936	29.3026
15.02	29.3505
15.104	29.3106
15.188	29.1311
15.272	28.9463
15.356	28.8325
15.44	28.6937
15.524	28.5707
15.608	28.4438
15.692	28.1425
15.776	27.8235
15.86	27.7955
15.944	27.9205
16.028	27.9484
16.112	27.9219
16.196	27.902
16.28	27.8205
16.364	27.6093
16.448	27.3427
16.532	27.2874
16.616	27.528
16.7	27.7403
16.784	27.6726
16.868	27.4601
16.952	27.3309
17.036	27.3143
17.12	27.3051
17.204	27.2191
17.288	27.0412
17.372	26.7951
17.456	26.552
17.54	26.4453
17.624	26.5521
17.708	26.7699
17.792	26.9231
17.876	26.9569
17.96	26.9494
18.044	26.9526
18.128	26.9226
18.212	26.8111
18.296	26.638
18.38	26.4483
18.464	26.2459
18.548	26.0168
18.632	25.7885
18.716	25.6214
18.8	25.5438
18.884	25.5295
18.968	25.5148
19.052	25.4311
19.136	25.2552
19.22	25.0486
19.304	24.9285
19.388	24.9668
19.472	25.1184
19.556	25.2545
19.64	25.2655
19.724	25.1281
19.808	24.9036
19.892	24.6938
19.976	24.5718
20.06	24.5325
20.144	24.5093
20.228	24.4492
20.312	24.3777
20.396	24.374
20.48	24.4787
20.564	24.6429
20.648	24.7719
20.732	24.8021
20.816	24.7171
20.9	24.5198
20.984	24.2108
21.068	23.8164
21.152	23.4065
21.236	23.071
21.32	22.8523
21.404	22.716
21.488	22.5959
21.572	22.4615
21.656	22.3412
21.74	22.2794
21.824	22.2974
21.908	22.3858
21.992	22.5264
22.076	22.7182
22.16	22.9698
22.244	23.2721
22.328	23.5837
22.412	23.8475
22.496	24.0242
22.58	24.117
22.664	24.1627
22.748	24.1965
22.832	24.2091
22.916	24.147
23	23.922
23.084	23.4658
23.168	22.7911
23.252	22.0053
23.336	21.2711
23.42	20.7646
23.504	20.5882
23.588	20.7164
23.672	21.0212
23.756	21.3196
23.84	21.4537
23.924	21.3625
24.008	21.0908
24.092	20.7547
24.176	20.494
24.26	20.4455
24.344	20.7104
24.428	21.2788
24.512	21.9785
24.596	22.5111
24.68	22.5102
24.764	21.6714
24.848	19.8944
24.932	17.3322
25.016	14.3819
25.1	11.5533
25.184	9.421238
25.268	8.438091
25.352	8.827878
25.436	10.553
25.52	13.2708
25.604	16.4262
25.688	19.3569
25.772	21.4593
25.856	22.3463
25.94	21.9469
26.024	20.5425
26.108	18.683
26.192	16.9668
26.276	15.8509
26.36	15.5516
26.444	15.9947
26.528	16.8838
26.612	17.8494
26.696	18.5306
26.78	18.6766
26.864	18.2019
26.948	17.2006
27.028	16.0095

File: LPE453_t92_cm-1.asc
PE IR       SPECTRUM    SPECTRUM    ASCII       PEDS        1.60
  -1
LPDB50~1.ASC
17/05/16
21:57:26.00
17/05/16
21:57:26.00
tln
$LPE453_t0092$<tbV0>[5.2,7.8,8.0,0.0,27,1,0]
370
64

2002,4.07
MIRTGS : RIGHTBACK : INTERNAL 2
MIR : ON : INTERNAL 2
OPTKBR

0.200000
8
8.000000
FILLER
RATIO
SPECTRUM
UNLOCKED 256

DOUBLE
64
COMBINED
1
0
0

1.000000
RATIO

1
0
TRUE
51149
0
LEFT NOT FITTED RIGHT NOT FITTED 0
NONE
NONE
15600
12
4.427000
51148
TRUE
1 0 8 72 0 0 0 0

15798

#HDR
-1
-1
#GR
CM-1
%T
2.38419e-05
0.0
5000
-1.000000
4631
8
36.239
-6.209516
#DATA
5000	-0.077843
4984	0.765895
4968	0.111556
4952	0.546789
4936	-0.140547
4920	-0.298571
4904	0.014233
4888	-0.154566
4872	-0.262379
4856	0.488734
4840	-0.111103
4824	0.010251
4808	-0.038886
4792	-0.221681
4776	0.479125
4760	0.645303
4744	0.650906
4728	-0.222992
4712	-0.519657
4696	-0.018954
4680	0.408744
4664	-0.547194
4648	1.055169
4632	0.503087
4616	0.789022
4600	1.600670
4584	0.303840
4568	1.072406
4552	0.061607
4536	-0.166392
4520	-1.046562
4504	5.414009
4488	-6.122112
4472	0.134396
4456	-0.388431
4440	0.261163
4424	0.491738
4408	-0.144267
4392	0.823211
4376	0.297284
4360	0.044584
4344	0.227665
4328	0.267648
4312	0.262117
4296	-0.215673
4280	0.245165
4264	0.192928
4248	0.071573
4232	0.072240
4216	0.122857
4200	0.257730
4184	0.001335
4168	0.017762
4152	0.138735
4136	0.039911
4120	-0.290131
4104	-0.017237
4088	-0.020384
4072	0.093221
4056	-0.017952
4040	-0.061202
4024	0.190901
4008	0.205612
3992	-0.024771
3976	0.062251
3960	0.203204
3944	0.050711
3928	0.022602
3912	0.034141
3896	-0.143265
3880	0.034904
3864	0.037145
3848	0.086212
3832	0.042629
3816	0.073027
3800	0.014376
3784	-0.045585
3768	-0.074529
3752	-0.056362
3736	-0.058436
3720	-0.015616
3704	-0.059127
3688	0.034642
3672	0.137352
3656	0.118923
3640	0.036382
3624	-0.043034
3608	0.097346
3592	0.201725
3576	-0.017356
3560	0.022363
3544	0.060582
3528	0.194382
3512	0.003790
3496	0.092887
3480	-0.073623
3464	0.063943
3448	-0.010180
3432	0.014209
3416	0.260949
3400	0.085330
3384	-0.077366
3368	0.062370
3352	-0.088024
3336	0.122332
3320	0.007104
3304	0.039100
3288	0.068545
3272	0.099730
3256	0.171160
3240	0.044560
3224	0.036811
3208	0.113582
3192	-0.042200
3176	-0.017356
3160	0.198960
3144	0.098371
3128	0.257062
3112	0.012660
3096	0.123333
3080	0.053811
3064	0.003218
3048	-0.019264
3032	-0.044083
3016	0.001645
3000	-0.045371
2984	-0.046062
2968	0.103998
2952	-0.023031
2936	0.097084
2920	0.017213
2904	0.072026
2888	0.068807
2872	0.081253
2856	0.084733
2840	0.050020
2824	0.086021
2808	0.044298
2792	-0.035166
2776	-0.052595
2760	0.058937
2744	0.159621
2728	0.105738
2712	-0.055932
2696	0.138068
2680	0.094819
2664	0.085520
2648	-0.049448
2632	-0.008368
2616	0.001645
2600	0.017094
2584	0.140357
2568	0.091934
2552	0.003075
2536	0.049591
2520	-0.010538
2504	-0.023341
2488	0.025296
2472	0.085783
2456	0.121760
2440	-0.004553
2424	0.010132
2408	-0.031685
2392	0.140643
2376	0.142502
2360	0.132226
2344	0.138139
2328	0.268983
2312	0.349879
2296	0.556159
2280	0.854921
2264	1.349210
2248	1.765942
2232	2.487325
2216	3.428792
2200	4.440331
2184	5.836105
2168	7.296442
2152	9.031772
2136	11.0637
2120	13.1066
2104	15.3355
2088	17.3473
2072	19.493
2056	21.5392
2040	23.1329
2024	24.8126
2008	26.4917
1992	27.6087
1976	28.9498
1960	30.0856
1944	30.8535
1928	31.5753
1912	32.4285
1896	32.9839
1880	33.3594
1864	33.9718
1848	34.4269
1832	34.4674
1816	34.8864
1800	35.3438
1784	35.2557
1768	35.2965
1752	35.6877
1736	35.7512
1720	35.6451
1704	35.9093
1688	36.0729
1672	35.8674
1656	35.7152
1640	36.0882
1624	36.0603
1608	35.7234
1592	35.9833
1576	36.1433
1560	35.9451
1544	35.6895
1528	36.1533
1512	36.0581
1496	35.5125
1480	35.8203
1464	35.8766
1448	35.8177
1432	35.4655
1416	35.7037
1400	35.748
1384	35.3388
1368	35.4659
1352	35.7433
1336	35.5237
1320	35.0765
1304	35.4344
1288	35.4572
1272	35.0158
1256	35.0399
1240	35.3477
1224	35.2654
1208	34.767
1192	35.0115
1176	35.1181
1160	34.6549
1144	34.4947
1128	34.9404
1112	34.6602
1096	33.9972
1080	34.387
1064	34.62
1048	34.2204
1032	33.6831
1016	33.9666
1000	34.036
984	 33.5387
968	 33.3661
952	 33.7678
936	 33.2715
920	 32.6139
904	 32.8277
888	 32.7641
872	 32.3234
856	 32.0215
840	 32.3404
824	 32.0542
808	 31.3565
792	 31.2907
776	 31.4254
760	 30.8546
744	 30.6818
728	 30.6979
712	 29.9271
696	 29.413
680	 29.125
664	 29.348
648	 28.7077
632	 27.7695
616	 27.8785
600	 27.6844
584	 27.3034
568	 26.5131
552	 26.9315
536	 25.7303
520	 25.026
504	 24.8131
488	 24.5
472	 23.2556
456	 22.4178
440	 24.189
424	 20.7079
408	 21.9614
392	 12.9227
376	 17.6781
370	 16.0095

File: LPE453_t93.asc
PE IR       SPECTRUM    SPECTRUM    ASCII       PEDS        1.60
  -1
LPC7B5~1.ASC
17/05/16
22:02:03.00
17/05/16
22:02:29.00
tln
$LPE453_t0093$<tbV0>[2.6,7.8,8.0,0.0,27,1,0]
27.028
64

2002,4.07
MIRTGS : RIGHTBACK : INTERNAL 2
MIR : ON : INTERNAL 2
OPTKBR

0.200000
8
8.000000
FILLER
RATIO
SPECTRUM
UNLOCKED 256

DOUBLE
64
COMBINED
1
0
0

0.002000
RATIO

1
0
TRUE
51149
0
LEFT NOT FITTED RIGHT NOT FITTED 0
NONE
NONE
15600
12
4.427000
51148
TRUE
1 0 8 72 0 0 0 0

15798

#HDR
-1
-1
#GR
µM
%T
2.38419e-05
0.0
2.000000
0.002000
12515
8
35.269
-36.1995
#DATA
2.000000	 0.520515
2.084000	 0.274271
2.168000	 0.394537
2.252000	 -1.650929
2.336000	 0.005664
2.420000	 0.044406
2.504000	 0.021712
2.588000	 -0.010626
2.672000	 0.115458
2.756000	 0.017868
2.840000	 0.179635
2.924000	 -0.018201
3.008000	 0.012798
3.092000	 -0.038352
3.176000	 0.184935
3.260000	 -0.032062
3.344000	 0.042797
3.428000	 0.110976
3.512000	 0.118258
3.596000	 0.096561
3.680000	 -0.058188
3.764000	 0.020830
3.848000	 -0.010960
3.932000	 0.017742
4.016000	 -0.056284
4.100000	 -0.054790
4.184000	 0.016705
4.268000	 0.079765
4.352000	 0.530870
4.436000	 1.610565
4.520000	 3.535872
4.604000	 7.026147
4.688000	 11.354
4.772000	 16.199
4.856000	 20.519
4.940000	 24.1102
5.024000	 27.1943
5.108000	 29.0972
5.192000	 30.6142
5.276000	 32.1558
5.359999	 32.6724
5.444000	 33.6452
5.528000	 33.6308
5.612000	 34.3911
5.696000	 34.1459
5.780000	 34.7624
5.864000	 34.3361
5.948000	 35.0162
6.032000	 34.6298
6.116000	 34.6953
6.200000	 35.0412
6.284000	 34.4623
6.368000	 35.178
6.452000	 34.8438
6.536000	 34.4938
6.620000	 35.2442
6.704000	 34.5909
6.788000	 34.4293
6.872000	 35.0181
6.956000	 34.501
7.040000	 34.1769
7.124000	 34.7388
7.208000	 34.6903
7.292000	 34.2309
7.376000	 34.3418
7.460000	 34.7879
7.544000	 34.3722
7.628000	 34.0194
7.712000	 34.2886
7.796000	 34.6296
7.880000	 34.223
7.964000	 33.6702
8.048000	 33.9466
8.132000	 34.5041
8.216000	 34.2435
8.300000	 33.5127
8.384000	 33.4019
8.468000	 34.0084
8.552000	 34.3677
8.635999	 33.7237
8.719999	 33.3049
8.804000	 33.2743
8.888000	 33.6009
8.972000	 33.93
9.056000	 33.7475
9.140000	 32.965
9.224000	 32.9653
9.308000	 33.1423
9.391999	 33.4474
9.475999	 33.659
9.560000	 33.4243
9.644000	 32.8759
9.728000	 32.5175
9.812000	 32.463
9.896000	 33.0419
9.980000	 33.2037
10.064	33.1031
10.148	32.8709
10.232	32.3283
10.316	31.8439
10.4	32.1163
10.484	32.5227
10.568	32.6502
10.652	32.5786
10.736	32.3843
10.82	32.0051
10.904	31.6206
10.988	31.4559
11.072	31.4081
11.156	31.6981
11.24	32.0517
11.324	32.2261
11.408	31.9994
11.492	31.3693
11.576	30.8629
11.66	30.589
11.744	30.6287
11.828	30.7813
11.912	31.0879
11.996	31.357
12.08	31.2899
12.164	31.0978
12.248	30.7063
12.332	30.2303
12.416	29.9071
12.5	29.8282
12.584	29.7329
12.668	29.8954
12.752	30.2997
12.836	30.6272
12.92	30.6752
13.004	30.4576
13.088	30.1568
13.172	29.8799
13.256	29.5594
13.34	29.2302
13.424	28.9861
13.508	28.9025
13.592	29.0694
13.676	29.2961
13.76	29.3674
13.844	29.4572
13.928	29.5865
14.012	29.6001
14.096	29.3586
14.18	29.0693
14.264	28.8279
14.348	28.6215
14.432	28.4669
14.516	28.143
14.6	27.7404
14.684	27.5283
14.768	27.5327
14.852	27.5628
14.936	27.5508
15.02	27.7669
15.104	28.1373
15.188	28.2667
15.272	28.1816
15.356	28.1109
15.44	28.0162
15.524	27.7676
15.608	27.3702
15.692	26.9596
15.776	26.7303
15.86	26.6524
15.944	26.5507
16.028	26.5163
16.112	26.656
16.196	26.7396
16.28	26.6092
16.364	26.4634
16.448	26.4976
16.532	26.6564
16.616	26.8192
16.7	26.9119
16.784	26.847
16.868	26.5959
16.952	26.2728
17.036	25.9985
17.12	25.7931
17.204	25.6713
17.288	25.6657
17.372	25.6955
17.456	25.6043
17.54	25.374
17.624	25.1458
17.708	25.0422
17.792	25.0705
17.876	25.1465
17.96	25.1578
18.044	25.0443
18.128	24.8509
18.212	24.6926
18.296	24.6723
18.38	24.8207
18.464	25.0575
18.548	25.2159
18.632	25.1735
18.716	24.9638
18.8	24.7255
18.884	24.5473
18.968	24.4092
19.052	24.2581
19.136	24.0961
19.22	23.9724
19.304	23.9237
19.388	23.9378
19.472	23.9566
19.556	23.9082
19.64	23.7516
19.724	23.5177
19.808	23.3102
19.892	23.2489
19.976	23.3796
20.06	23.6321
20.144	23.8756
20.228	24.0247
20.312	24.0936
20.396	24.1491
20.48	24.2237
20.564	24.2821
20.648	24.2705
20.732	24.1862
20.816	24.0909
20.9	24.0461
20.984	24.0417
21.068	23.9973
21.152	23.8337
21.236	23.5468
21.32	23.2078
21.404	22.9
21.488	22.6525
21.572	22.4389
21.656	22.223
21.74	21.9943
21.824	21.7773
21.908	21.6015
21.992	21.4639
22.076	21.3341
22.16	21.1903
22.244	21.0524
22.328	20.9684
22.412	20.9675
22.496	21.0288
22.58	21.1174
22.664	21.2305
22.748	21.4064
22.832	21.6683
22.916	21.9675
23	22.1745
23.084	22.1519
23.168	21.8376
23.252	21.3169
23.336	20.8069
23.42	20.5247
23.504	20.5974
23.588	20.9895
23.672	21.5331
23.756	21.9959
23.84	22.2178
23.924	22.1219
24.008	21.7589
24.092	21.29
24.176	20.8352
24.26	20.4486
24.344	20.0709
24.428	19.5812
24.512	18.9412
24.596	18.2389
24.68	17.7039
24.764	17.6328
24.848	18.2413
24.932	19.5615
25.016	21.3682
25.1	23.263
25.184	24.7315
25.268	25.3089
25.352	24.6872
25.436	22.6329
25.52	19.0391
25.604	13.95
25.688	7.612861
25.772	0.485552
25.856	-6.865949
25.94	-13.8947
26.024	-20.1867
26.108	-25.5438
26.192	-29.9107
26.276	-33.2302
26.36	-35.3674
26.444	-36.1915
26.528	-35.663
26.612	-33.9599
26.696	-31.4176
26.78	-28.5255
26.864	-25.7237
26.948	-23.3231
27.028	-21.5941

File: LPE453_t93_cm-1.asc
PE IR       SPECTRUM    SPECTRUM    ASCII       PEDS        1.60
  -1
LPDBD5~1.ASC
17/05/16
22:02:03.00
17/05/16
22:02:03.00
tln
$LPE453_t0093$<tbV0>[2.6,7.8,8.0,0.0,27,1,0]
370
64

2002,4.07
MIRTGS : RIGHTBACK : INTERNAL 2
MIR : ON : INTERNAL 2
OPTKBR

0.200000
8
8.000000
FILLER
RATIO
SPECTRUM
UNLOCKED 256

DOUBLE
64
COMBINED
1
0
0

1.000000
RATIO

1
0
TRUE
51149
0
LEFT NOT FITTED RIGHT NOT FITTED 0
NONE
NONE
15600
12
4.427000
51148
TRUE
1 0 8 72 0 0 0 0

15798

#HDR
-1
-1
#GR
CM-1
%T
2.38419e-05
0.0
5000
-1.000000
4631
8
35.2691
-36.1992
#DATA
5000	0.520515
4984	0.205540
4968	0.288248
4952	0.265717
4936	0.145459
4920	0.201058
4904	-0.079560
4888	-0.316977
4872	0.385403
4856	0.454521
4840	0.354647
4824	0.713253
4808	0.308895
4792	0.463438
4776	0.264668
4760	0.530171
4744	-0.158715
4728	0.579190
4712	0.551152
4696	0.512003
4680	1.424145
4664	-0.428009
4648	-0.826811
4632	1.594877
4616	0.654768
4600	0.335264
4584	1.191020
4568	-1.027655
4552	-1.539254
4536	-1.469588
4520	-0.804448
4504	10.4595
4488	18.6014
4472	-1.840734
4456	-1.290941
4440	-1.631116
4424	0.037217
4408	0.565958
4392	1.333308
4376	0.561952
4360	0.478577
4344	0.556898
4328	0.542354
4312	-0.028276
4296	0.395202
4280	-0.005650
4264	0.201272
4248	0.540137
4232	0.481963
4216	0.109648
4200	0.022840
4184	-0.091528
4168	0.103306
4152	0.267148
4136	0.127482
4120	0.158357
4104	0.189709
4088	0.200176
4072	0.092768
4056	0.056767
4040	-0.006246
4024	0.055170
4008	0.150537
3992	0.019073
3976	0.158905
3960	-0.043749
3944	0.035166
3928	0.370645
3912	-0.133132
3896	0.113272
3880	0.073719
3864	-0.010561
3848	0.120472
3832	0.150394
3816	-0.005793
3800	-0.044655
3784	0.093626
3768	0.171709
3752	0.121593
3736	0.091695
3720	0.201272
3704	0.103330
3688	-0.002503
3672	0.248265
3656	-0.002980
3640	-0.066304
3624	-0.035166
3608	0.012803
3592	-0.004744
3576	0.123476
3560	0.198721
3544	0.094151
3528	0.112247
3512	-0.053882
3496	0.038266
3480	0.003385
3464	-0.070381
3448	0.246357
3432	0.079107
3416	-0.089693
3400	0.142765
3384	-0.014066
3368	-0.036954
3352	-0.053119
3336	0.116777
3320	0.060081
3304	0.060987
3288	-0.019574
3272	-0.018048
3256	0.038242
3240	0.060105
3224	0.031423
3208	-0.024795
3192	-0.010895
3176	0.029444
3160	0.107741
3144	0.123977
3128	0.174522
3112	0.239586
3096	0.170302
3080	0.090456
3064	0.042748
3048	0.062680
3032	-0.014662
3016	-0.051808
3000	0.104522
2984	0.126171
2968	0.024676
2952	-0.074505
2936	-0.028061
2920	0.085330
2904	0.108528
2888	-0.044059
2872	-0.018954
2856	0.083136
2840	0.097489
2824	0.074434
2808	0.073838
2792	-0.032067
2776	0.123190
2760	0.053071
2744	-0.012254
2728	0.130438
2712	-0.054574
2696	-0.139307
2680	0.086307
2664	-0.086426
2648	0.050163
2632	0.017333
2616	-0.020718
2600	-0.013351
2584	0.034785
2568	0.066089
2552	0.103640
2536	0.061631
2520	-0.127720
2504	0.040602
2488	-0.074744
2472	0.098729
2456	0.207424
2440	-0.056147
2424	-0.021433
2408	0.101876
2392	-0.009107
2376	0.004267
2360	0.124263
2344	0.074791
2328	0.199270
2312	0.354266
2296	0.562310
2280	0.849485
2264	1.249861
2248	1.804542
2232	2.468299
2216	3.334021
2200	4.374480
2184	5.790376
2168	7.385349
2152	9.079980
2136	11.0004
2120	12.8416
2104	15.0453
2088	17.1207
2072	18.8729
2056	20.9177
2040	22.6041
2024	24.1364
2008	25.7057
1992	27.0961
1976	27.9612
1960	28.9075
1944	30.0592
1928	30.5597
1912	31.2261
1896	32.1193
1880	32.3916
1864	32.7027
1848	33.314
1832	33.6841
1816	33.5101
1800	33.8867
1784	34.3535
1768	34.2683
1752	34.2239
1736	34.7002
1720	34.7276
1704	34.3083
1688	34.7265
1672	34.9691
1656	34.598
1640	34.4791
1624	35.1022
1608	34.9543
1592	34.4563
1576	34.8673
1560	35.089
1544	34.7225
1528	34.5342
1512	35.2432
1496	34.8209
1480	34.4284
1464	34.5791
1448	35.0413
1432	34.241
1416	34.3163
1400	34.8219
1384	34.5695
1368	34.174
1352	34.5248
1336	34.6411
1320	34.1286
1304	34.0464
1288	34.618
1272	34.371
1256	33.6713
1240	34.085
1224	34.5214
1208	33.6797
1192	33.4173
1176	34.1787
1160	33.8396
1144	33.2188
1128	33.4958
1112	33.9171
1096	33.0333
1080	33.039
1064	33.4725
1048	33.4477
1032	32.6603
1016	32.6611
1000	33.1953
984	 32.8166
968	 31.853
952	 32.5883
936	 32.5298
920	 31.7549
904	 31.3937
888	 32.1454
872	 31.6043
856	 30.5599
840	 31.0573
824	 31.1718
808	 30.0296
792	 29.7557
776	 30.7007
760	 29.9263
744	 28.9528
728	 29.3541
712	 29.5313
696	 28.5868
680	 27.5132
664	 27.9527
648	 28.0305
632	 26.6821
616	 26.7018
600	 26.8888
584	 25.7865
568	 25.1877
552	 24.8794
536	 25.1237
520	 23.9616
504	 23.2632
488	 24.2342
472	 23.728
456	 21.563
440	 21.3549
424	 20.9715
408	 18.9591
392	 19.5375
376	 -34.3661
370	 -21.5941