Folder: Masteroppgave/Bakgrunnsmateriale/MATLAB/FTIR/ftir_data/LPE453/Mapping_121 (part 6)

File: LPE453_t06_cm-1.asc
PE IR       SPECTRUM    SPECTRUM    ASCII       PEDS        1.60
  -1
LP675A~1.ASC
17/05/16
14:51:05.00
17/05/16
14:51:05.00
tln
$LPE453_t0006$<tbV0>[0.0,-13.0,8.0,0.0,27,1,0]
370
64

2002,4.07
MIRTGS : RIGHTBACK : INTERNAL 2
MIR : ON : INTERNAL 2
OPTKBR

0.200000
8
8.000000
FILLER
RATIO
SPECTRUM
UNLOCKED 256

DOUBLE
64
COMBINED
1
0
0

1.000000
RATIO

1
0
TRUE
51149
0
LEFT NOT FITTED RIGHT NOT FITTED 0
NONE
NONE
15600
12
4.427000
51148
TRUE
1 0 8 72 0 0 0 0

15798

#HDR
-1
-1
#GR
CM-1
%T
2.38419e-05
0.0
5000
-1.000000
4631
8
46.8937
-2.580738
#DATA
5000	0.217509
4984	0.431132
4968	0.166916
4952	-0.388431
4936	0.472640
4920	0.061058
4904	0.115537
4888	0.582289
4872	0.604128
4856	0.390553
4840	0.185322
4824	0.458312
4808	0.600147
4792	0.433135
4776	0.192236
4760	0.300860
4744	0.005054
4728	-0.164341
4712	0.027704
4696	0.566411
4680	0.322341
4664	0.672125
4648	0.584435
4632	0.782942
4616	1.492762
4600	0.161242
4584	-0.513768
4568	-0.079560
4552	-2.580738
4536	-0.910115
4520	10.6464
4504	5.429530
4488	-0.036096
4472	-0.218439
4456	-0.126886
4440	-0.523161
4424	-0.236463
4408	0.265598
4392	1.032638
4376	0.598692
4360	0.256347
4344	0.546145
4328	0.152611
4312	0.239801
4296	-0.067901
4280	-0.117540
4264	0.168871
4248	0.073742
4232	0.435209
4216	0.229620
4200	0.026702
4184	-0.023174
4168	-0.108718
4152	0.171136
4136	-0.062036
4120	0.053501
4104	-0.036120
4088	0.126743
4072	0.132417
4056	0.135231
4040	0.184440
4024	0.098800
4008	0.326800
3992	-0.003218
3976	0.428843
3960	0.293493
3944	0.138020
3928	0.364422
3912	0.202298
3896	0.164341
3880	-0.053358
3864	-0.179576
3848	-0.055909
3832	0.178313
3816	0.150942
3800	0.165009
3784	0.074982
3768	0.111365
3752	0.094652
3736	-0.005984
3720	0.169324
3704	0.151062
3688	0.065922
3672	-0.114774
3656	0.075721
3640	0.126171
3624	-0.068211
3608	0.026607
3592	0.009012
3576	0.030422
3560	-0.195813
3544	0.033688
3528	0.152182
3512	0.056815
3496	-0.030565
3480	0.134897
3464	-0.146245
3448	0.088596
3432	-0.009369
3416	0.280356
3400	0.067782
3384	0.088667
3368	0.038456
3352	0.095510
3336	0.040721
3320	-0.078845
3304	0.107264
3288	-0.048804
3272	-0.019931
3256	0.074100
3240	0.153064
3224	0.070977
3208	0.030183
3192	0.029134
3176	0.143051
3160	-0.134253
3144	0.120043
3128	-0.219202
3112	0.108933
3096	0.008845
3080	0.028610
3064	0.000286
3048	0.318074
3032	-0.017380
3016	-0.008296
3000	-0.122380
2984	0.040721
2968	-0.079560
2952	0.160980
2936	-0.030517
2920	0.095534
2904	0.149798
2888	0.051665
2872	0.195622
2856	0.215458
2840	0.129008
2824	0.051522
2808	0.173902
2792	-0.006556
2776	0.072646
2760	0.041866
2744	0.016617
2728	0.081706
2712	0.041151
2696	0.071573
2680	0.045108
2664	0.000739
2648	0.106072
2632	-0.057268
2616	0.066781
2600	-0.002741
2584	0.022363
2568	-0.022172
2552	0.008845
2536	0.080585
2520	-0.002288
2504	0.160169
2488	0.072169
2472	0.056552
2456	0.068068
2440	0.023841
2424	-0.102877
2408	0.221395
2392	-0.074958
2376	0.058674
2360	0.044131
2344	0.046443
2328	0.115704
2312	0.418066
2296	0.428342
2280	0.630831
2264	0.888252
2248	1.408982
2232	1.953935
2216	2.840542
2200	3.642344
2184	4.839658
2168	6.634044
2152	8.076095
2136	9.907555
2120	11.8355
2104	13.9055
2088	15.9061
2072	17.8103
2056	19.9136
2040	21.7098
2024	23.4994
2008	25.16
1992	26.5011
1976	27.6509
1960	28.8007
1944	29.8449
1928	30.7431
1912	31.4006
1896	32.0632
1880	32.6256
1864	33.1374
1848	33.5979
1832	33.8618
1816	34.0738
1800	34.5148
1784	34.6249
1768	34.8084
1752	34.7664
1736	35.0313
1720	35.051
1704	35.1576
1688	35.181
1672	35.3127
1656	35.438
1640	35.2401
1624	35.2595
1608	35.3044
1592	35.1324
1576	35.272
1560	35.6265
1544	35.3097
1528	35.1038
1512	35.1349
1496	34.9795
1480	34.9124
1464	34.9846
1448	34.8584
1432	34.8881
1416	34.8964
1400	34.7353
1384	34.7689
1368	34.4321
1352	34.5035
1336	34.6734
1320	34.3966
1304	34.1284
1288	34.3627
1272	34.2502
1256	34.0506
1240	34.0469
1224	34.197
1208	34.0668
1192	33.845
1176	33.8194
1160	33.9033
1144	33.7254
1128	33.599
1112	33.5702
1096	33.3123
1080	33.2146
1064	33.4683
1048	33.2615
1032	33.0933
1016	32.8276
1000	32.97
984	 32.7822
968	 32.5715
952	 32.4804
936	 32.4377
920	 32.2737
904	 31.9859
888	 31.6381
872	 31.7692
856	 31.3887
840	 31.2204
824	 31.4079
808	 30.8805
792	 30.5684
776	 30.5346
760	 30.4795
744	 30.3068
728	 29.5583
712	 29.7161
696	 29.4035
680	 28.9497
664	 28.5854
648	 28.8954
632	 28.2595
616	 27.5898
600	 27.371
584	 27.0138
568	 26.5529
552	 26.0805
536	 25.8253
520	 25.2795
504	 24.6191
488	 24.6378
472	 24.387
456	 23.8145
440	 21.3165
424	 20.5507
408	 23.2571
392	 17.0981
376	 34.1381
370	 18.9743

File: LPE453_t07.asc
PE IR       SPECTRUM    SPECTRUM    ASCII       PEDS        1.60
  -1
LPD395~1.ASC
17/05/16
14:55:42.00
17/05/16
14:56:08.00
tln
$LPE453_t0007$<tbV0>[-2.6,-13.0,8.0,0.0,27,1,0]
27.028
64

2002,4.07
MIRTGS : RIGHTBACK : INTERNAL 2
MIR : ON : INTERNAL 2
OPTKBR

0.200000
8
8.000000
FILLER
RATIO
SPECTRUM
UNLOCKED 256

DOUBLE
64
COMBINED
1
0
0

0.002000
RATIO

1
0
TRUE
51149
0
LEFT NOT FITTED RIGHT NOT FITTED 0
NONE
NONE
15600
12
4.427000
51148
TRUE
1 0 8 72 0 0 0 0

15798

#HDR
-1
-1
#GR
µM
%T
2.38419e-05
0.0
2.000000
0.002000
12515
8
36.6263
-4.113595
#DATA
2.000000	 0.276041
2.084000	 0.217154
2.168000	 0.580116
2.252000	 0.154202
2.336000	 0.208778
2.420000	 0.231928
2.504000	 0.141017
2.588000	 -0.177353
2.672000	 0.280089
2.756000	 -0.050512
2.840000	 0.220125
2.924000	 0.065605
3.008000	 0.116860
3.092000	 0.101898
3.176000	 0.129269
3.260000	 -0.023437
3.344000	 -0.002344
3.428000	 0.092216
3.512000	 0.051470
3.596000	 0.074674
3.680000	 -0.044418
3.764000	 0.042798
3.848000	 0.056490
3.932000	 0.042035
4.016000	 0.105880
4.100000	 0.062991
4.184000	 0.048511
4.268000	 0.262871
4.352000	 0.561877
4.436000	 1.441656
4.520000	 3.665909
4.604000	 7.018775
4.688000	 11.6397
4.772000	 16.4111
4.856000	 21.2079
4.940000	 24.845
5.024000	 28.0858
5.108000	 30.2109
5.192000	 32.1925
5.276000	 33.1339
5.359999	 34.3588
5.444000	 34.6416
5.528000	 35.4385
5.612000	 35.3649
5.696000	 36.0034
5.780000	 35.6469
5.864000	 36.3795
5.948000	 36.1299
6.032000	 36.2312
6.116000	 36.3809
6.200000	 35.9124
6.284000	 36.2788
6.368000	 35.9998
6.452000	 35.8727
6.536000	 36.2136
6.620000	 36.1286
6.704000	 35.7906
6.788000	 36.194
6.872000	 35.9286
6.956000	 35.4647
7.040000	 35.7718
7.124000	 35.9193
7.208000	 35.3956
7.292000	 35.3646
7.376000	 35.6857
7.460000	 35.5674
7.544000	 35.0016
7.628000	 34.9811
7.712000	 35.6073
7.796000	 35.5777
7.880000	 34.8159
7.964000	 34.6522
8.048000	 35.0885
8.132000	 35.5533
8.216000	 35.2355
8.300000	 34.6136
8.384000	 34.6478
8.468000	 35.0323
8.552000	 35.3537
8.635999	 34.9299
8.719999	 34.4133
8.804000	 34.506
8.888000	 34.7002
8.972000	 35.1391
9.056000	 35.0932
9.140000	 34.6775
9.224000	 34.0461
9.308000	 34.1171
9.391999	 34.5378
9.475999	 34.9218
9.560000	 34.8956
9.644000	 34.4211
9.728000	 33.8821
9.812000	 33.7575
9.896000	 34.0927
9.980000	 34.4328
10.064	34.5868
10.148	34.5917
10.232	34.107
10.316	33.8427
10.4	33.4625
10.484	33.4249
10.568	33.7208
10.652	34.0268
10.736	34.3277
10.82	34.2635
10.904	33.8027
10.988	33.2464
11.072	32.8561
11.156	33.0845
11.24	33.1802
11.324	33.5018
11.408	33.5466
11.492	33.5159
11.576	33.4797
11.66	33.2739
11.744	32.7925
11.828	32.3407
11.912	32.1946
11.996	32.2929
12.08	32.4217
12.164	32.7818
12.248	33.056
12.332	33.1913
12.416	32.8767
12.5	32.8171
12.584	32.6188
12.668	32.2055
12.752	31.9086
12.836	31.71
12.92	31.5765
13.004	31.6687
13.088	32.0665
13.172	32.5396
13.256	32.5662
13.34	32.2823
13.424	31.8216
13.508	31.5898
13.592	31.6833
13.676	31.5495
13.76	31.1817
13.844	30.892
13.928	30.7404
14.012	30.7423
14.096	31.0457
14.18	31.3917
14.264	31.3775
14.348	31.3084
14.432	31.3474
14.516	31.3304
14.6	31.3446
14.684	31.3011
14.768	31.1176
14.852	30.8604
14.936	30.5283
15.02	30.2068
15.104	29.9446
15.188	29.6604
15.272	29.4554
15.356	29.5551
15.44	29.9187
15.524	30.2161
15.608	30.2764
15.692	30.3142
15.776	30.4613
15.86	30.5741
15.944	30.5779
16.028	30.5229
16.112	30.4047
16.196	30.1924
16.28	29.94
16.364	29.7582
16.448	29.6536
16.532	29.5053
16.616	29.2612
16.7	29.0161
16.784	28.8323
16.868	28.6634
16.952	28.5138
17.036	28.4843
17.12	28.6032
17.204	28.7732
17.288	28.9148
17.372	29.0065
17.456	29.0512
17.54	29.1008
17.624	29.2005
17.708	29.2903
17.792	29.2817
17.876	29.1775
17.96	28.9939
18.044	28.7156
18.128	28.437
18.212	28.3201
18.296	28.3462
18.38	28.3348
18.464	28.2262
18.548	28.1425
18.632	28.1273
18.716	28.0603
18.8	27.8899
18.884	27.7635
18.968	27.8326
19.052	28.0403
19.136	28.1688
19.22	28.0781
19.304	27.854
19.388	27.6935
19.472	27.6859
19.556	27.742
19.64	27.7085
19.724	27.5222
19.808	27.2398
19.892	26.9502
19.976	26.7081
20.06	26.5368
20.144	26.4392
20.228	26.3961
20.312	26.3921
20.396	26.4369
20.48	26.5416
20.564	26.6727
20.648	26.7529
20.732	26.7252
20.816	26.6193
20.9	26.5276
20.984	26.5159
21.068	26.5782
21.152	26.6798
21.236	26.8133
21.32	26.9865
21.404	27.1676
21.488	27.2873
21.572	27.2932
21.656	27.1962
21.74	27.0498
21.824	26.8835
21.908	26.664
21.992	26.3454
22.076	25.9488
22.16	25.5873
22.244	25.3954
22.328	25.4182
22.412	25.5699
22.496	25.6772
22.58	25.5904
22.664	25.2587
22.748	24.7544
22.832	24.1999
22.916	23.7085
23	23.3337
23.084	23.0701
23.168	22.8818
23.252	22.7372
23.336	22.6212
23.42	22.5528
23.504	22.5617
23.588	22.6714
23.672	22.879
23.756	23.1485
23.84	23.4755
23.924	23.8992
24.008	24.4742
24.092	25.228
24.176	26.129
24.26	27.0972
24.344	28.002
24.428	28.697
24.512	29.0363
24.596	28.9375
24.68	28.4025
24.764	27.5254
24.848	26.4708
24.932	25.4308
25.016	24.5289
25.1	23.7574
25.184	22.9219
25.268	21.7534
25.352	20.0795
25.436	17.9788
25.52	15.8344
25.604	14.1754
25.688	13.4216
25.772	13.6358
25.856	14.495
25.94	15.4213
26.024	15.8267
26.108	15.4047
26.192	14.284
26.276	12.9273
26.36	11.9498
26.444	11.7315
26.528	12.2396
26.612	13.0214
26.696	13.5172
26.78	13.3764
26.864	12.6254
26.948	11.6491
27.028	10.9938

File: LPE453_t07_cm-1.asc
PE IR       SPECTRUM    SPECTRUM    ASCII       PEDS        1.60
  -1
LP67DA~1.ASC
17/05/16
14:55:42.00
17/05/16
14:55:42.00
tln
$LPE453_t0007$<tbV0>[-2.6,-13.0,8.0,0.0,27,1,0]
370
64

2002,4.07
MIRTGS : RIGHTBACK : INTERNAL 2
MIR : ON : INTERNAL 2
OPTKBR

0.200000
8
8.000000
FILLER
RATIO
SPECTRUM
UNLOCKED 256

DOUBLE
64
COMBINED
1
0
0

1.000000
RATIO

1
0
TRUE
51149
0
LEFT NOT FITTED RIGHT NOT FITTED 0
NONE
NONE
15600
12
4.427000
51148
TRUE
1 0 8 72 0 0 0 0

15798

#HDR
-1
-1
#GR
CM-1
%T
2.38419e-05
0.0
5000
-1.000000
4631
8
36.6264
-4.437541
#DATA
5000	0.276041
4984	-0.087928
4968	0.232315
4952	0.268363
4936	-0.373792
4920	0.109720
4904	0.013208
4888	0.415086
4872	-0.270915
4856	0.115323
4840	0.415420
4824	0.314760
4808	0.062179
4792	0.487875
4776	-0.305032
4760	0.069832
4744	-0.033164
4728	0.071620
4712	0.357127
4696	0.404143
4680	0.377416
4664	0.144839
4648	-0.313043
4632	0.360083
4616	0.556278
4600	0.293684
4584	0.726532
4568	0.456118
4552	0.178718
4536	-0.065040
4520	2.590632
4504	3.758811
4488	0.713825
4472	0.373840
4456	0.184607
4440	0.151133
4424	0.247502
4408	0.012111
4392	0.495505
4376	0.225663
4360	-0.086593
4344	0.159716
4328	0.058460
4312	-0.047826
4296	0.101304
4280	0.232744
4264	0.131130
4248	0.301408
4232	0.073075
4216	0.074481
4200	-0.171732
4184	0.432896
4168	0.067377
4152	0.088024
4136	0.294566
4120	0.454783
4104	0.067567
4088	-0.080108
4072	0.017905
4056	0.019168
4040	-0.029659
4024	0.071263
4008	0.253868
3992	0.156974
3976	0.157380
3960	-0.159049
3944	0.099849
3928	-0.003027
3912	0.002288
3896	-0.144982
3880	0.296568
3864	-0.177550
3848	0.157141
3832	0.231957
3816	-0.002694
3800	0.091028
3784	-0.008726
3768	0.095009
3752	0.113582
3736	0.286316
3720	0.090003
3704	-0.050616
3688	0.207066
3672	0.037384
3656	-0.077533
3640	0.082612
3624	-0.098466
3608	-0.017595
3592	-0.134611
3576	0.058436
3560	-0.071740
3544	0.072002
3528	0.118350
3512	0.086259
3496	0.046849
3480	0.180220
3464	0.041079
3448	-0.012254
3432	-0.010180
3416	0.116491
3400	-0.001811
3384	0.003314
3368	-0.085091
3352	-0.039982
3336	0.086259
3320	0.016093
3304	-0.033712
3288	0.009179
3272	0.129890
3256	0.196146
3240	-0.011086
3224	-0.054740
3208	0.047111
3192	0.047469
3176	-0.113058
3160	0.117063
3144	0.168657
3128	0.003314
3112	-0.015997
3096	0.227737
3080	-0.092816
3064	-0.014305
3048	0.114321
3032	0.160622
3016	0.006914
3000	0.088572
2984	-0.081110
2968	0.207233
2952	0.037598
2936	-0.098276
2920	0.080633
2904	0.054550
2888	0.067830
2872	-0.013566
2856	0.202035
2840	0.101995
2824	0.029468
2808	0.041842
2792	-0.070095
2776	0.099635
2760	0.002527
2744	-0.002145
2728	0.060510
2712	-0.092172
2696	0.005841
2680	-0.039267
2664	-0.009489
2648	-0.002217
2632	0.087952
2616	0.096821
2600	0.048089
2584	0.042319
2568	-0.070762
2552	0.248384
2536	0.023698
2520	0.036406
2504	-0.053071
2488	0.123786
2472	0.048327
2456	0.140333
2440	0.041651
2424	-0.003695
2408	0.086832
2392	0.026702
2376	0.156807
2360	0.085616
2344	0.251054
2328	0.353908
2312	0.393080
2296	0.601506
2280	0.961565
2264	1.238036
2248	1.743078
2232	2.555513
2216	3.422355
2200	4.598379
2184	5.943202
2168	7.450294
2152	9.344005
2136	11.2566
2120	13.2629
2104	15.2847
2088	17.3201
2072	19.2905
2056	21.7161
2040	23.2341
2024	24.879
2008	26.3462
1992	27.9402
1976	29.1473
1960	30.0519
1944	31.1569
1928	32.1292
1912	32.6555
1896	33.099
1880	33.9696
1864	34.3217
1848	34.446
1832	34.8428
1816	35.3954
1800	35.3475
1784	35.3128
1768	35.9885
1752	35.9686
1736	35.8321
1720	35.9908
1704	36.4562
1688	36.3002
1672	36.0601
1656	36.3791
1640	36.4477
1624	35.9632
1608	35.8985
1592	36.2723
1576	36.2035
1560	35.9813
1544	36.2385
1528	36.2487
1512	36.1886
1496	35.6298
1480	35.9763
1464	36.1969
1448	35.5902
1432	35.4059
1416	35.8979
1400	35.7373
1384	35.3004
1368	35.4569
1352	35.7068
1336	35.4423
1320	34.9226
1304	35.3035
1288	35.6313
1272	34.981
1256	34.6366
1240	35.1897
1224	35.5209
1208	34.7847
1192	34.6828
1176	35.1564
1160	35.1004
1144	34.3813
1128	34.602
1112	35.1599
1096	34.7973
1080	33.9796
1064	34.5757
1048	34.9481
1032	34.1832
1016	33.9088
1000	34.4607
984	 34.5506
968	 33.7805
952	 33.4755
936	 34.1621
920	 33.9793
904	 32.863
888	 33.2498
872	 33.5198
856	 33.1587
840	 32.1912
824	 32.6568
808	 33.0362
792	 32.4094
776	 31.6122
760	 32.483
744	 31.7374
728	 31.2887
712	 30.8244
696	 31.3164
680	 31.2639
664	 30.0789
648	 29.8817
632	 30.5381
616	 30.077
600	 29.1062
584	 28.6096
568	 29.1757
552	 28.4697
536	 28.1193
520	 28.0531
504	 27.1218
488	 26.5598
472	 26.7301
456	 26.5918
440	 24.8885
424	 22.6655
408	 29.033
392	 16.0661
376	 12.8827
370	 10.9938

File: LPE453_t08.asc
PE IR       SPECTRUM    SPECTRUM    ASCII       PEDS        1.60
  -1
LPE399~1.ASC
17/05/16
15:00:19.00
17/05/16
15:00:45.00
tln
$LPE453_t0008$<tbV0>[-5.2,-13.0,8.0,0.0,27,1,0]
27.028
64

2002,4.07
MIRTGS : RIGHTBACK : INTERNAL 2
MIR : ON : INTERNAL 2
OPTKBR

0.200000
8
8.000000
FILLER
RATIO
SPECTRUM
UNLOCKED 256

DOUBLE
64
COMBINED
1
0
0

0.002000
RATIO

1
0
TRUE
51149
0
LEFT NOT FITTED RIGHT NOT FITTED 0
NONE
NONE
15600
12
4.427000
51148
TRUE
1 0 8 72 0 0 0 0

15798

#HDR
-1
-1
#GR
µM
%T
2.38419e-05
0.0
2.000000
0.002000
12515
8
38.9097
-2.639225
#DATA
2.000000	 0.135898
2.084000	 0.456578
2.168000	 -0.234986
2.252000	 -0.390077
2.336000	 -0.014383
2.420000	 0.122354
2.504000	 -0.040484
2.588000	 -0.041566
2.672000	 0.069477
2.756000	 0.204068
2.840000	 0.002719
2.924000	 0.006237
3.008000	 0.183632
3.092000	 -0.034281
3.176000	 0.004839
3.260000	 0.172389
3.344000	 -0.048528
3.428000	 0.027995
3.512000	 0.022091
3.596000	 0.058583
3.680000	 0.100853
3.764000	 0.071062
3.848000	 0.026176
3.932000	 -0.029772
4.016000	 0.098051
4.100000	 0.040838
4.184000	 0.186688
4.268000	 0.119239
4.352000	 0.676576
4.436000	 1.616956
4.520000	 3.537465
4.604000	 6.517795
4.688000	 10.4667
4.772000	 14.7309
4.856000	 18.5009
4.940000	 21.9426
5.024000	 24.5028
5.108000	 26.2368
5.192000	 28.2455
5.276000	 28.712
5.359999	 30.2659
5.444000	 30.0902
5.528000	 31.039
5.612000	 30.8619
5.696000	 31.5065
5.780000	 31.2079
5.864000	 31.6256
5.948000	 32.0791
6.032000	 31.3539
6.116000	 32.2165
6.200000	 31.6575
6.284000	 31.3475
6.368000	 32.2031
6.452000	 31.5151
6.536000	 31.4068
6.620000	 32.1396
6.704000	 31.5495
6.788000	 31.263
6.872000	 32.1345
6.956000	 31.7148
7.040000	 30.9429
7.124000	 31.3056
7.208000	 32.1157
7.292000	 31.3915
7.376000	 30.9371
7.460000	 31.6078
7.544000	 32.0119
7.628000	 31.414
7.712000	 30.9248
7.796000	 31.3164
7.880000	 32.0255
7.964000	 31.6762
8.048000	 31.1783
8.132000	 30.8662
8.216000	 31.6005
8.300000	 31.9082
8.384000	 31.6042
8.468000	 31.0885
8.552000	 30.7523
8.635999	 31.4389
8.719999	 32.003
8.804000	 31.775
8.888000	 31.4871
8.972000	 30.9911
9.056000	 30.8684
9.140000	 31.4913
9.224000	 31.8581
9.308000	 31.9947
9.391999	 31.71
9.475999	 31.1059
9.560000	 30.9316
9.644000	 31.2629
9.728000	 31.7073
9.812000	 32.2506
9.896000	 31.9806
9.980000	 31.4834
10.064	30.9827
10.148	30.8378
10.232	31.1241
10.316	31.6881
10.4	31.8717
10.484	31.9951
10.568	31.6986
10.652	31.1421
10.736	30.9009
10.82	30.7399
10.904	30.8706
10.988	31.4152
11.072	31.782
11.156	31.8292
11.24	31.8721
11.324	31.5701
11.408	31.1513
11.492	30.7912
11.576	30.579
11.66	30.8481
11.744	31.1441
11.828	31.4359
11.912	31.7444
11.996	31.6807
12.08	31.6723
12.164	31.6552
12.248	31.2151
12.332	30.8795
12.416	30.6823
12.5	30.5785
12.584	30.7288
12.668	30.8094
12.752	30.8447
12.836	31.0535
12.92	31.4166
13.004	31.5751
13.088	31.3176
13.172	30.9851
13.256	30.5502
13.34	30.4107
13.424	30.3098
13.508	29.949
13.592	29.6741
13.676	29.8041
13.76	30.1789
13.844	30.5095
13.928	30.6167
14.012	30.7216
14.096	30.917
14.18	31.0411
14.264	30.9597
14.348	30.6878
14.432	30.3139
14.516	29.8931
14.6	29.5768
14.684	29.4187
14.768	29.359
14.852	29.4108
14.936	29.5929
15.02	29.8151
15.104	29.9427
15.188	30.0395
15.272	30.2092
15.356	30.3606
15.44	30.4364
15.524	30.3976
15.608	30.1159
15.692	29.7532
15.776	29.6447
15.86	29.6955
15.944	29.5337
16.028	29.1689
16.112	28.8708
16.196	28.6925
16.28	28.5812
16.364	28.5706
16.448	28.6491
16.532	28.7406
16.616	28.832
16.7	28.9229
16.784	28.9487
16.868	28.888
16.952	28.8178
17.036	28.7958
17.12	28.7986
17.204	28.795
17.288	28.7657
17.372	28.6491
17.456	28.4162
17.54	28.1861
17.624	28.0874
17.708	28.0477
17.792	27.9056
17.876	27.662
17.96	27.4712
18.044	27.4156
18.128	27.4312
18.212	27.4359
18.296	27.4046
18.38	27.3424
18.464	27.2849
18.548	27.3208
18.632	27.5248
18.716	27.8723
18.8	28.245
18.884	28.5128
18.968	28.6026
19.052	28.5248
19.136	28.3368
19.22	28.0875
19.304	27.8003
19.388	27.5073
19.472	27.2719
19.556	27.1417
19.64	27.0852
19.724	27.0041
19.808	26.8207
19.892	26.5333
19.976	26.1985
20.06	25.8806
20.144	25.6173
20.228	25.4328
20.312	25.3708
20.396	25.4812
20.48	25.7765
20.564	26.2068
20.648	26.682
20.732	27.1229
20.816	27.4856
20.9	27.7434
20.984	27.8669
21.068	27.8632
21.152	27.8334
21.236	27.9314
21.32	28.2251
21.404	28.5927
21.488	28.7987
21.572	28.6974
21.656	28.3552
21.74	27.9937
21.824	27.8107
21.908	27.8247
21.992	27.9022
22.076	27.9029
22.16	27.7877
22.244	27.6229
22.328	27.4662
22.412	27.2947
22.496	27.0191
22.58	26.5815
22.664	26.0334
22.748	25.5421
22.832	25.2738
22.916	25.3129
23	25.6024
23.084	26.0048
23.168	26.3458
23.252	26.5042
23.336	26.4501
23.42	26.24
23.504	25.9565
23.588	25.6935
23.672	25.5253
23.756	25.4728
23.84	25.5519
23.924	25.7951
24.008	26.2624
24.092	27.0153
24.176	28.0527
24.26	29.2611
24.344	30.4407
24.428	31.4266
24.512	32.1662
24.596	32.8035
24.68	33.6153
24.764	34.8352
24.848	36.449
24.932	38.0383
25.016	38.8896
25.1	38.2862
25.184	35.8425
25.268	31.7911
25.352	26.8896
25.436	22.213
25.52	18.6962
25.604	16.7989
25.688	16.4313
25.772	17.0888
25.856	18.2103
25.94	19.4203
26.024	20.6426
26.108	22.0466
26.192	23.7843
26.276	25.8127
26.36	27.7935
26.444	29.2273
26.528	29.6443
26.612	28.8989
26.696	27.0816
26.78	24.4609
26.864	21.3921
26.948	18.176
27.028	15.1355

File: LPE453_t08_cm-1.asc
PE IR       SPECTRUM    SPECTRUM    ASCII       PEDS        1.60
  -1
LP6759~1.ASC
17/05/16
15:00:19.00
17/05/16
15:00:19.00
tln
$LPE453_t0008$<tbV0>[-5.2,-13.0,8.0,0.0,27,1,0]
370
64

2002,4.07
MIRTGS : RIGHTBACK : INTERNAL 2
MIR : ON : INTERNAL 2
OPTKBR

0.200000
8
8.000000
FILLER
RATIO
SPECTRUM
UNLOCKED 256

DOUBLE
64
COMBINED
1
0
0

1.000000
RATIO

1
0
TRUE
51149
0
LEFT NOT FITTED RIGHT NOT FITTED 0
NONE
NONE
15600
12
4.427000
51148
TRUE
1 0 8 72 0 0 0 0

15798

#HDR
-1
-1
#GR
CM-1
%T
2.38419e-05
0.0
5000
-1.000000
4631
8
38.8246
-2.723741
#DATA
5000	0.135898
4984	-0.194025
4968	-0.088334
4952	0.489544
4936	0.047492
4920	-0.053071
4904	-0.170993
4888	-0.400972
4872	0.332617
4856	0.462412
4840	0.003433
4824	0.094199
4808	0.395226
4792	0.357317
4776	-0.034570
4760	0.094890
4744	0.235676
4728	-0.042963
4712	0.081562
4696	0.215411
4680	0.135827
4664	0.259971
4648	0.313019
4632	0.268840
4616	-0.386428
4600	-0.005388
4584	0.070452
4568	-2.415227
4552	-1.308917
4536	0.291132
4520	7.251048
4504	-2.081251
4488	-0.824832
4472	0.533390
4456	-0.542926
4440	-0.417590
4424	0.043034
4408	-0.347900
4392	-0.061917
4376	0.125408
4360	0.055241
4344	0.007486
4328	0.115299
4312	-0.023722
4296	0.123238
4280	-0.047373
4264	0.513458
4248	-0.063967
4232	-0.241208
4216	0.483298
4200	0.287580
4184	0.560092
4168	-0.217533
4152	-0.088453
4136	0.268006
4120	0.037431
4104	-0.033569
4088	0.165200
4072	0.059890
4056	0.089550
4040	0.003743
4024	0.245237
4008	-0.052380
3992	0.005626
3976	0.036048
3960	0.153613
3944	0.178432
3928	0.036478
3912	-0.019073
3896	0.045037
3880	0.189042
3864	-0.041317
3848	-0.039458
3832	0.104165
3816	0.162029
3800	0.055742
3784	0.102615
3768	-0.039958
3752	0.216174
3736	0.093269
3720	-0.010895
3704	0.021743
3688	-0.037598
3672	-0.002574
3656	-0.052237
3640	0.071620
3624	0.126338
3608	0.075864
3592	0.215840
3576	0.256896
3560	0.044131
3544	-0.021457
3528	-0.028896
3512	-0.119948
3496	-0.011920
3480	0.099205
3464	0.075149
3448	0.149774
3432	0.083422
3416	0.102925
3400	0.054764
3384	0.120592
3368	-0.019311
3352	0.078225
3336	0.109362
3320	0.087070
3304	0.019478
3288	0.037598
3272	0.115108
3256	-0.118541
3240	0.058245
3224	-0.114583
3208	0.061845
3192	0.126171
3176	0.124287
3160	-0.054144
3144	-0.021052
3128	-0.197911
3112	0.116539
3096	-0.015020
3080	0.093436
3064	0.189065
3048	0.064682
3032	0.191569
3016	0.109553
3000	-0.026154
2984	-0.123667
2968	0.003600
2952	0.072121
2936	0.143241
2920	0.052356
2904	0.088977
2888	0.194668
2872	0.064921
2856	0.006127
2840	-0.002574
2824	0.058865
2808	0.047230
2792	0.037717
2776	0.105929
2760	-0.028014
2744	0.186109
2728	-0.005435
2712	0.086927
2696	-0.014519
2680	0.142359
2664	-0.010609
2648	0.059175
2632	0.192332
2616	-0.078773
2600	0.030755
2584	0.206637
2568	-0.010991
2552	-0.120449
2536	0.088095
2520	0.065207
2504	0.095009
2488	0.093460
2472	0.058627
2456	0.063586
2440	0.042390
2424	0.203442
2408	0.005030
2392	0.219154
2376	0.111317
2360	0.161600
2344	0.105881
2328	0.409317
2312	0.420165
2296	0.701522
2280	0.909852
2264	1.321554
2248	1.816773
2232	2.564287
2216	3.332591
2200	4.284858
2184	5.519366
2168	6.927061
2152	8.452510
2136	10.1393
2120	11.9494
2104	13.794
2088	15.6578
2072	16.9733
2056	18.8079
2040	20.559
2024	21.9616
2008	22.9457
1992	24.3668
1976	25.7045
1960	26.1947
1944	26.8991
1928	28.1453
1912	28.6697
1896	28.7072
1880	29.4378
1864	30.2915
1848	30.2224
1832	30.2004
1816	30.8748
1800	31.2072
1784	30.9051
1768	31.013
1752	31.7055
1736	31.5417
1720	30.9843
1704	31.7379
1688	32.1405
1672	31.5376
1656	31.4568
1640	31.9447
1624	32.0243
1608	31.4219
1592	31.3198
1576	32.1605
1560	32.2101
1544	31.52
1528	31.4746
1512	32.1335
1496	31.7611
1480	31.1208
1464	31.681
1448	32.0283
1432	31.4
1416	30.9347
1400	31.551
1384	32.1401
1368	31.3359
1352	30.9354
1336	31.892
1320	31.8206
1304	31.1453
1288	31.1374
1272	31.9048
1256	31.6963
1240	31.0765
1224	31.1334
1208	31.8698
1192	31.5779
1176	30.9131
1160	31.2859
1144	32.0106
1128	31.554
1112	30.8652
1096	31.3308
1080	31.9965
1064	31.6719
1048	30.9468
1032	31.5481
1016	32.2916
1000	31.4058
984	 30.8617
968	 31.7422
952	 31.9779
936	 31.0304
920	 30.7502
904	 31.7631
888	 31.8208
872	 30.887
856	 30.9345
840	 31.7337
824	 31.7041
808	 30.7719
792	 30.7914
776	 31.2708
760	 31.049
744	 30.252
728	 30.0654
712	 30.7955
696	 30.6072
680	 29.3946
664	 29.89
648	 30.4322
632	 29.6801
616	 28.6335
600	 28.8902
584	 28.7987
568	 28.0979
552	 27.4284
536	 27.6162
520	 28.0524
504	 26.7169
488	 25.8304
472	 27.8503
456	 27.8454
440	 25.6479
424	 25.7017
408	 32.1487
392	 19.0244
376	 29.1324
370	 15.1355