Folder: Masteroppgave/Bakgrunnsmateriale/MATLAB/FTIR/ftir_data/LPE453/Mapping_121 (part 2)

File: LPE453_e124.asc
PE IR       SPECTRUM    SPECTRUM    ASCII       PEDS        1.60
  -1
LP8383~1.ASC
17/05/16
18:00:33.00
17/05/16
18:00:59.00
tln
$LPE453_e0124$<ebV0>[-23.3,12.1,10.0,0.0,27,1,0]
27.028
64

2002,4.07
MIRTGS : RIGHTBACK : INTERNAL 2
MIR : ON : INTERNAL 2
OPTKBR

0.200000
8
8.000000
FILLER
SINGLE
SPECTRUM
UNLOCKED 256

DOUBLE

COMBINED
1
0
0

0.002000
BACKG

1
0
TRUE
51149
0
LEFT NOT FITTED RIGHT NOT FITTED 0
NONE
NONE
15600
12
4.427000
51148
TRUE
1 0 8 72 0 0 0 0

15798

#HDR
-1
-1
#GR
µM
EGY
2.38419e-05
0.0
2.000000
0.002000
12515
8
2.420958
0.008201
#DATA
2.000000	 0.763392
2.084000	 0.862189
2.168000	 0.927793
2.252000	 1.009370
2.336000	 1.132737
2.420000	 1.228542
2.504000	 1.383937
2.588000	 1.442923
2.672000	 1.538891
2.756000	 1.563863
2.840000	 1.611711
2.924000	 1.571850
3.008000	 1.667712
3.092000	 1.760952
3.176000	 1.790640
3.260000	 1.906634
3.344000	 2.010930
3.428000	 1.820158
3.512000	 1.990099
3.596000	 2.192196
3.680000	 2.233948
3.764000	 2.200937
3.848000	 2.201595
3.932000	 2.269031
4.016000	 2.297352
4.100000	 2.262058
4.184000	 2.226062
4.268000	 2.237340
4.352000	 2.312950
4.436000	 2.347080
4.520000	 2.336287
4.604000	 2.308233
4.688000	 2.300879
4.772000	 2.305397
4.856000	 2.346382
4.940000	 2.401544
5.024000	 2.416672
5.108000	 2.391114
5.192000	 2.364566
5.276000	 2.332213
5.359999	 2.342573
5.444000	 2.365041
5.528000	 2.390519
5.612000	 2.389933
5.696000	 2.360634
5.780000	 2.288708
5.864000	 2.244107
5.948000	 2.202897
6.032000	 2.156120
6.116000	 2.104677
6.200000	 1.974164
6.284000	 1.981211
6.368000	 1.944594
6.452000	 1.923504
6.536000	 2.062970
6.620000	 2.047508
6.704000	 1.661640
6.788000	 1.942156
6.872000	 1.763981
6.956000	 1.833473
7.040000	 1.827037
7.124000	 1.699250
7.208000	 1.762100
7.292000	 1.787494
7.376000	 1.788432
7.460000	 1.787582
7.544000	 1.818839
7.628000	 1.823942
7.712000	 1.826319
7.796000	 1.822775
7.880000	 1.744893
7.964000	 1.731108
8.048000	 1.805369
8.132000	 1.799489
8.216000	 1.759007
8.300000	 1.719796
8.384000	 1.716196
8.468000	 1.688318
8.552000	 1.648458
8.635999	 1.599706
8.719999	 1.578394
8.804000	 1.553269
8.888000	 1.503597
8.972000	 1.448872
9.056000	 1.412453
9.140000	 1.403915
9.224000	 1.405776
9.308000	 1.406932
9.391999	 1.417717
9.475999	 1.337378
9.560000	 1.306798
9.644000	 1.363850
9.728000	 1.347448
9.812000	 1.339977
9.896000	 1.359036
9.980000	 1.375910
10.064	1.375341
10.148	1.363326
10.232	1.347269
10.316	1.328254
10.4	1.302005
10.484	1.272773
10.568	1.250819
10.652	1.237254
10.736	1.223188
10.82	1.207460
10.904	1.188003
10.988	1.161723
11.072	1.144564
11.156	1.134005
11.24	1.113358
11.324	1.064519
11.408	1.018439
11.492	1.031043
11.576	1.067308
11.66	1.077234
11.744	1.071972
11.828	1.062782
11.912	1.042570
11.996	0.978675
12.08	0.870272
12.164	0.840963
12.248	0.902621
12.332	0.934266
12.416	0.933820
12.5	0.932431
12.584	0.939181
12.668	0.953542
12.752	0.964721
12.836	0.967011
12.92	0.964398
13.004	0.959174
13.088	0.953466
13.172	0.949861
13.256	0.945783
13.34	0.938973
13.424	0.930684
13.508	0.921083
13.592	0.910303
13.676	0.897739
13.76	0.884442
13.844	0.871773
13.928	0.859292
14.012	0.846644
14.096	0.834092
14.18	0.821190
14.264	0.805711
14.348	0.784055
14.432	0.754777
14.516	0.728733
14.6	0.719890
14.684	0.722115
14.768	0.720909
14.852	0.713916
14.936	0.705843
15.02	0.699325
15.104	0.692532
15.188	0.683406
15.272	0.673128
15.356	0.662853
15.44	0.652981
15.524	0.643546
15.608	0.634543
15.692	0.626163
15.776	0.618409
15.86	0.610338
15.944	0.601205
16.028	0.591628
16.112	0.582028
16.196	0.571582
16.28	0.558743
16.364	0.543010
16.448	0.527350
16.532	0.517206
16.616	0.514487
16.7	0.515635
16.784	0.515558
16.868	0.512405
16.952	0.507240
17.036	0.502145
17.12	0.498924
17.204	0.497640
17.288	0.496988
17.372	0.495753
17.456	0.493311
17.54	0.489715
17.624	0.485140
17.708	0.480174
17.792	0.475515
17.876	0.471160
17.96	0.466890
18.044	0.462493
18.128	0.458084
18.212	0.453764
18.296	0.449608
18.38	0.445552
18.464	0.441295
18.548	0.436546
18.632	0.431358
18.716	0.425971
18.8	0.420595
18.884	0.415223
18.968	0.409793
19.052	0.404361
19.136	0.399159
19.22	0.394435
19.304	0.389800
19.388	0.384814
19.472	0.379122
19.556	0.373035
19.64	0.366969
19.724	0.361195
19.808	0.355580
19.892	0.349880
19.976	0.343774
20.06	0.337153
20.144	0.330077
20.228	0.322800
20.312	0.315578
20.396	0.308485
20.48	0.301684
20.564	0.295037
20.648	0.288492
20.732	0.281913
20.816	0.275255
20.9	0.268562
20.984	0.262017
21.068	0.255742
21.152	0.249926
21.236	0.244495
21.32	0.239232
21.404	0.233937
21.488	0.228348
21.572	0.222354
21.656	0.215879
21.74	0.209093
21.824	0.202107
21.908	0.195219
21.992	0.188676
22.076	0.182660
22.16	0.177281
22.244	0.172478
22.328	0.168166
22.412	0.164152
22.496	0.160096
22.58	0.155816
22.664	0.151230
22.748	0.146363
22.832	0.141397
22.916	0.136457
23	0.131748
23.084	0.127322
23.168	0.123008
23.252	0.118582
23.336	0.113828
23.42	0.108548
23.504	0.102968
23.588	0.097333
23.672	0.091975
23.756	0.087169
23.84	0.082952
23.924	0.079202
24.008	0.075569
24.092	0.071887
24.176	0.068100
24.26	0.064323
24.344	0.060709
24.428	0.057405
24.512	0.054279
24.596	0.051296
24.68	0.048247
24.764	0.045125
24.848	0.041975
24.932	0.039005
25.016	0.036347
25.1	0.034177
25.184	0.032400
25.268	0.030865
25.352	0.029458
25.436	0.028075
25.52	0.026627
25.604	0.025162
25.688	0.023748
25.772	0.022382
25.856	0.021127
25.94	0.019938
26.024	0.018736
26.108	0.017476
26.192	0.016246
26.276	0.015020
26.36	0.013847
26.444	0.012789
26.528	0.011868
26.612	0.011086
26.696	0.010411
26.78	0.009813
26.864	0.009227
26.948	0.008692
27.028	0.008201

File: LPE453_e124_cm-1.asc
PE IR       SPECTRUM    SPECTRUM    ASCII       PEDS        1.60
  -1
LP07BB~1.ASC
17/05/16
18:00:33.00
17/05/16
18:00:33.00
tln
$LPE453_e0124$<ebV0>[-23.3,12.1,10.0,0.0,27,1,0]
370
64

2002,4.07
MIRTGS : RIGHTBACK : INTERNAL 2
MIR : ON : INTERNAL 2
OPTKBR

0.200000
8
8.000000
FILLER
SINGLE
SPECTRUM
UNLOCKED 256

DOUBLE

COMBINED
1
0
0

1.000000
BACKG

1
0
TRUE
51149
0
LEFT NOT FITTED RIGHT NOT FITTED 0
NONE
NONE
15600
12
4.427000
51148
TRUE
1 0 8 72 0 0 0 0

15798

#HDR
-1
-1
#GR
CM-1
EGY
2.38419e-05
0.0
5000
-1.000000
4631
8
2.420949
0.008201
#DATA
5000	0.763392
4984	0.773787
4968	0.781106
4952	0.788950
4936	0.792741
4920	0.802040
4904	0.807833
4888	0.813317
4872	0.819444
4856	0.828003
4840	0.838565
4824	0.848007
4808	0.858116
4792	0.865149
4776	0.876975
4760	0.884199
4744	0.888323
4728	0.898814
4712	0.900483
4696	0.901818
4680	0.900268
4664	0.906324
4648	0.908350
4632	0.913906
4616	0.925445
4600	0.930809
4584	0.936222
4568	0.950336
4552	0.963306
4536	0.960969
4520	0.937438
4504	0.966119
4488	1.001954
4472	0.999069
4456	1.004767
4440	1.009082
4424	1.007485
4408	1.015186
4392	1.021528
4376	1.028251
4360	1.040077
4344	1.058506
4328	1.076006
4312	1.093339
4296	1.111602
4280	1.133704
4264	1.145911
4248	1.159954
4232	1.170921
4216	1.180195
4200	1.186156
4184	1.196527
4168	1.204991
4152	1.214623
4136	1.223587
4120	1.237535
4104	1.250410
4088	1.271152
4072	1.293444
4056	1.311087
4040	1.333689
4024	1.352524
4008	1.372742
3992	1.385760
3976	1.396751
3960	1.405501
3944	1.410794
3928	1.417303
3912	1.421880
3896	1.424217
3880	1.434803
3864	1.442909
3848	1.454377
3832	1.469373
3816	1.483821
3800	1.499986
3784	1.527357
3768	1.536631
3752	1.531386
3736	1.548147
3720	1.564836
3704	1.565003
3688	1.557588
3672	1.555109
3656	1.562690
3640	1.569271
3624	1.568269
3608	1.576066
3592	1.582908
3576	1.593661
3560	1.600933
3544	1.608228
3528	1.608729
3512	1.610493
3496	1.604413
3480	1.598429
3464	1.589274
3448	1.579141
3432	1.570868
3416	1.572418
3400	1.583123
3384	1.592803
3368	1.604270
3352	1.627588
3336	1.651144
3320	1.674342
3304	1.693820
3288	1.713681
3272	1.733899
3256	1.746797
3240	1.758193
3224	1.767635
3208	1.769375
3192	1.773977
3176	1.776456
3160	1.783585
3144	1.796269
3128	1.811552
3112	1.835107
3096	1.862239
3080	1.894593
3064	1.910805
3048	1.938748
3032	1.954150
3016	1.939892
3000	2.001214
2984	2.002930
2968	1.935935
2952	1.898503
2936	1.796817
2920	1.784825
2904	1.927375
2888	1.975798
2872	1.961874
2856	1.903295
2840	2.043867
2824	2.103328
2808	2.141380
2792	2.169084
2776	2.200961
2760	2.215838
2744	2.229118
2728	2.232336
2712	2.231431
2696	2.221322
2680	2.213907
2664	2.206468
2648	2.199435
2632	2.197933
2616	2.200627
2600	2.201366
2584	2.213883
2568	2.237963
2552	2.259063
2536	2.277493
2520	2.291464
2504	2.298402
2488	2.296352
2472	2.291941
2456	2.280569
2440	2.263569
2424	2.251172
2408	2.236461
2392	2.227663
2376	2.217936
2360	2.209925
2344	2.237200
2328	2.256584
2312	2.289199
2296	2.314567
2280	2.332544
2264	2.344918
2248	2.346801
2232	2.347207
2216	2.338743
2200	2.327847
2184	2.314019
2168	2.306938
2152	2.300763
2136	2.302336
2120	2.300620
2104	2.305817
2088	2.304768
2072	2.324509
2056	2.353310
2040	2.385306
2024	2.401757
2008	2.414250
1992	2.417778
1976	2.410960
1960	2.393960
1944	2.379775
1928	2.367067
1912	2.348256
1896	2.332496
1880	2.336621
1864	2.344179
1848	2.353644
1832	2.366328
1816	2.385139
1800	2.389454
1784	2.390813
1768	2.371883
1752	2.348828
1736	2.291393
1720	2.271771
1704	2.237248
1688	2.213406
1672	2.192664
1656	2.144122
1640	2.121138
1624	2.069950
1608	1.941418
1592	1.980900
1576	1.949858
1560	1.895928
1544	1.921534
1528	2.072429
1512	2.055597
1496	1.673793
1480	1.928877
1464	1.904940
1448	1.757812
1432	1.840257
1416	1.812934
1400	1.704525
1384	1.759839
1368	1.788663
1352	1.786899
1336	1.797652
1320	1.823258
1304	1.824426
1288	1.826548
1272	1.776099
1256	1.727151
1240	1.807665
1224	1.788568
1208	1.723647
1192	1.715135
1176	1.674103
1160	1.606774
1144	1.573610
1128	1.517701
1112	1.437020
1096	1.404380
1080	1.404500
1064	1.416707
1048	1.287508
1032	1.356911
1016	1.344895
1000	1.377177
984	 1.360535
968	 1.324129
952	 1.266217
936	 1.232409
920	 1.196932
904	 1.145982
888	 1.103806
872	 1.021552
856	 1.076507
840	 1.045393
824	 0.835299
808	 0.935435
792	 0.945925
776	 0.965785
760	 0.950384
744	 0.928854
728	 0.888156
712	 0.841712
696	 0.777673
680	 0.722503
664	 0.696301
648	 0.653886
632	 0.614023
616	 0.566196
600	 0.515079
584	 0.498843
568	 0.486207
552	 0.458717
536	 0.429797
520	 0.393843
504	 0.353360
488	 0.300741
472	 0.247645
456	 0.193476
440	 0.147581
424	 0.097537
408	 0.054359
392	 0.026798
376	 0.011229
370	 0.008201

File: LPE453_e125.asc
PE IR       SPECTRUM    SPECTRUM    ASCII       PEDS        1.60
  -1
LP8783~1.ASC
17/05/16
19:49:28.00
17/05/16
19:49:54.00
tln
$LPE453_e0125$<ebV0>[-23.3,12.1,10.0,0.0,27,1,0]
27.028
64

2002,4.07
MIRTGS : RIGHTBACK : INTERNAL 2
MIR : ON : INTERNAL 2
OPTKBR

0.200000
8
8.000000
FILLER
SINGLE
SPECTRUM
UNLOCKED 256

DOUBLE

COMBINED
1
0
0

0.002000
BACKG

1
0
TRUE
51149
0
LEFT NOT FITTED RIGHT NOT FITTED 0
NONE
NONE
15600
12
4.427000
51148
TRUE
1 0 8 72 0 0 0 0

15798

#HDR
-1
-1
#GR
µM
EGY
2.38419e-05
0.0
2.000000
0.002000
12515
8
2.421068
0.007271
#DATA
2.000000	 0.766324
2.084000	 0.861894
2.168000	 0.923527
2.252000	 1.014751
2.336000	 1.130766
2.420000	 1.227328
2.504000	 1.384842
2.588000	 1.441083
2.672000	 1.541613
2.756000	 1.565471
2.840000	 1.610964
2.924000	 1.569549
3.008000	 1.668710
3.092000	 1.763245
3.176000	 1.793882
3.260000	 1.909734
3.344000	 2.010488
3.428000	 1.820814
3.512000	 1.992787
3.596000	 2.192009
3.680000	 2.232579
3.764000	 2.201590
3.848000	 2.203392
3.932000	 2.270071
4.016000	 2.300125
4.100000	 2.264776
4.184000	 2.226824
4.268000	 2.236051
4.352000	 2.309272
4.436000	 2.346063
4.520000	 2.338411
4.604000	 2.306567
4.688000	 2.302601
4.772000	 2.305064
4.856000	 2.350965
4.940000	 2.406094
5.024000	 2.419500
5.108000	 2.394544
5.192000	 2.366029
5.276000	 2.333675
5.359999	 2.342076
5.444000	 2.367248
5.528000	 2.391589
5.612000	 2.390337
5.696000	 2.359282
5.780000	 2.288036
5.864000	 2.244744
5.948000	 2.202390
6.032000	 2.155476
6.116000	 2.102954
6.200000	 1.977378
6.284000	 1.981352
6.368000	 1.947531
6.452000	 1.926550
6.536000	 2.063803
6.620000	 2.048485
6.704000	 1.663666
6.788000	 1.944807
6.872000	 1.765335
6.956000	 1.835435
7.040000	 1.827489
7.124000	 1.701959
7.208000	 1.758400
7.292000	 1.787591
7.376000	 1.787611
7.460000	 1.788895
7.544000	 1.819518
7.628000	 1.826068
7.712000	 1.825085
7.796000	 1.820698
7.880000	 1.743605
7.964000	 1.732637
8.048000	 1.805457
8.132000	 1.798854
8.216000	 1.758170
8.300000	 1.720520
8.384000	 1.715983
8.468000	 1.687127
8.552000	 1.650815
8.635999	 1.599055
8.719999	 1.584527
8.804000	 1.552479
8.888000	 1.505833
8.972000	 1.449839
9.056000	 1.412232
9.140000	 1.404430
9.224000	 1.410344
9.308000	 1.409043
9.391999	 1.416093
9.475999	 1.339673
9.560000	 1.307956
9.644000	 1.366292
9.728000	 1.351497
9.812000	 1.338963
9.896000	 1.360083
9.980000	 1.379654
10.064	1.377008
10.148	1.363758
10.232	1.346434
10.316	1.325791
10.4	1.299852
10.484	1.273421
10.568	1.252655
10.652	1.238022
10.736	1.224292
10.82	1.207605
10.904	1.188187
10.988	1.159964
11.072	1.141179
11.156	1.134330
11.24	1.115010
11.324	1.061870
11.408	1.016668
11.492	1.033958
11.576	1.069376
11.66	1.077159
11.744	1.070177
11.828	1.060796
11.912	1.039956
11.996	0.975850
12.08	0.867778
12.164	0.836990
12.248	0.899790
12.332	0.933030
12.416	0.931390
12.5	0.929093
12.584	0.937523
12.668	0.952216
12.752	0.962584
12.836	0.964795
12.92	0.962253
13.004	0.958700
13.088	0.954919
13.172	0.949449
13.256	0.941903
13.34	0.934605
13.424	0.929410
13.508	0.920385
13.592	0.908600
13.676	0.897532
13.76	0.885297
13.844	0.873064
13.928	0.862280
14.012	0.850154
14.096	0.835812
14.18	0.821379
14.264	0.806564
14.348	0.787394
14.432	0.759591
14.516	0.731715
14.6	0.720781
14.684	0.723138
14.768	0.722717
14.852	0.716595
14.936	0.708142
15.02	0.698966
15.104	0.690917
15.188	0.684148
15.272	0.676212
15.356	0.666263
15.44	0.655735
15.524	0.645224
15.608	0.634713
15.692	0.625190
15.776	0.617333
15.86	0.610494
15.944	0.603475
16.028	0.595624
16.112	0.586784
16.196	0.575998
16.28	0.561951
16.364	0.544859
16.448	0.528298
16.532	0.517418
16.616	0.514117
16.7	0.515071
16.784	0.515474
16.868	0.512962
16.952	0.508279
17.036	0.503433
17.12	0.499680
17.204	0.496904
17.288	0.494520
17.372	0.492357
17.456	0.490376
17.54	0.488093
17.624	0.485016
17.708	0.481256
17.792	0.477084
17.876	0.472829
17.96	0.468497
18.044	0.463993
18.128	0.459107
18.212	0.453984
18.296	0.449033
18.38	0.444602
18.464	0.440343
18.548	0.435554
18.632	0.430156
18.716	0.424725
18.8	0.419652
18.884	0.414624
18.968	0.409128
19.052	0.403210
19.136	0.397320
19.22	0.391883
19.304	0.386962
19.388	0.382478
19.472	0.378236
19.556	0.373870
19.64	0.368869
19.724	0.362982
19.808	0.356379
19.892	0.349471
19.976	0.342603
20.06	0.336011
20.144	0.329697
20.228	0.323521
20.312	0.317183
20.396	0.310229
20.48	0.302538
20.564	0.294325
20.648	0.286186
20.732	0.278612
20.816	0.271970
20.9	0.266316
20.984	0.261301
21.068	0.256530
21.152	0.251474
21.236	0.245950
21.32	0.240013
21.404	0.233956
21.488	0.228003
21.572	0.222104
21.656	0.216204
21.74	0.210077
21.824	0.203642
21.908	0.196881
21.992	0.190008
22.076	0.183366
22.16	0.177255
22.244	0.171931
22.328	0.167398
22.412	0.163475
22.496	0.159853
22.58	0.156202
22.664	0.152322
22.748	0.148054
22.832	0.143426
22.916	0.138425
23	0.133051
23.084	0.127464
23.168	0.121768
23.252	0.116123
23.336	0.110701
23.42	0.105572
23.504	0.100727
23.588	0.096081
23.672	0.091608
23.756	0.087324
23.84	0.083266
23.924	0.079416
24.008	0.075773
24.092	0.072234
24.176	0.068681
24.26	0.065075
24.344	0.061418
24.428	0.057787
24.512	0.054344
24.596	0.051184
24.68	0.048390
24.764	0.045981
24.848	0.043744
24.932	0.041585
25.016	0.039334
25.1	0.036984
25.184	0.034525
25.268	0.032020
25.352	0.029642
25.436	0.027518
25.52	0.025613
25.604	0.023976
25.688	0.022530
25.772	0.021167
25.856	0.019812
25.94	0.018407
26.024	0.016915
26.108	0.015360
26.192	0.013874
26.276	0.012507
26.36	0.011351
26.444	0.010487
26.528	0.009902
26.612	0.009548
26.696	0.009272
26.78	0.008988
26.864	0.008576
26.948	0.007966
27.028	0.007271

File: LPE453_e125_cm-1.asc
PE IR       SPECTRUM    SPECTRUM    ASCII       PEDS        1.60
  -1
LP08BB~1.ASC
17/05/16
19:49:28.00
17/05/16
19:49:28.00
tln
$LPE453_e0125$<ebV0>[-23.3,12.1,10.0,0.0,27,1,0]
370
64

2002,4.07
MIRTGS : RIGHTBACK : INTERNAL 2
MIR : ON : INTERNAL 2
OPTKBR

0.200000
8
8.000000
FILLER
SINGLE
SPECTRUM
UNLOCKED 256

DOUBLE

COMBINED
1
0
0

1.000000
BACKG

1
0
TRUE
51149
0
LEFT NOT FITTED RIGHT NOT FITTED 0
NONE
NONE
15600
12
4.427000
51148
TRUE
1 0 8 72 0 0 0 0

15798

#HDR
-1
-1
#GR
CM-1
EGY
2.38419e-05
0.0
5000
-1.000000
4631
8
2.421069
0.007271
#DATA
5000	0.766324
4984	0.778579
4968	0.782632
4952	0.788092
4936	0.791406
4920	0.797486
4904	0.805377
4888	0.814080
4872	0.819921
4856	0.824880
4840	0.838208
4824	0.846672
4808	0.858187
4792	0.866246
4776	0.879645
4760	0.884699
4744	0.888681
4728	0.894284
4712	0.905704
4696	0.907182
4680	0.894713
4664	0.896191
4648	0.926065
4632	0.918698
4616	0.920486
4600	0.935626
4584	0.948667
4568	0.955247
4552	0.967001
4536	0.979351
4520	0.999069
4504	1.004147
4488	0.852012
4472	1.049351
4456	1.013183
4440	1.014852
4424	1.020097
4408	1.021528
4392	1.025867
4376	1.036286
4360	1.047229
4344	1.058340
4328	1.079559
4312	1.095533
4296	1.113510
4280	1.131510
4264	1.147508
4248	1.159071
4232	1.170969
4216	1.180553
4200	1.189994
4184	1.191020
4168	1.205754
4152	1.215791
4136	1.224350
4120	1.240658
4104	1.254439
4088	1.267886
4072	1.294016
4056	1.312994
4040	1.334118
4024	1.354360
4008	1.375699
3992	1.385569
3976	1.396250
3960	1.406216
3944	1.411724
3928	1.417255
3912	1.424551
3896	1.427125
3880	1.435494
3864	1.441073
3848	1.452279
3832	1.470589
3816	1.486730
3800	1.504302
3784	1.528692
3768	1.539444
3752	1.534748
3736	1.549267
3720	1.563072
3704	1.563024
3688	1.558709
3672	1.553821
3656	1.562166
3640	1.570105
3624	1.568651
3608	1.574754
3592	1.585102
3576	1.592850
3560	1.601266
3544	1.605343
3528	1.607823
3512	1.608991
3496	1.605391
3480	1.597356
3464	1.591730
3448	1.581263
3432	1.570820
3416	1.573038
3400	1.578879
3384	1.591324
3368	1.606130
3352	1.628732
3336	1.653289
3320	1.674246
3304	1.696491
3288	1.718568
3272	1.735353
3256	1.749086
3240	1.760149
3224	1.766180
3208	1.770305
3192	1.773405
3176	1.778531
3160	1.784348
3144	1.795864
3128	1.810956
3112	1.835846
3096	1.861476
3080	1.891589
3064	1.913714
3048	1.940703
3032	1.955461
3016	1.941633
3000	2.002716
2984	2.007055
2968	1.938986
2952	1.902675
2936	1.798009
2920	1.786756
2904	1.928782
2888	1.977539
2872	1.963496
2856	1.909756
2840	2.046990
2824	2.105641
2808	2.143645
2792	2.171611
2776	2.200722
2760	2.221536
2744	2.230048
2728	2.233219
2712	2.229762
2696	2.223396
2680	2.217149
2664	2.203989
2648	2.199292
2632	2.199053
2616	2.200031
2600	2.202653
2584	2.215290
2568	2.239155
2552	2.258419
2536	2.280950
2520	2.291560
2504	2.297616
2488	2.300834
2472	2.293133
2456	2.279376
2440	2.265262
2424	2.248167
2408	2.237915
2392	2.227401
2376	2.219033
2360	2.211833
2344	2.235817
2328	2.257633
2312	2.286958
2296	2.312469
2280	2.330660
2264	2.342486
2248	2.349758
2232	2.348303
2216	2.340722
2200	2.329516
2184	2.317094
2168	2.305293
2152	2.303981
2136	2.303457
2120	2.305483
2104	2.305126
2088	2.305388
2072	2.322459
2056	2.356576
2040	2.385616
2024	2.406358
2008	2.418422
1992	2.420115
1976	2.410316
1960	2.395725
1944	2.382469
1928	2.368831
1912	2.350044
1896	2.334046
1880	2.338242
1864	2.343583
1848	2.354407
1832	2.366971
1816	2.385568
1800	2.390122
1784	2.390384
1768	2.373552
1752	2.348279
1736	2.290034
1720	2.273464
1704	2.237820
1688	2.214121
1672	2.194023
1656	2.143359
1640	2.118110
1624	2.073192
1608	1.943540
1592	1.981306
1576	1.952123
1560	1.897335
1544	1.924991
1528	2.072763
1512	2.056550
1496	1.676487
1480	1.930618
1464	1.908159
1448	1.758456
1432	1.843404
1416	1.813554
1400	1.706314
1384	1.755809
1368	1.788806
1352	1.785874
1336	1.797366
1320	1.822400
1304	1.824426
1288	1.825070
1272	1.774930
1256	1.728773
1240	1.806497
1224	1.786136
1208	1.723933
1192	1.714825
1176	1.673913
1160	1.606154
1144	1.578426
1128	1.519489
1112	1.436829
1096	1.405358
1080	1.408958
1064	1.415181
1048	1.289772
1032	1.360511
1016	1.344108
1000	1.380300
984	 1.360797
968	 1.321625
952	 1.267862
936	 1.233625
920	 1.197433
904	 1.142573
888	 1.104593
872	 1.023626
856	 1.075911
840	 1.042866
824	 0.831675
808	 0.933837
792	 0.944805
776	 0.963544
760	 0.950551
744	 0.928044
728	 0.888895
712	 0.844693
696	 0.781607
680	 0.723695
664	 0.694870
648	 0.656723
632	 0.613498
616	 0.570154
600	 0.514507
584	 0.499558
568	 0.485754
552	 0.459837
536	 0.428509
520	 0.391221
504	 0.353670
488	 0.301408
472	 0.249242
456	 0.195097
440	 0.149154
424	 0.096249
408	 0.054430
392	 0.025820
376	 0.009608
370	 0.007271