Folder: Masteroppgave/Bakgrunnsmateriale/MATLAB/FTIR/ftir_data/LPE453/Mapping_121 (part 31)

File: LPE453_t69.asc
PE IR       SPECTRUM    SPECTRUM    ASCII       PEDS        1.60
  -1
LPEBAD~1.ASC
17/05/16
20:04:17.00
17/05/16
20:04:44.00
tln
$LPE453_t0069$<tbV0>[7.8,2.6,8.0,0.0,27,1,0]
27.028
64

2002,4.07
MIRTGS : RIGHTBACK : INTERNAL 2
MIR : ON : INTERNAL 2
OPTKBR

0.200000
8
8.000000
FILLER
RATIO
SPECTRUM
UNLOCKED 256

DOUBLE
64
COMBINED
1
0
0

0.002000
RATIO

1
0
TRUE
51149
0
LEFT NOT FITTED RIGHT NOT FITTED 0
NONE
NONE
15600
12
4.427000
51148
TRUE
1 0 8 72 0 0 0 0

15798

#HDR
-1
-1
#GR
µM
%T
2.38419e-05
0.0
2.000000
0.002000
12515
8
29.3256
-8.970807
#DATA
2.000000	 0.450301
2.084000	 -0.109334
2.168000	 0.023461
2.252000	 -0.602376
2.336000	 0.189706
2.420000	 -0.000628
2.504000	 0.056558
2.588000	 -0.004918
2.672000	 -0.003998
2.756000	 0.037959
2.840000	 0.190745
2.924000	 -0.060504
3.008000	 0.058673
3.092000	 0.013888
3.176000	 0.017893
3.260000	 0.018710
3.344000	 0.038007
3.428000	 -0.024642
3.512000	 0.033718
3.596000	 0.049755
3.680000	 -0.082633
3.764000	 0.120182
3.848000	 -0.018234
3.932000	 0.079714
4.016000	 0.113600
4.100000	 -0.091054
4.184000	 -0.065423
4.268000	 -0.055162
4.352000	 0.038077
4.436000	 0.156141
4.520000	 0.930630
4.604000	 2.677848
4.688000	 5.197819
4.772000	 8.656553
4.856000	 12.3285
4.940000	 15.8562
5.024000	 18.7958
5.108000	 21.1557
5.192000	 22.9018
5.276000	 24.3014
5.359999	 25.2611
5.444000	 25.8901
5.528000	 26.4967
5.612000	 26.8932
5.696000	 27.2261
5.780000	 27.2913
5.864000	 27.4146
5.948000	 27.592
6.032000	 27.6316
6.116000	 27.676
6.200000	 27.5592
6.284000	 27.5677
6.368000	 27.3811
6.452000	 27.513
6.536000	 27.4806
6.620000	 27.4671
6.704000	 27.1822
6.788000	 27.2643
6.872000	 27.2063
6.956000	 27.1685
7.040000	 27.1473
7.124000	 27.092
7.208000	 27.154
7.292000	 27.0512
7.376000	 26.93
7.460000	 26.8433
7.544000	 26.8453
7.628000	 26.6897
7.712000	 26.7442
7.796000	 26.6368
7.880000	 26.565
7.964000	 26.5652
8.048000	 26.3902
8.132000	 26.288
8.216000	 26.3061
8.300000	 26.3297
8.384000	 26.3384
8.468000	 26.1058
8.552000	 26.1239
8.635999	 25.9938
8.719999	 25.7363
8.804000	 25.9021
8.888000	 25.8704
8.972000	 25.7915
9.056000	 25.6532
9.140000	 25.5126
9.224000	 25.6243
9.308000	 25.3503
9.391999	 25.3638
9.475999	 25.244
9.560000	 25.1455
9.644000	 24.9961
9.728000	 24.8418
9.812000	 24.9886
9.896000	 24.7898
9.980000	 24.7224
10.064	24.5963
10.148	24.5826
10.232	24.4329
10.316	24.4237
10.4	24.4361
10.484	24.2013
10.568	23.9524
10.652	23.9105
10.736	23.662
10.82	23.7331
10.904	23.9795
10.988	23.8274
11.072	23.6569
11.156	23.2633
11.24	23.1494
11.324	23.3757
11.408	23.1687
11.492	22.9905
11.576	22.8846
11.66	22.7489
11.744	22.7481
11.828	22.7102
11.912	22.6084
11.996	22.6167
12.08	22.4671
12.164	22.415
12.248	22.3297
12.332	22.1038
12.416	21.8427
12.5	21.8562
12.584	21.8773
12.668	21.712
12.752	21.4199
12.836	21.2439
12.92	21.2468
13.004	21.0784
13.088	20.8966
13.172	20.6597
13.256	20.8011
13.34	21.0357
13.424	20.9728
13.508	20.7519
13.592	20.5257
13.676	20.4924
13.76	20.5599
13.844	20.5253
13.928	20.3827
14.012	20.1825
14.096	19.9066
14.18	19.6485
14.264	19.5291
14.348	19.5226
14.432	19.5534
14.516	19.5007
14.6	19.3545
14.684	19.2583
14.768	19.1713
14.852	19.0152
14.936	18.9437
15.02	18.9804
15.104	19.0253
15.188	19.0121
15.272	18.8907
15.356	18.7519
15.44	18.6478
15.524	18.4783
15.608	18.225
15.692	17.9985
15.776	17.8914
15.86	17.8964
15.944	17.9311
16.028	17.9276
16.112	17.8613
16.196	17.7096
16.28	17.5305
16.364	17.477
16.448	17.5568
16.532	17.6036
16.616	17.5702
16.7	17.5242
16.784	17.4373
16.868	17.3079
16.952	17.2379
17.036	17.2404
17.12	17.2027
17.204	17.0813
17.288	16.9721
17.372	16.954
17.456	16.953
17.54	16.8188
17.624	16.5288
17.708	16.2174
17.792	15.99
17.876	15.8369
17.96	15.7518
18.044	15.7968
18.128	15.9861
18.212	16.2206
18.296	16.3917
18.38	16.4742
18.464	16.4699
18.548	16.3575
18.632	16.1467
18.716	15.9301
18.8	15.8179
18.884	15.8261
18.968	15.868
19.052	15.8342
19.136	15.6606
19.22	15.3542
19.304	15.0165
19.388	14.7984
19.472	14.7858
19.556	14.9158
19.64	15.0208
19.724	14.9711
19.808	14.775
19.892	14.5443
19.976	14.3821
20.06	14.2919
20.144	14.1855
20.228	13.9789
20.312	13.6987
20.396	13.4836
20.48	13.4602
20.564	13.6151
20.648	13.8001
20.732	13.8729
20.816	13.8262
20.9	13.7714
20.984	13.806
21.068	13.909
21.152	13.9804
21.236	13.957
21.32	13.8699
21.404	13.7988
21.488	13.7851
21.572	13.797
21.656	13.7726
21.74	13.6867
21.824	13.5837
21.908	13.5387
21.992	13.5815
22.076	13.6614
22.16	13.6725
22.244	13.532
22.328	13.2386
22.412	12.8772
22.496	12.5613
22.58	12.3516
22.664	12.2382
22.748	12.1553
22.832	12.0444
22.916	11.9056
23	11.7458
23.084	11.5846
23.168	11.4251
23.252	11.2498
23.336	11.0552
23.42	10.8812
23.504	10.7734
23.588	10.7279
23.672	10.6729
23.756	10.4939
23.84	10.1024
23.924	9.517887
24.008	8.877477
24.092	8.397180
24.176	8.299396
24.26	8.847815
24.344	10.308
24.428	12.8036
24.512	16.2528
24.596	20.2889
24.68	24.2661
24.764	27.4095
24.848	29.1215
24.932	29.0803
25.016	27.4036
25.1	24.5997
25.184	21.5022
25.268	19.0167
25.352	17.9021
25.436	18.4736
25.52	20.429
25.604	23.0056
25.688	25.1763
25.772	25.9619
25.856	24.7144
25.94	21.1996
26.024	15.6896
26.108	8.938759
26.192	2.034227
26.276	-3.854094
26.36	-7.695703
26.444	-8.970807
26.528	-7.803318
26.612	-4.853261
26.696	-1.122006
26.78	2.306059
26.864	4.686576
26.948	5.962973
27.028	6.894373

File: LPE453_t69_cm-1.asc
PE IR       SPECTRUM    SPECTRUM    ASCII       PEDS        1.60
  -1
LP6AD9~1.ASC
17/05/16
20:04:17.00
17/05/16
20:04:17.00
tln
$LPE453_t0069$<tbV0>[7.8,2.6,8.0,0.0,27,1,0]
370
64

2002,4.07
MIRTGS : RIGHTBACK : INTERNAL 2
MIR : ON : INTERNAL 2
OPTKBR

0.200000
8
8.000000
FILLER
RATIO
SPECTRUM
UNLOCKED 256

DOUBLE
64
COMBINED
1
0
0

1.000000
RATIO

1
0
TRUE
51149
0
LEFT NOT FITTED RIGHT NOT FITTED 0
NONE
NONE
15600
12
4.427000
51148
TRUE
1 0 8 72 0 0 0 0

15798

#HDR
-1
-1
#GR
CM-1
%T
2.38419e-05
0.0
5000
-1.000000
4631
8
29.3076
-8.951997
#DATA
5000	0.450301
4984	0.305628
4968	-0.012683
4952	0.616526
4936	0.187778
4920	0.179386
4904	0.127434
4888	-0.026416
4872	0.176501
4856	0.167775
4840	0.151991
4824	0.208473
4808	0.078725
4792	-0.396537
4776	0.439929
4760	0.329661
4744	0.120425
4728	0.311756
4712	-0.841879
4696	1.797938
4680	0.066375
4664	0.380825
4648	-0.310134
4632	0.054240
4616	-0.023007
4600	0.484442
4584	0.294804
4568	0.014114
4552	0.000715
4536	0.055241
4520	-0.602269
4504	1.687264
4488	15.9899
4472	1.359915
4456	-0.817418
4440	-0.660133
4424	0.205826
4408	0.202894
4392	0.250720
4376	0.183820
4360	-0.150322
4344	0.628685
4328	0.344419
4312	0.517439
4296	0.478577
4280	0.200200
4264	-0.283288
4248	-0.117230
4232	-0.140738
4216	0.169944
4200	-0.018429
4184	0.643396
4168	0.343537
4152	0.196146
4136	0.108504
4120	-0.236964
4104	-0.024771
4088	0.122070
4072	-0.037789
4056	-0.166320
4040	0.066065
4024	0.328755
4008	-0.170016
3992	0.076055
3976	0.134539
3960	0.199675
3944	0.031232
3928	0.122094
3912	0.167322
3896	-0.027799
3880	0.023460
3864	-0.004982
3848	0.116324
3832	-0.024008
3816	0.097918
3800	0.216794
3784	0.089216
3768	0.033020
3752	0.030231
3736	0.090169
3720	0.052499
3704	0.174331
3688	0.057077
3672	0.120186
3656	-0.034165
3640	0.012278
3624	0.026249
3608	0.035929
3592	-0.008058
3576	0.048351
3560	0.076556
3544	0.102543
3528	0.232028
3512	0.069975
3496	0.019025
3480	0.030851
3464	0.062346
3448	-0.049328
3432	0.139641
3416	-0.102543
3400	0.005102
3384	0.002598
3368	0.013542
3352	-0.110912
3336	0.264453
3320	0.096821
3304	0.073099
3288	0.085139
3272	0.195765
3256	0.063180
3240	0.020265
3224	-0.008153
3208	-0.042319
3192	-0.072360
3176	0.039100
3160	0.149989
3144	0.056099
3128	0.028777
3112	-0.072145
3096	0.048875
3080	0.138211
3064	0.020217
3048	-0.061154
3032	-0.018739
3016	0.036811
3000	0.079751
2984	-0.142526
2968	0.150537
2952	0.053501
2936	-0.018453
2920	-0.071859
2904	0.116038
2888	0.023388
2872	-0.019359
2856	0.106477
2840	0.153255
2824	-0.032186
2808	0.035381
2792	0.080513
2776	0.056004
2760	-0.005626
2744	0.044775
2728	0.015091
2712	-0.008964
2696	-0.059914
2680	0.047373
2664	0.072169
2648	0.027561
2632	0.098228
2616	0.121617
2600	-0.035405
2584	-0.052118
2568	0.020718
2552	0.097060
2536	0.113868
2520	0.157499
2504	-0.077152
2488	0.134706
2472	0.044131
2456	0.023770
2440	-0.089836
2424	0.177311
2408	-0.001835
2392	-0.044083
2376	-0.009298
2360	-0.043940
2344	-0.054335
2328	-0.034570
2312	0.039696
2296	0.038146
2280	0.134563
2264	0.171065
2248	0.301241
2232	0.538444
2216	0.871515
2200	1.448535
2184	1.865196
2168	2.903151
2152	3.671717
2136	4.924607
2120	6.318354
2104	7.808899
2088	9.541320
2072	10.9928
2056	12.7511
2040	14.2675
2024	15.8796
2008	17.2969
1992	18.6683
1976	19.8723
1960	20.9896
1944	21.9168
1928	22.779
1912	23.6011
1896	24.2799
1880	24.8643
1864	25.2989
1848	25.6369
1832	26.0334
1816	26.2681
1800	26.7234
1784	26.8716
1768	27.0156
1752	27.2662
1736	27.2619
1720	27.5251
1704	27.4039
1688	27.5828
1672	27.5588
1656	27.6123
1640	27.653
1624	27.5744
1608	27.4966
1592	27.5681
1576	27.4747
1560	27.4959
1544	27.5817
1528	27.4591
1512	27.4611
1496	27.2042
1480	27.2095
1464	27.169
1448	27.2528
1432	27.159
1416	27.1581
1400	27.0422
1384	27.1391
1368	26.9935
1352	26.9205
1336	26.8983
1320	26.8071
1304	26.7779
1288	26.6819
1272	26.5811
1256	26.5691
1240	26.3367
1224	26.2826
1208	26.3407
1192	26.3243
1176	26.0935
1160	26.0236
1144	25.8429
1128	25.9126
1112	25.8132
1096	25.4998
1080	25.5048
1064	25.3516
1048	25.232
1032	24.9104
1016	24.9312
1000	24.6804
984	 24.5746
968	 24.4405
952	 24.1241
936	 23.8137
920	 23.9045
904	 23.6907
888	 23.2159
872	 23.0276
856	 22.7377
840	 22.6128
824	 22.4206
808	 21.9367
792	 21.8156
776	 21.26
760	 20.6836
744	 20.9362
728	 20.5464
712	 20.0826
696	 19.5305
680	 19.242
664	 19.0045
648	 18.6587
632	 17.8849
616	 17.6235
600	 17.5438
584	 17.1993
568	 16.5998
552	 15.953
536	 16.0778
520	 15.3098
504	 14.6802
488	 13.4732
472	 13.9826
456	 13.5417
440	 12.1774
424	 10.7293
408	 16.1538
392	 20.1562
376	 -5.512070
370	 6.894373

File: LPE453_t70.asc
PE IR       SPECTRUM    SPECTRUM    ASCII       PEDS        1.60
  -1
LPCFA9~1.ASC
17/05/16
20:08:54.00
17/05/16
20:09:20.00
tln
$LPE453_t0070$<tbV0>[5.2,2.6,8.0,0.0,27,1,0]
27.028
64

2002,4.07
MIRTGS : RIGHTBACK : INTERNAL 2
MIR : ON : INTERNAL 2
OPTKBR

0.200000
8
8.000000
FILLER
RATIO
SPECTRUM
UNLOCKED 256

DOUBLE
64
COMBINED
1
0
0

0.002000
RATIO

1
0
TRUE
51149
0
LEFT NOT FITTED RIGHT NOT FITTED 0
NONE
NONE
15600
12
4.427000
51148
TRUE
1 0 8 72 0 0 0 0

15798

#HDR
-1
-1
#GR
µM
%T
2.38419e-05
0.0
2.000000
0.002000
12515
8
28.9252
-36.4863
#DATA
2.000000	 0.253367
2.084000	 -0.042395
2.168000	 0.986652
2.252000	 -0.382469
2.336000	 0.035216
2.420000	 -0.011735
2.504000	 0.313827
2.588000	 0.041892
2.672000	 -0.096868
2.756000	 0.045337
2.840000	 0.033235
2.924000	 0.037992
3.008000	 -0.072016
3.092000	 -0.003952
3.176000	 -0.012650
3.260000	 0.066725
3.344000	 -0.019198
3.428000	 0.142353
3.512000	 0.059796
3.596000	 0.022594
3.680000	 -0.021135
3.764000	 -0.032301
3.848000	 0.065992
3.932000	 0.058178
4.016000	 0.175402
4.100000	 0.009100
4.184000	 0.012388
4.268000	 0.073070
4.352000	 0.067344
4.436000	 0.432332
4.520000	 1.380045
4.604000	 3.446442
4.688000	 6.483137
4.772000	 10.3224
4.856000	 14.2247
4.940000	 17.7038
5.024000	 20.5216
5.108000	 22.819
5.192000	 24.5302
5.276000	 25.7514
5.359999	 26.7061
5.444000	 27.3387
5.528000	 27.8185
5.612000	 28.1219
5.696000	 28.3481
5.780000	 28.4508
5.864000	 28.7052
5.948000	 28.7479
6.032000	 28.8723
6.116000	 28.8058
6.200000	 28.7726
6.284000	 28.7872
6.368000	 28.7491
6.452000	 28.77
6.536000	 28.6483
6.620000	 28.6457
6.704000	 28.6328
6.788000	 28.4574
6.872000	 28.4162
6.956000	 28.3678
7.040000	 28.2912
7.124000	 28.1545
7.208000	 28.1512
7.292000	 28.0993
7.376000	 28.3813
7.460000	 28.019
7.544000	 27.9983
7.628000	 28.0147
7.712000	 27.8604
7.796000	 27.6272
7.880000	 27.8345
7.964000	 27.7452
8.048000	 27.5678
8.132000	 27.6582
8.216000	 27.5284
8.300000	 27.3687
8.384000	 27.3512
8.468000	 27.3274
8.552000	 27.1994
8.635999	 27.0752
8.719999	 26.8607
8.804000	 27.1029
8.888000	 27.1146
8.972000	 26.9279
9.056000	 26.5409
9.140000	 26.7205
9.224000	 26.889
9.308000	 26.4554
9.391999	 26.4756
9.475999	 26.4181
9.560000	 26.2936
9.644000	 26.3482
9.728000	 26.1185
9.812000	 26.156
9.896000	 25.8458
9.980000	 25.6639
10.064	25.7925
10.148	25.7507
10.232	25.7707
10.316	25.5654
10.4	25.3051
10.484	25.1857
10.568	25.2467
10.652	25.1679
10.736	25.0903
10.82	25.1233
10.904	24.6948
10.988	24.7343
11.072	24.7408
11.156	24.653
11.24	24.336
11.324	24.2745
11.408	24.2954
11.492	24.1511
11.576	24.2074
11.66	24.1884
11.744	24.1366
11.828	23.8161
11.912	23.5994
11.996	23.4348
12.08	23.4433
12.164	23.5456
12.248	23.4388
12.332	23.4221
12.416	23.3884
12.5	23.3704
12.584	23.124
12.668	22.8191
12.752	22.711
12.836	22.5194
12.92	22.4119
13.004	22.452
13.088	22.3484
13.172	22.2058
13.256	22.1447
13.34	21.8159
13.424	21.5822
13.508	21.7122
13.592	21.7877
13.676	21.5268
13.76	21.3708
13.844	21.4858
13.928	21.5854
14.012	21.6013
14.096	21.4173
14.18	21.0921
14.264	20.885
14.348	20.8779
14.432	20.8086
14.516	20.7014
14.6	20.6753
14.684	20.5216
14.768	20.3003
14.852	20.2058
14.936	20.2382
15.02	20.3097
15.104	20.2917
15.188	20.1366
15.272	19.9369
15.356	19.7427
15.44	19.5014
15.524	19.285
15.608	19.1999
15.692	19.1979
15.776	19.2323
15.86	19.2351
15.944	19.0902
16.028	18.8549
16.112	18.6882
16.196	18.6392
16.28	18.6899
16.364	18.8046
16.448	18.9376
16.532	19.0439
16.616	19.0394
16.7	18.8569
16.784	18.5762
16.868	18.3545
16.952	18.2471
17.036	18.2103
17.12	18.2042
17.204	18.2128
17.288	18.2147
17.372	18.1538
17.456	17.9557
17.54	17.6253
17.624	17.3072
17.708	17.165
17.792	17.217
17.876	17.3386
17.96	17.3975
18.044	17.3682
18.128	17.3391
18.212	17.379
18.296	17.4385
18.38	17.4197
18.464	17.3082
18.548	17.1633
18.632	17.0215
18.716	16.9003
18.8	16.8475
18.884	16.8836
18.968	16.9329
19.052	16.9117
19.136	16.8453
19.22	16.8221
19.304	16.8446
19.388	16.8139
19.472	16.6773
19.556	16.5206
19.64	16.4638
19.724	16.5024
19.808	16.5056
19.892	16.3568
19.976	16.0698
20.06	15.753
20.144	15.4972
20.228	15.3191
20.312	15.2025
20.396	15.1431
20.48	15.1411
20.564	15.1604
20.648	15.1383
20.732	15.0385
20.816	14.8938
20.9	14.7843
20.984	14.767
21.068	14.8288
21.152	14.8998
21.236	14.9103
21.32	14.8307
21.404	14.6769
21.488	14.4711
21.572	14.2198
21.656	13.917
21.74	13.5645
21.824	13.2
21.908	12.8911
21.992	12.6955
22.076	12.6287
22.16	12.6517
22.244	12.6986
22.328	12.7199
22.412	12.7084
22.496	12.6963
22.58	12.7326
22.664	12.8544
22.748	13.0563
22.832	13.2837
22.916	13.4471
23	13.4505
23.084	13.2145
23.168	12.7329
23.252	12.0914
23.336	11.4255
23.42	10.8783
23.504	10.5506
23.588	10.4624
23.672	10.5549
23.756	10.7036
23.84	10.7764
23.924	10.6587
24.008	10.3144
24.092	9.830276
24.176	9.391770
24.26	9.173213
24.344	9.254054
24.428	9.521407
24.512	9.605961
24.596	9.050113
24.68	7.512461
24.764	4.981812
24.848	1.776145
24.932	-1.444179
25.016	-3.942703
25.1	-5.261631
25.184	-5.324516
25.268	-4.518198
25.352	-3.552512
25.436	-3.162579
25.52	-3.712493
25.604	-5.052704
25.688	-6.766226
25.772	-8.333656
25.856	-9.276394
25.94	-9.080758
26.024	-7.268985
26.108	-3.589556
26.192	1.540849
26.276	7.046948
26.36	11.3696
26.444	13.1934
26.528	11.8586
26.612	7.703951
26.696	1.437023
26.78	-6.273295
26.864	-15.2421
26.948	-25.5742
27.028	-36.4863

File: LPE453_t70_cm-1.asc
PE IR       SPECTRUM    SPECTRUM    ASCII       PEDS        1.60
  -1
LPDA55~1.ASC
17/05/16
20:08:54.00
17/05/16
20:08:54.00
tln
$LPE453_t0070$<tbV0>[5.2,2.6,8.0,0.0,27,1,0]
370
64

2002,4.07
MIRTGS : RIGHTBACK : INTERNAL 2
MIR : ON : INTERNAL 2
OPTKBR

0.200000
8
8.000000
FILLER
RATIO
SPECTRUM
UNLOCKED 256

DOUBLE
64
COMBINED
1
0
0

1.000000
RATIO

1
0
TRUE
51149
0
LEFT NOT FITTED RIGHT NOT FITTED 0
NONE
NONE
15600
12
4.427000
51148
TRUE
1 0 8 72 0 0 0 0

15798

#HDR
-1
-1
#GR
CM-1
%T
2.38419e-05
0.0
5000
-1.000000
4631
8
28.9252
-36.4863
#DATA
5000	0.253367
4984	0.074791
4968	-0.247502
4952	0.176239
4936	-0.108051
4920	0.281500
4904	0.115299
4888	0.244164
4872	0.325345
4856	0.355792
4840	-0.035476
4824	0.141572
4808	-0.208449
4792	-0.090599
4776	0.197410
4760	0.038027
4744	0.517630
4728	0.822424
4712	0.278210
4696	-0.886607
4680	2.460527
4664	0.044775
4648	-0.469112
4632	1.431298
4616	0.839519
4600	0.789427
4584	0.642347
4568	0.065994
4552	-0.147199
4536	-0.334262
4520	1.342892
4504	-0.303697
4488	5.023837
4472	0.852274
4456	0.254368
4440	-0.326848
4424	0.065135
4408	0.344705
4392	-0.256180
4376	-0.128722
4360	0.039362
4344	0.307655
4328	0.048065
4312	-0.016665
4296	0.433683
4280	0.042629
4264	0.210237
4248	0.297832
4232	0.440859
4216	0.210022
4200	0.582432
4184	0.306224
4168	0.026178
4152	0.055122
4136	0.101137
4120	-0.072550
4104	0.255393
4088	0.021934
4072	0.179481
4056	0.321245
4040	0.079989
4024	-0.072574
4008	0.064468
3992	0.304865
3976	-0.110459
3960	0.214195
3944	-0.353980
3928	0.014781
3912	0.059628
3896	0.105094
3880	0.012159
3864	0.042033
3848	0.009751
3832	-0.052046
3816	0.200152
3800	0.048375
3784	0.081205
3768	0.033879
3752	0.072574
3736	-0.093674
3720	-0.005483
3704	0.124120
3688	-0.015473
3672	-0.106739
3656	0.024247
3640	0.065541
3624	0.074195
3608	0.034141
3592	0.139880
3576	0.103807
3560	-0.145888
3544	0.142216
3528	0.092458
3512	0.075888
3496	-0.004982
3480	-0.026679
3464	0.272941
3448	0.094413
3432	0.053644
3416	0.041604
3400	-0.029826
3384	-0.017714
3368	0.086164
3352	0.068807
3336	0.045013
3320	0.058722
3304	0.097417
3288	0.075340
3272	0.016427
3256	0.009489
3240	0.056719
3224	0.004506
3208	-0.032281
3192	0.153732
3176	0.066804
3160	0.117135
3144	-0.060606
3128	-0.013399
3112	-0.114321
3096	0.040531
3080	0.111055
3064	0.022029
3048	-0.020408
3032	0.032830
3016	-0.045561
3000	0.054788
2984	0.017046
2968	0.194787
2952	0.011491
2936	0.090122
2920	0.168919
2904	-0.002431
2888	0.062608
2872	0.130939
2856	0.076723
2840	0.028562
2824	0.061821
2808	0.113129
2792	-0.006246
2776	-0.012159
2760	0.040745
2744	0.013041
2728	0.084066
2712	-0.057578
2696	-0.091123
2680	0.021386
2664	0.027537
2648	-0.079369
2632	0.057172
2616	0.026130
2600	0.086855
2584	0.010538
2568	0.045442
2552	0.006175
2536	0.041818
2520	-0.006484
2504	0.132131
2488	0.164866
2472	0.060367
2456	0.042653
2440	-0.007104
2424	0.244474
2408	0.007891
2392	0.000286
2376	0.064945
2360	-0.002074
2344	0.068330
2328	-0.064444
2312	0.079131
2296	0.110340
2280	0.191497
2264	0.315022
2248	0.584530
2232	0.726437
2216	1.237630
2200	1.926231
2184	2.703022
2168	3.656482
2152	4.918646
2136	6.269884
2120	7.780694
2104	9.530043
2088	11.0691
2072	13.0754
2056	14.4981
2040	16.201
2024	17.7313
2008	19.1609
1992	20.3944
1976	21.5351
1960	22.6709
1944	23.5564
1928	24.4488
1912	25.0752
1896	25.7343
1880	26.2454
1864	26.7555
1848	27.0889
1832	27.4222
1816	27.7474
1800	27.8684
1784	28.1103
1768	28.3261
1752	28.3772
1736	28.4491
1720	28.5788
1704	28.6845
1688	28.7624
1672	28.6893
1656	28.9052
1640	28.8177
1624	28.8393
1608	28.7494
1592	28.7865
1576	28.77
1560	28.8244
1544	28.7663
1528	28.6127
1512	28.636
1496	28.5369
1480	28.5339
1464	28.328
1448	28.505
1432	28.2976
1416	28.2437
1400	28.1453
1384	28.1443
1368	28.0812
1352	28.3223
1336	28.0061
1320	27.9546
1304	27.9339
1288	27.6261
1272	27.8013
1256	27.7481
1240	27.4907
1224	27.5359
1208	27.4323
1192	27.3447
1176	27.3381
1160	27.0981
1144	26.885
1128	27.1602
1112	26.8324
1096	26.6624
1080	26.7694
1064	26.4899
1048	26.2863
1032	26.2456
1016	26.1064
1000	25.6613
984	 25.7606
968	 25.5403
952	 25.2221
936	 25.12
920	 24.8851
904	 24.7512
888	 24.2852
872	 24.1746
856	 24.199
840	 23.6139
824	 23.5439
808	 23.3999
792	 22.9466
776	 22.4262
760	 22.2171
744	 21.5865
728	 21.3773
712	 21.5571
696	 20.8756
680	 20.4598
664	 20.3189
648	 19.5254
632	 19.2467
616	 18.6513
600	 18.9493
584	 18.2043
568	 17.366
552	 17.3394
536	 16.9822
520	 16.8237
504	 16.4673
488	 15.1437
472	 14.9143
456	 12.8277
440	 13.0013
424	 10.462
408	 9.610819
392	 -3.603219
376	 8.689904
370	 -36.4863

File: LPE453_t71.asc
PE IR       SPECTRUM    SPECTRUM    ASCII       PEDS        1.60
  -1
LPCFAD~1.ASC
17/05/16
20:13:31.00
17/05/16
20:13:57.00
tln
$LPE453_t0071$<tbV0>[2.6,2.6,8.0,0.0,27,1,0]
27.028
64

2002,4.07
MIRTGS : RIGHTBACK : INTERNAL 2
MIR : ON : INTERNAL 2
OPTKBR

0.200000
8
8.000000
FILLER
RATIO
SPECTRUM
UNLOCKED 256

DOUBLE
64
COMBINED
1
0
0

0.002000
RATIO

1
0
TRUE
51149
0
LEFT NOT FITTED RIGHT NOT FITTED 0
NONE
NONE
15600
12
4.427000
51148
TRUE
1 0 8 72 0 0 0 0

15798

#HDR
-1
-1
#GR
µM
%T
2.38419e-05
0.0
2.000000
0.002000
12515
8
29.7874
-31.8484
#DATA
2.000000	 0.293374
2.084000	 0.406288
2.168000	 0.395577
2.252000	 -1.243754
2.336000	 0.053572
2.420000	 0.290492
2.504000	 0.244272
2.588000	 0.062237
2.672000	 0.077472
2.756000	 0.073406
2.840000	 0.002846
2.924000	 0.024030
3.008000	 0.040683
3.092000	 0.009636
3.176000	 0.052699
3.260000	 0.000832
3.344000	 -0.052475
3.428000	 0.072603
3.512000	 0.196616
3.596000	 -0.010190
3.680000	 0.044997
3.764000	 0.060296
3.848000	 0.036995
3.932000	 0.038999
4.016000	 0.155485
4.100000	 0.006010
4.184000	 -0.042842
4.268000	 0.016457
4.352000	 0.177460
4.436000	 0.615076
4.520000	 1.833706
4.604000	 4.178023
4.688000	 7.568165
4.772000	 11.5344
4.856000	 15.4314
4.940000	 18.9397
5.024000	 21.6843
5.108000	 23.9565
5.192000	 25.6237
5.276000	 26.8215
5.359999	 27.6142
5.444000	 28.3929
5.528000	 28.8454
5.612000	 29.2517
5.696000	 29.335
5.780000	 29.4802
5.864000	 29.6555
5.948000	 29.6928
6.032000	 29.7612
6.116000	 29.7802
6.200000	 29.6105
6.284000	 29.7376
6.368000	 29.6032
6.452000	 29.5423
6.536000	 29.5349
6.620000	 29.4615
6.704000	 29.5052
6.788000	 29.2942
6.872000	 29.4718
6.956000	 29.2989
7.040000	 29.1483
7.124000	 29.2136
7.208000	 29.1209
7.292000	 29.0398
7.376000	 29.0766
7.460000	 28.9351
7.544000	 28.842
7.628000	 28.7943
7.712000	 28.8959
7.796000	 28.7589
7.880000	 28.7555
7.964000	 28.5887
8.048000	 28.5375
8.132000	 28.5253
8.216000	 28.4523
8.300000	 28.3493
8.384000	 28.3417
8.468000	 28.2815
8.552000	 28.0944
8.635999	 28.0172
8.719999	 27.8986
8.804000	 27.8795
8.888000	 27.8832
8.972000	 27.6054
9.056000	 27.5694
9.140000	 27.6368
9.224000	 27.4245
9.308000	 27.5601
9.391999	 27.34
9.475999	 27.095
9.560000	 27.2246
9.644000	 27.148
9.728000	 26.9112
9.812000	 26.8114
9.896000	 26.7544
9.980000	 26.8673
10.064	26.745
10.148	26.646
10.232	26.6463
10.316	26.4641
10.4	26.2893
10.484	26.234
10.568	26.1157
10.652	25.8571
10.736	25.8699
10.82	25.7931
10.904	25.8036
10.988	25.5862
11.072	25.5594
11.156	25.4446
11.24	25.2826
11.324	25.2614
11.408	25.1163
11.492	25.0899
11.576	24.9042
11.66	24.976
11.744	24.8944
11.828	24.7107
11.912	24.5835
11.996	24.4146
12.08	24.4305
12.164	24.3491
12.248	24.2093
12.332	24.0621
12.416	23.9936
12.5	24.068
12.584	23.8749
12.668	23.7794
12.752	23.8052
12.836	23.5804
12.92	23.3683
13.004	23.2131
13.088	23.1868
13.172	23.288
13.256	23.1532
13.34	23.0191
13.424	22.7187
13.508	22.5049
13.592	22.8192
13.676	22.8494
13.76	22.4971
13.844	22.1882
13.928	22.0697
14.012	22.0577
14.096	21.9575
14.18	21.8886
14.264	21.9886
14.348	21.9486
14.432	21.7062
14.516	21.6149
14.6	21.6249
14.684	21.5707
14.768	21.5112
14.852	21.432
14.936	21.2312
15.02	21.0378
15.104	21.0274
15.188	21.1009
15.272	21.1376
15.356	21.1307
15.44	21.0609
15.524	20.876
15.608	20.6049
15.692	20.4212
15.776	20.3782
15.86	20.3076
15.944	20.1782
16.028	20.1261
16.112	20.0656
16.196	19.7959
16.28	19.4562
16.364	19.3972
16.448	19.6558
16.532	19.9093
16.616	19.9463
16.7	19.8363
16.784	19.6668
16.868	19.468
16.952	19.2913
17.036	19.146
17.12	18.9777
17.204	18.7928
17.288	18.6728
17.372	18.673
17.456	18.7674
17.54	18.8529
17.624	18.8161
17.708	18.6303
17.792	18.38
17.876	18.1829
17.96	18.0959
18.044	18.1032
18.128	18.1704
18.212	18.2917
18.296	18.4592
18.38	18.5923
18.464	18.5829
18.548	18.4155
18.632	18.1893
18.716	17.9952
18.8	17.83
18.884	17.6514
18.968	17.4893
19.052	17.4495
19.136	17.6064
19.22	17.8946
19.304	18.1146
19.388	18.0779
19.472	17.7643
19.556	17.3409
19.64	17.0175
19.724	16.8905
19.808	16.9101
19.892	16.9742
19.976	17.015
20.06	17.0131
20.144	16.9678
20.228	16.8952
20.312	16.8432
20.396	16.8724
20.48	16.994
20.564	17.1257
20.648	17.1285
20.732	16.9004
20.816	16.454
20.9	15.9104
20.984	15.4232
21.068	15.099
21.152	14.972
21.236	15.0176
21.32	15.1763
21.404	15.3777
21.488	15.567
21.572	15.7158
21.656	15.8077
21.74	15.8239
21.824	15.7422
21.908	15.553
21.992	15.2717
22.076	14.9281
22.16	14.552
22.244	14.1687
22.328	13.8136
22.412	13.5423
22.496	13.4259
22.58	13.504
22.664	13.7597
22.748	14.1062
22.832	14.4262
22.916	14.6352
23	14.7243
23.084	14.7418
23.168	14.7484
23.252	14.7604
23.336	14.7427
23.42	14.6514
23.504	14.4704
23.588	14.2379
23.672	14.02
23.756	13.8629
23.84	13.7795
23.924	13.7738
24.008	13.8764
24.092	14.1652
24.176	14.7447
24.26	15.6643
24.344	16.8463
24.428	18.0848
24.512	19.0994
24.596	19.6283
24.68	19.546
24.764	18.9448
24.848	18.0208
24.932	17.0001
25.016	16.0246
25.1	15.0875
25.184	14.0926
25.268	12.9868
25.352	11.8777
25.436	10.9107
25.52	10.267
25.604	10.1509
25.688	10.7306
25.772	11.9732
25.856	13.5819
25.94	15.1928
26.024	16.4646
26.108	17.1657
26.192	16.9452
26.276	15.3356
26.36	11.7462
26.444	6.130709
26.528	-0.912919
26.612	-8.121979
26.696	-14.4341
26.78	-19.5779
26.864	-24.1095
26.948	-28.5214
27.028	-31.8484