Folder: Masteroppgave/Bakgrunnsmateriale/MATLAB/FTIR/ftir_data/LPE453/Mapping_121 (part 50)

File: LPE453_t116_cm-1.asc
PE IR       SPECTRUM    SPECTRUM    ASCII       PEDS        1.60
  -1
LP09FC~1.ASC
17/05/17
00:09:23.00
17/05/17
00:09:23.00
tln
$LPE453_t0116$<tbV0>[0.0,13.0,8.0,0.0,27,1,0]
370
64

2002,4.07
MIRTGS : RIGHTBACK : INTERNAL 2
MIR : ON : INTERNAL 2
OPTKBR

0.200000
8
8.000000
FILLER
RATIO
SPECTRUM
UNLOCKED 256

DOUBLE
64
COMBINED
1
0
0

1.000000
RATIO

1
0
TRUE
51149
0
LEFT NOT FITTED RIGHT NOT FITTED 0
NONE
NONE
15600
12
4.427000
51148
TRUE
1 0 8 72 0 0 0 0

15798

#HDR
-1
-1
#GR
CM-1
%T
2.38419e-05
0.0
5000
-1.000000
4631
8
36.1502
-2.264118
#DATA
5000	0.855875
4984	0.138115
4968	0.021505
4952	-0.391030
4936	0.307583
4920	0.217938
4904	-0.016593
4888	0.466299
4872	0.470161
4856	0.183963
4840	0.355029
4824	0.551581
4808	0.281715
4792	0.433206
4776	0.478768
4760	0.153684
4744	0.330877
4728	-0.041127
4712	0.100660
4696	-0.115203
4680	0.001287
4664	0.677871
4648	-0.193905
4632	1.365900
4616	0.848674
4600	1.015281
4584	-1.274275
4568	-0.263142
4552	-0.950860
4536	-1.273655
4520	-2.058506
4504	12.9637
4488	5.765128
4472	-1.763319
4456	-1.237082
4440	-1.417684
4424	-0.532221
4408	0.466942
4392	1.172018
4376	0.794363
4360	0.597023
4344	0.567030
4328	0.414490
4312	0.528430
4296	0.350093
4280	0.046086
4264	-0.059008
4248	0.113368
4232	0.466918
4216	0.077366
4200	0.025677
4184	0.415444
4168	0.330781
4152	0.340008
4136	0.312995
4120	0.225591
4104	0.317239
4088	0.064492
4072	0.078654
4056	0.007057
4040	0.132107
4024	0.122809
4008	0.062108
3992	0.155305
3976	0.167417
3960	0.060009
3944	0.251340
3928	0.234937
3912	0.205492
3896	0.276136
3880	0.035738
3864	-0.021958
3848	0.080299
3832	-0.012707
3816	0.012707
3800	0.067996
3784	0.025343
3768	0.073647
3752	0.302386
3736	0.224423
3720	0.200104
3704	0.148415
3688	0.062751
3672	0.087523
3656	0.102305
3640	0.020241
3624	-0.008606
3608	0.099873
3592	-0.107741
3576	0.144147
3560	-0.066089
3544	0.006699
3528	0.137686
3512	0.089192
3496	0.330257
3480	-0.059604
3464	-0.041103
3448	0.085902
3432	0.051641
3416	0.113320
3400	0.012993
3384	0.127983
3368	-0.059294
3352	0.145912
3336	0.080776
3320	0.101280
3304	-0.040626
3288	0.236487
3272	0.061726
3256	0.061893
3240	0.069665
3224	-0.000739
3208	0.061368
3192	-0.149512
3176	0.021171
3160	0.073075
3144	0.041818
3128	0.226497
3112	0.146937
3096	0.065708
3080	-0.012302
3064	0.074815
3048	0.039839
3032	0.043416
3016	-0.037145
3000	-0.014758
2984	-0.030803
2968	-0.046157
2952	0.028157
2936	0.177955
2920	0.056791
2904	0.112938
2888	0.054955
2872	0.040221
2856	0.024199
2840	0.104117
2824	0.044846
2808	-0.011610
2792	-0.028347
2776	0.017404
2760	-0.001978
2744	0.094485
2728	0.007963
2712	0.024342
2696	0.020289
2680	0.041723
2664	0.001955
2648	0.044703
2632	-0.029444
2616	0.117802
2600	-0.007152
2584	0.015330
2568	0.016403
2552	-0.026869
2536	0.025534
2520	-0.030922
2504	0.030136
2488	0.101518
2472	0.018358
2456	-0.039362
2440	0.079703
2424	0.186395
2408	0.182008
2392	0.165629
2376	0.130748
2360	0.202989
2344	0.399923
2328	0.498962
2312	0.625181
2296	0.839710
2280	1.320838
2264	1.822805
2248	2.407026
2232	3.147554
2216	4.146099
2200	5.349016
2184	6.702613
2168	8.236908
2152	10.0769
2136	11.9222
2120	13.7718
2104	15.6331
2088	17.5843
2072	19.3609
2056	21.1417
2040	22.7904
2024	24.2566
2008	25.6921
1992	26.8522
1976	27.9652
1960	28.9047
1944	29.8009
1928	30.5209
1912	31.1848
1896	31.9201
1880	32.4725
1864	32.798
1848	33.2476
1832	33.785
1816	34.1248
1800	34.2197
1784	34.4582
1768	34.8799
1752	34.9599
1736	34.9579
1720	35.1808
1704	35.4051
1688	35.5439
1672	35.467
1656	35.6224
1640	35.8308
1624	35.8294
1608	35.6843
1592	35.8249
1576	36.0606
1560	35.9489
1544	35.8641
1528	35.9652
1512	36.1502
1496	35.7159
1480	35.7588
1464	35.8519
1448	36.0022
1432	35.8273
1416	35.6445
1400	35.7549
1384	35.9456
1368	35.7229
1352	35.4784
1336	35.6821
1320	35.6708
1304	35.5565
1288	35.3715
1272	35.3724
1256	35.4674
1240	35.2283
1224	35.0208
1208	34.9662
1192	35.2466
1176	34.8321
1160	34.4814
1144	34.7926
1128	34.7775
1112	34.4205
1096	34.254
1080	34.2596
1064	34.5688
1048	34.2412
1032	33.7596
1016	33.8725
1000	33.9949
984	 33.744
968	 33.4375
952	 33.268
936	 33.6334
920	 33.323
904	 32.8445
888	 32.7472
872	 33.1862
856	 32.693
840	 32.0187
824	 31.8501
808	 32.1657
792	 32.0518
776	 31.45
760	 31.1551
744	 31.4457
728	 31.1311
712	 30.6845
696	 29.9916
680	 30.4227
664	 30.1445
648	 29.4668
632	 28.9202
616	 29.3265
600	 29.1548
584	 28.4095
568	 27.9926
552	 27.7366
536	 28.1848
520	 26.8672
504	 26.7011
488	 26.4945
472	 25.1134
456	 25.1616
440	 24.4834
424	 23.303
408	 21.2089
392	 21.1816
376	 31.392
370	 28.3298

File: LPE453_t117.asc
PE IR       SPECTRUM    SPECTRUM    ASCII       PEDS        1.60
  -1
LP9F88~1.ASC
17/05/17
00:13:59.00
17/05/17
00:14:26.00
tln
$LPE453_t0117$<tbV0>[-2.6,13.0,8.0,0.0,27,1,0]
27.028
64

2002,4.07
MIRTGS : RIGHTBACK : INTERNAL 2
MIR : ON : INTERNAL 2
OPTKBR

0.200000
8
8.000000
FILLER
RATIO
SPECTRUM
UNLOCKED 256

DOUBLE
64
COMBINED
1
0
0

0.002000
RATIO

1
0
TRUE
51149
0
LEFT NOT FITTED RIGHT NOT FITTED 0
NONE
NONE
15600
12
4.427000
51148
TRUE
1 0 8 72 0 0 0 0

15798

#HDR
-1
-1
#GR
µM
%T
2.38419e-05
0.0
2.000000
0.002000
12515
8
35.1775
-1.357202
#DATA
2.000000	 0.248789
2.084000	 0.412377
2.168000	 0.542431
2.252000	 0.381890
2.336000	 0.159775
2.420000	 -0.050988
2.504000	 0.102788
2.588000	 0.004493
2.672000	 0.027180
2.756000	 0.142217
2.840000	 0.049244
2.924000	 0.004642
3.008000	 -0.081534
3.092000	 -0.022269
3.176000	 -0.079703
3.260000	 0.005411
3.344000	 0.104982
3.428000	 -0.052155
3.512000	 0.037777
3.596000	 0.091921
3.680000	 -0.002240
3.764000	 0.055343
3.848000	 -0.008056
3.932000	 -0.020387
4.016000	 -0.038408
4.100000	 0.002723
4.184000	 0.140051
4.268000	 0.266309
4.352000	 0.721742
4.436000	 1.705215
4.520000	 3.872203
4.604000	 7.083571
4.688000	 11.1788
4.772000	 15.5341
4.856000	 19.719
4.940000	 23.0412
5.024000	 25.8348
5.108000	 27.9231
5.192000	 29.5799
5.276000	 30.7998
5.359999	 31.7427
5.444000	 32.3746
5.528000	 33.1158
5.612000	 33.4163
5.696000	 33.9232
5.780000	 34.0202
5.864000	 34.275
5.948000	 34.4847
6.032000	 34.4434
6.116000	 34.8418
6.200000	 34.6866
6.284000	 34.8216
6.368000	 35.087
6.452000	 34.8416
6.536000	 34.99
6.620000	 35.1594
6.704000	 34.8515
6.788000	 34.7462
6.872000	 34.94
6.956000	 34.9147
7.040000	 34.6007
7.124000	 34.7566
7.208000	 34.9114
7.292000	 34.5638
7.376000	 34.423
7.460000	 34.5011
7.544000	 34.7231
7.628000	 34.4455
7.712000	 34.2826
7.796000	 34.3332
7.880000	 34.5435
7.964000	 34.4169
8.048000	 34.0533
8.132000	 33.9586
8.216000	 34.1566
8.300000	 34.1887
8.384000	 34.0926
8.468000	 33.7643
8.552000	 33.6224
8.635999	 33.757
8.719999	 33.9264
8.804000	 33.8934
8.888000	 33.7015
8.972000	 33.3139
9.056000	 33.3639
9.140000	 33.4605
9.224000	 33.5949
9.308000	 33.3895
9.391999	 33.085
9.475999	 32.8574
9.560000	 32.8459
9.644000	 32.9347
9.728000	 33.1658
9.812000	 33.1946
9.896000	 33.1391
9.980000	 32.777
10.064	32.5042
10.148	32.423
10.232	32.3774
10.316	32.5981
10.4	32.6148
10.484	32.5395
10.568	32.4541
10.652	32.1973
10.736	32.0638
10.82	31.8806
10.904	31.8267
10.988	31.8455
11.072	32.0554
11.156	32.0203
11.24	31.9219
11.324	31.8563
11.408	31.498
11.492	31.265
11.576	31.0548
11.66	31.0223
11.744	31.165
11.828	31.1844
11.912	31.3959
11.996	31.5545
12.08	31.2216
12.164	30.9107
12.248	30.9681
12.332	30.8307
12.416	30.5288
12.5	30.3909
12.584	30.3533
12.668	30.4336
12.752	30.5116
12.836	30.5618
12.92	30.5145
13.004	30.5542
13.088	30.4682
13.172	30.0809
13.256	30.0336
13.34	29.9853
13.424	29.6587
13.508	29.4314
13.592	29.3975
13.676	29.412
13.76	29.5924
13.844	29.8669
13.928	29.977
14.012	29.8397
14.096	29.693
14.18	29.6419
14.264	29.542
14.348	29.3696
14.432	29.1909
14.516	29.033
14.6	28.827
14.684	28.6119
14.768	28.5172
14.852	28.5166
14.936	28.499
15.02	28.4872
15.104	28.5586
15.188	28.6904
15.272	28.7948
15.356	28.7652
15.44	28.6764
15.524	28.7289
15.608	28.8018
15.692	28.6075
15.776	28.2289
15.86	27.9145
15.944	27.7052
16.028	27.5843
16.112	27.5318
16.196	27.4569
16.28	27.3509
16.364	27.3038
16.448	27.3369
16.532	27.3623
16.616	27.3282
16.7	27.2919
16.784	27.3075
16.868	27.3648
16.952	27.4644
17.036	27.5988
17.12	27.6732
17.204	27.5915
17.288	27.3778
17.372	27.1335
17.456	26.9345
17.54	26.8031
17.624	26.701
17.708	26.5554
17.792	26.3305
17.876	26.047
17.96	25.7438
18.044	25.4576
18.128	25.2426
18.212	25.1726
18.296	25.2817
18.38	25.5096
18.464	25.7391
18.548	25.901
18.632	26.0105
18.716	26.0936
18.8	26.128
18.884	26.0893
18.968	26.0024
19.052	25.8985
19.136	25.7612
19.22	25.5574
19.304	25.3067
19.388	25.0873
19.472	24.961
19.556	24.9265
19.64	24.9319
19.724	24.9128
19.808	24.828
19.892	24.6846
19.976	24.524
20.06	24.3827
20.144	24.2791
20.228	24.2292
20.312	24.2465
20.396	24.308
20.48	24.3339
20.564	24.2358
20.648	24.0106
20.732	23.762
20.816	23.6114
20.9	23.5937
20.984	23.6517
21.068	23.7164
21.152	23.7743
21.236	23.8568
21.32	23.975
21.404	24.0865
21.488	24.1237
21.572	24.0479
21.656	23.8621
21.74	23.5924
21.824	23.2709
21.908	22.9349
21.992	22.6345
22.076	22.4227
22.16	22.3277
22.244	22.3406
22.328	22.4237
22.412	22.5469
22.496	22.6981
22.58	22.8688
22.664	23.0347
22.748	23.1531
22.832	23.1912
22.916	23.1536
23	23.0858
23.084	23.0361
23.168	23.0111
23.252	22.9614
23.336	22.814
23.42	22.513
23.504	22.063
23.588	21.5173
23.672	20.9368
23.756	20.3696
23.84	19.855
23.924	19.4408
24.008	19.1963
24.092	19.1981
24.176	19.4786
24.26	19.9871
24.344	20.5783
24.428	21.0764
24.512	21.335
24.596	21.3333
24.68	21.1824
24.764	21.0727
24.848	21.1971
24.932	21.6925
25.016	22.5613
25.1	23.6555
25.184	24.7385
25.268	25.58
25.352	26.0201
25.436	25.9674
25.52	25.4268
25.604	24.4893
25.688	23.3234
25.772	22.1611
25.856	21.2367
25.94	20.6444
26.024	20.2951
26.108	19.9579
26.192	19.64
26.276	19.6229
26.36	20.4081
26.444	22.2995
26.528	25.1474
26.612	28.1851
26.696	30.4305
26.78	31.1157
26.864	30.051
26.948	27.5917
27.028	24.4632

File: LPE453_t117_cm-1.asc
PE IR       SPECTRUM    SPECTRUM    ASCII       PEDS        1.60
  -1
LP0AFC~1.ASC
17/05/17
00:13:59.00
17/05/17
00:13:59.00
tln
$LPE453_t0117$<tbV0>[-2.6,13.0,8.0,0.0,27,1,0]
370
64

2002,4.07
MIRTGS : RIGHTBACK : INTERNAL 2
MIR : ON : INTERNAL 2
OPTKBR

0.200000
8
8.000000
FILLER
RATIO
SPECTRUM
UNLOCKED 256

DOUBLE
64
COMBINED
1
0
0

1.000000
RATIO

1
0
TRUE
51149
0
LEFT NOT FITTED RIGHT NOT FITTED 0
NONE
NONE
15600
12
4.427000
51148
TRUE
1 0 8 72 0 0 0 0

15798

#HDR
-1
-1
#GR
CM-1
%T
2.38419e-05
0.0
5000
-1.000000
4631
8
35.1771
-1.403307
#DATA
5000	0.248789
4984	0.099325
4968	0.206899
4952	0.110650
4936	-0.264382
4920	0.334358
4904	0.028109
4888	-0.098586
4872	0.022697
4856	0.125455
4840	-0.012183
4824	0.486612
4808	-0.237321
4792	0.387692
4776	0.166940
4760	0.158524
4744	-0.661182
4728	-0.628352
4712	0.312566
4696	-0.028848
4680	0.635766
4664	2.060151
4648	0.081610
4632	0.273394
4616	0.251436
4600	1.227307
4584	0.995659
4568	-1.295566
4552	0.393533
4536	1.113533
4520	-1.250720
4504	3.967928
4488	0.843787
4472	-0.567984
4456	-0.037193
4440	0.366854
4424	0.304365
4408	0.240206
4392	0.248908
4376	0.063252
4360	-0.298428
4344	0.653600
4328	-0.045371
4312	0.168609
4296	-0.009775
4280	0.167465
4264	0.108504
4248	0.257873
4232	0.203013
4216	0.115299
4200	-0.036978
4184	-0.107121
4168	0.080537
4152	0.043511
4136	0.029850
4120	-0.071740
4104	0.266146
4088	0.064635
4072	0.237202
4056	0.077009
4040	0.005483
4024	0.049567
4008	-0.065422
3992	0.122475
3976	0.144791
3960	0.027966
3944	0.165319
3928	-0.058054
3912	-0.076508
3896	0.121021
3880	0.137972
3864	0.004434
3848	-0.033187
3832	0.080466
3816	-0.058746
3800	0.135135
3784	0.037145
3768	0.042295
3752	-0.059008
3736	0.053930
3720	-0.009799
3704	0.076198
3688	-0.025963
3672	-0.009346
3656	-0.123333
3640	0.105929
3624	0.187373
3608	-0.092887
3592	0.081276
3576	0.013399
3560	0.221037
3544	0.056815
3528	0.063228
3512	0.194954
3496	0.104928
3480	-0.013160
3464	0.039529
3448	-0.022983
3432	0.006961
3416	0.023460
3400	-0.022888
3384	0.068211
3368	-0.015544
3352	0.100731
3336	-0.049257
3320	-0.065064
3304	-0.041842
3288	-0.076532
3272	-0.022816
3256	0.192403
3240	-0.027918
3224	0.293874
3208	0.081157
3192	0.020170
3176	-0.096249
3160	0.162196
3144	0.114393
3128	0.053024
3112	-0.157403
3096	-0.009036
3080	0.054550
3064	-0.055122
3048	0.002622
3032	0.041818
3016	-0.038385
3000	0.097274
2984	0.106930
2968	0.082397
2952	0.069570
2936	0.046420
2920	0.004553
2904	0.042414
2888	0.018739
2872	0.013422
2856	0.075459
2840	0.044703
2824	0.046944
2808	0.021338
2792	-0.003194
2776	-0.037908
2760	0.121998
2744	0.015735
2728	0.045847
2712	-0.054240
2696	0.026106
2680	0.023579
2664	-0.044751
2648	-0.043559
2632	0.060582
2616	0.011157
2600	-0.026369
2584	0.046443
2568	-0.001621
2552	-0.015020
2536	0.028109
2520	0.120520
2504	-0.010538
2488	-0.003552
2472	0.090718
2456	-0.037074
2440	-0.002861
2424	-0.052428
2408	0.011491
2392	0.106024
2376	0.123620
2360	0.168395
2344	0.256681
2328	0.360059
2312	0.605654
2296	0.721645
2280	1.071667
2264	1.512598
2248	1.928353
2232	2.656054
2216	3.673052
2200	4.710364
2184	6.025671
2168	7.498455
2152	9.131455
2136	10.8506
2120	12.7789
2104	14.5671
2088	16.4268
2072	18.2504
2056	20.1062
2040	21.6465
2024	23.0652
2008	24.4411
1992	25.7081
1976	26.8519
1960	27.7984
1944	28.6311
1928	29.4752
1912	30.1893
1896	30.7803
1880	31.2858
1864	31.7955
1848	32.1438
1832	32.5855
1816	33.0013
1800	33.2729
1784	33.4093
1768	33.6389
1752	34.0087
1736	33.9987
1720	34.0219
1704	34.3086
1688	34.6417
1672	34.427
1656	34.4606
1640	34.761
1624	34.8657
1608	34.7034
1592	34.8127
1576	35.0353
1560	35.0194
1544	34.863
1528	35.0131
1512	35.1414
1496	34.9431
1480	34.6652
1464	34.8181
1448	34.8867
1432	34.8828
1416	34.5383
1400	34.8347
1384	34.8052
1368	34.5473
1352	34.3826
1336	34.6458
1320	34.6621
1304	34.2393
1288	34.3416
1272	34.4896
1256	34.4275
1240	34.0281
1224	34.0173
1208	34.2512
1192	34.0635
1176	33.6786
1160	33.7014
1144	33.8831
1128	33.8156
1112	33.2591
1096	33.4577
1080	33.5524
1064	33.0445
1048	32.8935
1032	33.0826
1016	33.2608
1000	32.6963
984	 32.4177
968	 32.6192
952	 32.5412
936	 32.1754
920	 31.8424
904	 32.0443
888	 31.8912
872	 31.3028
856	 31.0664
840	 31.3688
824	 30.9695
808	 30.6524
792	 30.3883
776	 30.54
760	 30.1333
744	 29.5935
728	 29.5218
712	 29.768
696	 29.3253
680	 28.5732
664	 28.5103
648	 28.6806
632	 28.0385
616	 27.4083
600	 27.3013
584	 27.6732
568	 26.7245
552	 25.2662
536	 26.0378
520	 25.5267
504	 24.7761
488	 24.3289
472	 23.8033
456	 22.851
440	 23.1307
424	 21.5383
408	 21.3317
392	 25.5122
376	 27.6402
370	 24.4632

File: LPE453_t118.asc
PE IR       SPECTRUM    SPECTRUM    ASCII       PEDS        1.60
  -1
LP9398~1.ASC
17/05/17
00:18:36.00
17/05/17
00:19:02.00
tln
$LPE453_t0118$<tbV0>[-5.2,13.0,8.0,0.0,27,1,0]
27.028
64

2002,4.07
MIRTGS : RIGHTBACK : INTERNAL 2
MIR : ON : INTERNAL 2
OPTKBR

0.200000
8
8.000000
FILLER
RATIO
SPECTRUM
UNLOCKED 256

DOUBLE
64
COMBINED
1
0
0

0.002000
RATIO

1
0
TRUE
51149
0
LEFT NOT FITTED RIGHT NOT FITTED 0
NONE
NONE
15600
12
4.427000
51148
TRUE
1 0 8 72 0 0 0 0

15798

#HDR
-1
-1
#GR
µM
%T
2.38419e-05
0.0
2.000000
0.002000
12515
8
35.4884
-1.255116
#DATA
2.000000	 0.307250
2.084000	 -0.046305
2.168000	 0.560525
2.252000	 -0.293453
2.336000	 0.142563
2.420000	 0.139437
2.504000	 0.087587
2.588000	 0.117547
2.672000	 0.097962
2.756000	 0.075349
2.840000	 0.048271
2.924000	 0.031537
3.008000	 0.128193
3.092000	 0.059649
3.176000	 0.215589
3.260000	 0.083032
3.344000	 -0.094773
3.428000	 0.034431
3.512000	 0.015226
3.596000	 -0.022421
3.680000	 -0.060955
3.764000	 0.152492
3.848000	 0.065905
3.932000	 0.105560
4.016000	 -0.068088
4.100000	 -0.050099
4.184000	 0.059014
4.268000	 0.194314
4.352000	 0.656040
4.436000	 1.570454
4.520000	 3.668655
4.604000	 6.872145
4.688000	 11.0598
4.772000	 15.3921
4.856000	 19.5358
4.940000	 23.0662
5.024000	 25.8528
5.108000	 28.15
5.192000	 29.6014
5.276000	 31.033
5.359999	 31.9379
5.444000	 32.7537
5.528000	 33.2873
5.612000	 33.8546
5.696000	 33.9208
5.780000	 34.5953
5.864000	 34.4399
5.948000	 34.866
6.032000	 34.821
6.116000	 35.0079
6.200000	 35.2403
6.284000	 34.9772
6.368000	 35.1388
6.452000	 35.3265
6.536000	 34.9981
6.620000	 35.0699
6.704000	 35.2651
6.788000	 35.0663
6.872000	 34.7946
6.956000	 35.3312
7.040000	 35.0467
7.124000	 34.6571
7.208000	 34.7525
7.292000	 35.0786
7.376000	 34.7774
7.460000	 34.3533
7.544000	 34.7268
7.628000	 34.7589
7.712000	 34.4383
7.796000	 34.1553
7.880000	 34.4434
7.964000	 34.6132
8.048000	 34.3564
8.132000	 34.0161
8.216000	 33.7702
8.300000	 33.9875
8.384000	 34.2564
8.468000	 33.9887
8.552000	 33.5545
8.635999	 33.5313
8.719999	 33.7406
8.804000	 33.8457
8.888000	 33.7942
8.972000	 33.4912
9.056000	 33.2149
9.140000	 33.0862
9.224000	 33.1901
9.308000	 33.4706
9.391999	 33.3637
9.475999	 33.0147
9.560000	 32.6306
9.644000	 32.5761
9.728000	 32.6884
9.812000	 32.828
9.896000	 32.8594
9.980000	 32.8567
10.064	32.6462
10.148	32.2117
10.232	31.9323
10.316	32.0382
10.4	32.1934
10.484	32.4375
10.568	32.4793
10.652	32.3983
10.736	32.0559
10.82	31.735
10.904	31.47
10.988	31.4126
11.072	31.5216
11.156	31.6737
11.24	31.9613
11.324	31.9315
11.408	31.5562
11.492	31.2772
11.576	31.159
11.66	30.8811
11.744	30.5196
11.828	30.5351
11.912	30.8584
11.996	30.9535
12.08	30.8232
12.164	30.9211
12.248	30.9213
12.332	30.7206
12.416	30.5539
12.5	30.285
12.584	29.9656
12.668	29.8593
12.752	29.9313
12.836	30.0493
12.92	30.0347
13.004	30.1068
13.088	30.246
13.172	30.3102
13.256	30.2279
13.34	29.8807
13.424	29.5466
13.508	29.3229
13.592	29.1257
13.676	29.0442
13.76	29.0457
13.844	29.0383
13.928	29.0262
14.012	29.1489
14.096	29.3076
14.18	29.2135
14.264	29.0287
14.348	29.0894
14.432	29.2095
14.516	29.0962
14.6	28.8517
14.684	28.646
14.768	28.4704
14.852	28.1954
14.936	27.9396
15.02	27.9275
15.104	28.0458
15.188	28.0871
15.272	28.0637
15.356	28.1017
15.44	28.2053
15.524	28.2306
15.608	28.1139
15.692	27.9176
15.776	27.6663
15.86	27.4478
15.944	27.4242
16.028	27.508
16.112	27.4528
16.196	27.2272
16.28	27.0002
16.364	26.9163
16.448	26.9356
16.532	26.8788
16.616	26.7158
16.7	26.6108
16.784	26.6326
16.868	26.7304
16.952	26.8797
17.036	27.026
17.12	27.0499
17.204	26.9334
17.288	26.8344
17.372	26.8879
17.456	27.0239
17.54	27.0511
17.624	26.8755
17.708	26.5797
17.792	26.3064
17.876	26.1189
17.96	25.9735
18.044	25.8168
18.128	25.6774
18.212	25.6293
18.296	25.6839
18.38	25.7609
18.464	25.7797
18.548	25.7342
18.632	25.6663
18.716	25.6077
18.8	25.5734
18.884	25.5694
18.968	25.5929
19.052	25.6349
19.136	25.6968
19.22	25.787
19.304	25.8876
19.388	25.93
19.472	25.8302
19.556	25.555
19.64	25.1648
19.724	24.7842
19.808	24.5266
19.892	24.4209
19.976	24.4095
20.06	24.399
20.144	24.3184
20.228	24.143
20.312	23.8886
20.396	23.6023
20.48	23.3531
20.564	23.2064
20.648	23.1923
20.732	23.2958
20.816	23.4813
20.9	23.7191
20.984	23.9836
21.068	24.2313
21.152	24.4009
21.236	24.4495
21.32	24.39
21.404	24.2895
21.488	24.2127
21.572	24.1742
21.656	24.1354
21.74	24.0532
21.824	23.934
21.908	23.8312
21.992	23.7866
22.076	23.7831
22.16	23.7389
22.244	23.5736
22.328	23.2737
22.412	22.9029
22.496	22.5723
22.58	22.3679
22.664	22.3222
22.748	22.4217
22.832	22.6378
22.916	22.927
23	23.2192
23.084	23.4107
23.168	23.38
23.252	23.0519
23.336	22.4323
23.42	21.635
23.504	20.8274
23.588	20.1854
23.672	19.8396
23.756	19.8429
23.84	20.1908
23.924	20.828
24.008	21.635
24.092	22.4269
24.176	23.0184
24.26	23.2509
24.344	23.0474
24.428	22.4607
24.512	21.6501
24.596	20.8122
24.68	20.088
24.764	19.4959
24.848	18.9499
24.932	18.3266
25.016	17.5353
25.1	16.5073
25.184	15.2299
25.268	13.7651
25.352	12.2347
25.436	10.8472
25.52	9.906545
25.604	9.778326
25.688	10.838
25.772	13.3225
25.856	17.1892
25.94	21.9542
26.024	26.7132
26.108	30.3981
26.192	32.4505
26.276	32.9652
26.36	32.6856
26.444	32.4052
26.528	32.4886
26.612	32.5142
26.696	31.6676
26.78	29.2409
26.864	25.1758
26.948	20.0752
27.028	15.0027

File: LPE453_t118_cm-1.asc
PE IR       SPECTRUM    SPECTRUM    ASCII       PEDS        1.60
  -1
LP0BFC~1.ASC
17/05/17
00:18:36.00
17/05/17
00:18:36.00
tln
$LPE453_t0118$<tbV0>[-5.2,13.0,8.0,0.0,27,1,0]
370
64

2002,4.07
MIRTGS : RIGHTBACK : INTERNAL 2
MIR : ON : INTERNAL 2
OPTKBR

0.200000
8
8.000000
FILLER
RATIO
SPECTRUM
UNLOCKED 256

DOUBLE
64
COMBINED
1
0
0

1.000000
RATIO

1
0
TRUE
51149
0
LEFT NOT FITTED RIGHT NOT FITTED 0
NONE
NONE
15600
12
4.427000
51148
TRUE
1 0 8 72 0 0 0 0

15798

#HDR
-1
-1
#GR
CM-1
%T
2.38419e-05
0.0
5000
-1.000000
4631
8
35.4883
-1.961374
#DATA
5000	0.307250
4984	0.162577
4968	0.312757
4952	0.040817
4936	-0.252819
4920	0.114750
4904	0.206995
4888	0.160527
4872	0.084471
4856	0.199651
4840	0.038552
4824	0.344944
4808	0.216269
4792	-0.214314
4776	0.209450
4760	0.281739
4744	-0.292253
4728	-0.213861
4712	0.837898
4696	-0.001597
4680	0.736236
4664	-1.298093
4648	0.818109
4632	0.264549
4616	-0.033187
4600	0.342202
4584	0.001430
4568	-0.857019
4552	1.019048
4536	-0.244975
4520	0.274133
4504	3.448796
4488	7.229208
4472	0.425815
4456	0.697040
4440	-0.313258
4424	0.448274
4408	-0.558972
4392	-0.162577
4376	-0.495028
4360	0.378918
4344	0.364017
4328	-0.351500
4312	0.355529
4296	0.014233
4280	0.161457
4264	0.096249
4248	0.335192
4232	0.085163
4216	-0.001525
4200	0.273132
4184	-0.070118
4168	0.165820
4152	-0.060701
4136	0.026297
4120	-0.101280
4104	-0.031185
4088	0.015616
4072	0.209331
4056	-0.044727
4040	-0.074386
4024	0.106525
4008	0.005483
3992	0.164103
3976	-0.035738
3960	-0.192523
3944	-0.009822
3928	-0.015521
3912	0.157785
3896	0.145888
3880	0.052690
3864	0.117874
3848	0.079727
3832	0.173449
3816	0.042867
3800	0.038909
3784	0.074005
3768	0.063729
3752	-0.029850
3736	0.146365
3720	0.028109
3704	-0.052928
3688	0.193715
3672	0.045228
3656	0.131607
3640	-0.022697
3624	0.040578
3608	0.093173
3592	-0.012087
3576	0.111317
3560	0.162887
3544	-0.064587
3528	0.224208
3512	0.005149
3496	0.077033
3480	0.106883
3464	0.127601
3448	0.203943
3432	-0.070786
3416	0.047183
3400	0.116395
3384	0.027966
3368	-0.047755
3352	-0.010967
3336	0.052356
3320	0.110673
3304	0.040125
3288	0.101447
3272	0.020480
3256	-0.002479
3240	0.259804
3224	0.014996
3208	0.003123
3192	-0.020861
3176	0.072050
3160	0.177931
3144	0.227332
3128	-0.008130
3112	0.166678
3096	-0.143337
3080	-0.021028
3064	0.087475
3048	0.116515
3032	0.121521
3016	0.208735
3000	-0.050401
2984	-0.030016
2968	0.082778
2952	0.081038
2936	-0.036764
2920	0.081539
2904	0.030589
2888	0.135850
2872	0.082516
2856	0.106287
2840	0.024986
2824	-0.010776
2808	-0.012636
2792	0.052475
2776	-0.048422
2760	0.053381
2744	0.070500
2728	0.104999
2712	-0.047445
2696	-0.039815
2680	-0.047278
2664	0.025653
2648	0.020742
2632	0.054550
2616	-0.143456
2600	0.078129
2584	-0.032234
2568	0.054574
2552	0.025296
2536	0.014662
2520	0.071668
2504	0.077843
2488	-0.067305
2472	-0.020074
2456	-0.053644
2440	-0.041317
2424	-0.081491
2408	0.056505
2392	0.052428
2376	0.130057
2360	0.203371
2344	0.187611
2328	0.316953
2312	0.577759
2296	0.698018
2280	1.023912
2264	1.386022
2248	1.864647
2232	2.599716
2216	3.484916
2200	4.518508
2184	5.751991
2168	7.277321
2152	8.822345
2136	10.7085
2120	12.5967
2104	14.349
2088	16.3181
2072	18.1187
2056	19.8089
2040	21.5304
2024	23.0886
2008	24.5791
1992	25.7363
1976	26.8202
1960	28.0045
1944	28.745
1928	29.49
1912	30.4184
1896	31.0144
1880	31.4498
1864	32.0356
1848	32.5945
1832	32.8346
1816	33.0327
1800	33.5655
1784	33.8507
1768	33.778
1752	34.0735
1736	34.4871
1720	34.5429
1704	34.4465
1688	34.7062
1672	34.8708
1656	34.8345
1640	34.9549
1624	35.1543
1608	35.2662
1592	34.9826
1576	34.9816
1560	35.4883
1544	35.2643
1528	34.998
1512	35.0401
1496	35.313
1480	35.1805
1464	34.7878
1448	35.1049
1432	35.3577
1416	34.9722
1400	34.7132
1384	34.8737
1368	35.0491
1352	34.6699
1336	34.442
1320	34.8339
1304	34.6181
1288	34.2353
1272	34.3723
1256	34.6074
1240	34.279
1224	33.8861
1208	33.925
1192	34.2589
1176	33.8047
1160	33.539
1144	33.7303
1128	33.8268
1112	33.429
1096	33.073
1080	33.3228
1064	33.3429
1048	32.686
1032	32.6374
1016	32.8651
1000	32.8613
984	 32.1357
968	 32.08
952	 32.4781
936	 32.3001
920	 31.5751
904	 31.5121
888	 31.998
872	 31.3497
856	 30.7575
840	 30.8312
824	 30.8724
808	 30.6252
792	 29.8878
776	 30.0464
760	 30.3046
744	 29.4977
728	 29.0435
712	 29.2264
696	 29.1288
680	 28.6028
664	 27.9842
648	 28.1965
632	 27.528
616	 27.1138
600	 26.6367
584	 27.0475
568	 26.9292
552	 25.6933
536	 25.6472
520	 25.8002
504	 24.4682
488	 23.3251
472	 24.4362
456	 23.8131
440	 22.3851
424	 20.2041
408	 21.6721
392	 9.979557
376	 32.5599
370	 15.0027