Folder: Masteroppgave/Bakgrunnsmateriale/MATLAB/FTIR/ftir_data/LPE453/Mapping_121 (part 11)

File: LPE453_t19.asc
PE IR       SPECTRUM    SPECTRUM    ASCII       PEDS        1.60
  -1
LPE79D~1.ASC
17/05/16
15:51:41.00
17/05/16
15:52:07.00
tln
$LPE453_t0019$<tbV0>[-5.2,-10.4,8.0,0.0,27,1,0]
27.028
64

2002,4.07
MIRTGS : RIGHTBACK : INTERNAL 2
MIR : ON : INTERNAL 2
OPTKBR

0.200000
8
8.000000
FILLER
RATIO
SPECTRUM
UNLOCKED 256

DOUBLE
64
COMBINED
1
0
0

0.002000
RATIO

1
0
TRUE
51149
0
LEFT NOT FITTED RIGHT NOT FITTED 0
NONE
NONE
15600
12
4.427000
51148
TRUE
1 0 8 72 0 0 0 0

15798

#HDR
-1
-1
#GR
µM
%T
2.38419e-05
0.0
2.000000
0.002000
12515
8
41.7263
-1.228923
#DATA
2.000000	 0.009632
2.084000	 -0.040175
2.168000	 0.067582
2.252000	 0.345113
2.336000	 0.198957
2.420000	 0.051527
2.504000	 0.207160
2.588000	 -0.030109
2.672000	 -0.084090
2.756000	 -0.026299
2.840000	 -0.074747
2.924000	 -0.018903
3.008000	 0.187490
3.092000	 0.074171
3.176000	 -0.074673
3.260000	 0.137035
3.344000	 -0.056467
3.428000	 0.037777
3.512000	 -0.015724
3.596000	 -0.060789
3.680000	 0.082091
3.764000	 0.023768
3.848000	 -0.058126
3.932000	 -0.046714
4.016000	 0.124347
4.100000	 -0.046619
4.184000	 0.089522
4.268000	 0.280075
4.352000	 0.937153
4.436000	 2.216932
4.520000	 4.891117
4.604000	 8.812384
4.688000	 13.7483
4.772000	 19.0368
4.856000	 23.7798
4.940000	 27.5791
5.024000	 30.4136
5.108000	 32.6702
5.192000	 34.3367
5.276000	 35.1588
5.359999	 36.3327
5.444000	 36.4806
5.528000	 37.2526
5.612000	 37.4176
5.696000	 37.6175
5.780000	 38.1291
5.864000	 37.8126
5.948000	 38.5202
6.032000	 38.1321
6.116000	 38.1465
6.200000	 38.5832
6.284000	 37.7697
6.368000	 38.2204
6.452000	 38.5974
6.536000	 37.8489
6.620000	 38.192
6.704000	 38.4022
6.788000	 38.0579
6.872000	 37.7776
6.956000	 38.3762
7.040000	 38.2194
7.124000	 37.652
7.208000	 37.6389
7.292000	 38.2626
7.376000	 38.03
7.460000	 37.504
7.544000	 37.5541
7.628000	 38.0859
7.712000	 38.1929
7.796000	 37.5793
7.880000	 37.0849
7.964000	 37.5024
8.048000	 38.0896
8.132000	 37.8686
8.216000	 37.3008
8.300000	 37.0311
8.384000	 37.4847
8.468000	 38.1031
8.552000	 37.9678
8.635999	 37.3003
8.719999	 36.9542
8.804000	 37.0992
8.888000	 37.7128
8.972000	 37.864
9.056000	 37.6017
9.140000	 37.2654
9.224000	 36.5417
9.308000	 36.7114
9.391999	 37.3409
9.475999	 37.5976
9.560000	 37.494
9.644000	 37.2331
9.728000	 36.669
9.812000	 36.2886
9.896000	 36.1956
9.980000	 36.7008
10.064	37.2882
10.148	37.7019
10.232	37.5724
10.316	36.9656
10.4	36.3301
10.484	36.1066
10.568	36.1131
10.652	36.4856
10.736	37.019
10.82	37.1281
10.904	37.1017
10.988	36.7694
11.072	36.1711
11.156	35.6353
11.24	35.3859
11.324	35.4504
11.408	35.8644
11.492	36.2668
11.576	36.5524
11.66	36.6745
11.744	36.393
11.828	35.9223
11.912	35.4697
11.996	35.2102
12.08	35.0277
12.164	34.9242
12.248	35.1305
12.332	35.4675
12.416	35.7011
12.5	35.8947
12.584	35.8977
12.668	35.6277
12.752	35.2412
12.836	35.012
12.92	34.8381
13.004	34.4179
13.088	34.2762
13.172	34.5106
13.256	34.3256
13.34	34.1808
13.424	34.4833
13.508	34.8858
13.592	35.0273
13.676	35.0087
13.76	34.9032
13.844	34.7038
13.928	34.5433
14.012	34.2041
14.096	33.5594
14.18	33.0653
14.264	32.9579
14.348	33.0311
14.432	33.2015
14.516	33.4433
14.6	33.5672
14.684	33.6911
14.768	34.0286
14.852	34.4647
14.936	34.6858
15.02	34.5595
15.104	34.1632
15.188	33.6033
15.272	33.2013
15.356	33.1233
15.44	33.0305
15.524	32.6791
15.608	32.2549
15.692	32.0057
15.776	31.9763
15.86	32.0964
15.944	32.2397
16.028	32.2754
16.112	32.2507
16.196	32.3246
16.28	32.4977
16.364	32.6769
16.448	32.8386
16.532	32.8885
16.616	32.7166
16.7	32.4449
16.784	32.2875
16.868	32.2772
16.952	32.2899
17.036	32.1993
17.12	31.942
17.204	31.5607
17.288	31.202
17.372	30.9942
17.456	30.9367
17.54	30.9594
17.624	31.0471
17.708	31.2142
17.792	31.4054
17.876	31.5349
17.96	31.6155
18.044	31.7316
18.128	31.8784
18.212	31.9225
18.296	31.7682
18.38	31.4943
18.464	31.2937
18.548	31.2759
18.632	31.3731
18.716	31.4478
18.8	31.4415
18.884	31.3588
18.968	31.1989
19.052	30.9793
19.136	30.7681
19.22	30.6172
19.304	30.4786
19.388	30.2342
19.472	29.8193
19.556	29.2974
19.64	28.8302
19.724	28.587
19.808	28.6508
19.892	28.931
19.976	29.1818
20.06	29.1482
20.144	28.7527
20.228	28.1671
20.312	27.6983
20.396	27.5752
20.48	27.8027
20.564	28.2019
20.648	28.5894
20.732	28.9208
20.816	29.2829
20.9	29.7513
20.984	30.2577
21.068	30.6141
21.152	30.6634
21.236	30.4153
21.32	30.0422
21.404	29.7402
21.488	29.6066
21.572	29.6063
21.656	29.6421
21.74	29.6399
21.824	29.5884
21.908	29.5201
21.992	29.4577
22.076	29.3862
22.16	29.2718
22.244	29.1048
22.328	28.9141
22.412	28.7437
22.496	28.5926
22.58	28.4031
22.664	28.0825
22.748	27.545
22.832	26.7801
22.916	25.8764
23	25.0093
23.084	24.3726
23.168	24.128
23.252	24.3211
23.336	24.8687
23.42	25.621
23.504	26.4168
23.588	27.0961
23.672	27.5222
23.756	27.6059
23.84	27.2665
23.924	26.4689
24.008	25.2603
24.092	23.7977
24.176	22.3427
24.26	21.193
24.344	20.6353
24.428	20.8063
24.512	21.6053
24.596	22.7022
24.68	23.5946
24.764	23.7757
24.848	22.9186
24.932	21.1207
25.016	18.9789
25.1	17.3461
25.184	17.1421
25.268	18.8913
25.352	22.4891
25.436	27.2405
25.52	32.0711
25.604	35.9225
25.688	38.007
25.772	38.1096
25.856	36.6132
25.94	34.3968
26.024	32.5831
26.108	32.0937
26.192	33.314
26.276	35.9199
26.36	38.9688
26.444	41.2226
26.528	41.5994
26.612	39.5444
26.696	35.0919
26.78	28.8296
26.864	21.6807
26.948	14.5818
27.028	8.553647

File: LPE453_t19_cm-1.asc
PE IR       SPECTRUM    SPECTRUM    ASCII       PEDS        1.60
  -1
LPE7D9~1.ASC
17/05/16
15:51:41.00
17/05/16
15:51:41.00
tln
$LPE453_t0019$<tbV0>[-5.2,-10.4,8.0,0.0,27,1,0]
370
64

2002,4.07
MIRTGS : RIGHTBACK : INTERNAL 2
MIR : ON : INTERNAL 2
OPTKBR

0.200000
8
8.000000
FILLER
RATIO
SPECTRUM
UNLOCKED 256

DOUBLE
64
COMBINED
1
0
0

1.000000
RATIO

1
0
TRUE
51149
0
LEFT NOT FITTED RIGHT NOT FITTED 0
NONE
NONE
15600
12
4.427000
51148
TRUE
1 0 8 72 0 0 0 0

15798

#HDR
-1
-1
#GR
CM-1
%T
2.38419e-05
0.0
5000
-1.000000
4631
8
41.6256
-1.298379
#DATA
5000	0.009632
4984	0.147652
4968	0.360703
4952	0.230908
4936	0.527000
4920	-0.012373
4904	0.415086
4888	-0.270700
4872	-0.052523
4856	-0.075483
4840	0.098490
4824	0.027728
4808	0.266599
4792	-0.264930
4776	0.165057
4760	-0.213360
4744	0.146818
4728	0.295710
4712	0.195121
4696	0.458121
4680	0.635790
4664	0.151419
4648	0.279760
4632	0.981211
4616	0.159859
4600	0.855803
4584	-0.665521
4568	-1.290488
4552	0.008201
4536	-0.037765
4520	6.010961
4504	1.212739
4488	-0.993871
4472	-0.230836
4456	-0.586938
4440	0.389885
4424	0.382113
4408	0.270605
4392	0.338840
4376	0.324463
4360	0.263738
4344	0.337076
4328	0.394630
4312	0.013256
4296	-0.017213
4280	0.232148
4264	0.051069
4248	-0.217795
4232	0.072622
4216	-0.179219
4200	0.310730
4184	0.561976
4168	0.312089
4152	-0.044536
4136	0.073242
4120	0.098133
4104	0.140976
4088	0.168681
4072	0.159358
4056	0.055241
4040	-0.003814
4024	0.135397
4008	0.085496
3992	0.200867
3976	0.156044
3960	0.211834
3944	0.139212
3928	0.229883
3912	0.249290
3896	-0.015234
3880	0.063467
3864	-0.030136
3848	0.067877
3832	0.178337
3816	-0.014638
3800	0.201272
3784	-0.021767
3768	-0.098037
3752	0.200676
3736	0.092887
3720	0.160789
3704	0.187301
3688	0.030183
3672	0.186347
3656	-0.033712
3640	0.013422
3624	-0.012063
3608	-0.000643
3592	0.127196
3576	0.111126
3560	-0.037431
3544	-0.042510
3528	-0.028133
3512	0.041007
3496	0.096631
3480	0.052666
3464	-0.099897
3448	0.022912
3432	0.061416
3416	0.065922
3400	0.028538
3384	0.119256
3368	0.107097
3352	0.100469
3336	-0.119686
3320	0.097513
3304	-0.023698
3288	0.270366
3272	0.334024
3256	0.131011
3240	0.059366
3224	-0.093030
3208	0.120115
3192	0.103878
3176	0.168943
3160	0.076746
3144	-0.167655
3128	0.219774
3112	0.001358
3096	0.076842
3080	0.114250
3064	0.083589
3048	0.043702
3032	0.140571
3016	-0.034451
3000	0.047206
2984	0.015187
2968	0.065588
2952	0.056266
2936	0.010561
2920	0.030136
2904	0.077128
2888	0.099587
2872	0.015711
2856	0.083422
2840	0.028991
2824	0.029373
2808	0.030732
2792	0.075030
2776	0.021648
2760	-0.110006
2744	0.022697
2728	0.116038
2712	0.028061
2696	0.040054
2680	0.140833
2664	-0.002717
2648	0.011062
2632	-0.088834
2616	0.059723
2600	-0.057363
2584	0.089955
2568	0.055837
2552	0.035071
2536	-0.020098
2520	-0.005125
2504	0.255298
2488	0.139617
2472	0.010943
2456	0.074362
2440	-0.043582
2424	-0.203537
2408	0.199460
2392	0.100159
2376	0.081014
2360	0.227952
2344	0.275111
2328	0.459694
2312	0.783824
2296	0.984239
2280	1.352334
2264	1.862001
2248	2.584600
2232	3.547024
2216	4.586291
2200	6.005764
2184	7.544517
2168	9.246993
2152	11.3227
2136	13.3534
2120	15.5925
2104	17.7499
2088	20.2023
2072	22.0276
2056	24.1344
2040	25.8734
2024	27.6097
2008	28.8554
1992	30.2557
1976	31.6223
1960	32.5581
1944	33.2575
1928	34.2254
1912	34.8787
1896	35.1502
1880	35.6927
1864	36.3729
1848	36.7055
1832	36.4654
1816	36.9219
1800	37.4569
1784	37.4697
1768	37.3257
1752	37.7551
1736	38.2041
1720	37.8512
1704	37.8654
1688	38.3317
1672	38.3199
1656	38.1849
1640	37.9525
1624	38.5031
1608	38.3903
1592	37.7842
1576	38.0869
1560	38.93
1544	38.4811
1528	37.8258
1512	38.1146
1496	38.4368
1480	38.2193
1464	37.5926
1448	38.0318
1432	38.327
1416	38.0466
1400	37.6675
1384	37.7328
1368	38.3523
1352	37.8401
1336	37.4523
1320	37.7507
1304	38.2043
1288	37.8608
1272	37.1447
1256	37.4805
1240	38.0685
1224	37.5845
1208	37.0425
1192	37.5232
1176	38.1507
1160	37.4194
1144	36.9482
1128	37.5286
1112	37.7673
1096	37.4132
1080	36.5486
1064	37.3785
1048	37.5698
1032	36.9808
1016	36.2085
1000	36.8018
984	 37.6852
968	 36.8288
952	 36.0737
936	 36.731
920	 37.1111
904	 36.2553
888	 35.3384
872	 36.1628
856	 36.6295
840	 35.501
824	 34.9311
808	 35.6017
792	 35.7893
776	 34.9289
760	 34.4902
744	 34.5729
728	 34.9463
712	 33.9696
696	 33.0598
680	 33.757
664	 34.3995
648	 33.0501
632	 32.0313
616	 32.3969
600	 32.5487
584	 31.9288
568	 31.0209
552	 31.86
536	 31.4022
520	 30.6008
504	 28.7474
488	 27.853
472	 30.5901
456	 29.5032
440	 27.7002
424	 27.0752
408	 21.5795
392	 31.5458
376	 40.1397
370	 8.553647

File: LPE453_t20.asc
PE IR       SPECTRUM    SPECTRUM    ASCII       PEDS        1.60
  -1
LPCB99~1.ASC
17/05/16
15:56:17.00
17/05/16
15:56:44.00
tln
$LPE453_t0020$<tbV0>[-7.8,-10.4,8.0,0.0,27,1,0]
27.028
64

2002,4.07
MIRTGS : RIGHTBACK : INTERNAL 2
MIR : ON : INTERNAL 2
OPTKBR

0.200000
8
8.000000
FILLER
RATIO
SPECTRUM
UNLOCKED 256

DOUBLE
64
COMBINED
1
0
0

0.002000
RATIO

1
0
TRUE
51149
0
LEFT NOT FITTED RIGHT NOT FITTED 0
NONE
NONE
15600
12
4.427000
51148
TRUE
1 0 8 72 0 0 0 0

15798

#HDR
-1
-1
#GR
µM
%T
2.38419e-05
0.0
2.000000
0.002000
12515
8
34.5041
-15.9177
#DATA
2.000000	 -0.224494
2.084000	 0.231176
2.168000	 -0.060890
2.252000	 0.037192
2.336000	 -0.075358
2.420000	 -0.023811
2.504000	 0.115996
2.588000	 -0.017048
2.672000	 0.061228
2.756000	 0.122525
2.840000	 -0.022696
2.924000	 0.090821
3.008000	 0.001118
3.092000	 0.044830
3.176000	 -0.069115
3.260000	 0.129164
3.344000	 0.036297
3.428000	 0.040305
3.512000	 0.136735
3.596000	 0.081375
3.680000	 -0.002827
3.764000	 0.060887
3.848000	 0.078610
3.932000	 -0.048258
4.016000	 0.075456
4.100000	 -0.065308
4.184000	 0.189510
4.268000	 0.420354
4.352000	 0.926908
4.436000	 1.899103
4.520000	 3.935980
4.604000	 7.013227
4.688000	 10.5895
4.772000	 14.3559
4.856000	 18.1017
4.940000	 20.3302
5.024000	 22.7272
5.108000	 24.1825
5.192000	 25.3643
5.276000	 26.218
5.359999	 26.9668
5.444000	 27.3069
5.528000	 28.0287
5.612000	 27.7502
5.696000	 28.7101
5.780000	 28.4666
5.864000	 28.7784
5.948000	 29.3636
6.032000	 28.7575
6.116000	 29.5246
6.200000	 29.6076
6.284000	 28.9624
6.368000	 29.7922
6.452000	 29.9573
6.536000	 29.3552
6.620000	 29.9035
6.704000	 30.5116
6.788000	 29.9462
6.872000	 29.8165
6.956000	 30.53
7.040000	 30.9312
7.124000	 30.1741
7.208000	 30.3242
7.292000	 31.0657
7.376000	 31.1347
7.460000	 30.7082
7.544000	 30.4272
7.628000	 31.1437
7.712000	 31.6616
7.796000	 31.567
7.880000	 30.7229
7.964000	 30.9578
8.048000	 31.7371
8.132000	 32.1805
8.216000	 31.8552
8.300000	 31.406
8.384000	 31.2226
8.468000	 31.8983
8.552000	 32.3582
8.635999	 32.6651
8.719999	 32.3288
8.804000	 31.9169
8.888000	 31.7564
8.972000	 32.4587
9.056000	 33.2137
9.140000	 33.3785
9.224000	 32.7434
9.308000	 32.1858
9.391999	 31.9407
9.475999	 32.0915
9.560000	 32.6684
9.644000	 33.356
9.728000	 33.4528
9.812000	 33.0058
9.896000	 32.7655
9.980000	 32.378
10.064	32.4135
10.148	32.9627
10.232	33.5
10.316	33.9104
10.4	33.9106
10.484	33.7703
10.568	33.4702
10.652	33.0093
10.736	32.8978
10.82	32.9208
10.904	33.106
10.988	33.6059
11.072	34.1734
11.156	34.4129
11.24	34.2166
11.324	33.9213
11.408	33.5068
11.492	33.177
11.576	32.6545
11.66	32.7472
11.744	33.2136
11.828	33.6633
11.912	34.2003
11.996	34.493
12.08	34.4127
12.164	34.2227
12.248	33.8015
12.332	33.5008
12.416	33.1724
12.5	33.0147
12.584	33.0829
12.668	33.1769
12.752	33.3317
12.836	33.5542
12.92	33.8204
13.004	34.0406
13.088	34.2574
13.172	34.4052
13.256	34.0498
13.34	33.5745
13.424	33.2025
13.508	32.7127
13.592	32.3262
13.676	32.2989
13.76	32.4675
13.844	32.6598
13.928	32.9845
14.012	33.3029
14.096	33.5649
14.18	33.9222
14.264	34.2095
14.348	34.0328
14.432	33.5417
14.516	33.3947
14.6	33.4919
14.684	33.3334
14.768	33.0429
14.852	32.7699
14.936	32.329
15.02	32.0037
15.104	32.0798
15.188	32.1561
15.272	32.0924
15.356	32.1834
15.44	32.4719
15.524	32.7355
15.608	32.7946
15.692	32.7729
15.776	32.8769
15.86	33.0752
15.944	33.2353
16.028	33.2526
16.112	33.0524
16.196	32.7117
16.28	32.3914
16.364	32.1243
16.448	31.8725
16.532	31.6765
16.616	31.5695
16.7	31.4906
16.784	31.3581
16.868	31.1456
16.952	30.9379
17.036	30.8782
17.12	31.0072
17.204	31.245
17.288	31.5326
17.372	31.8761
17.456	32.2495
17.54	32.5553
17.624	32.6887
17.708	32.6385
17.792	32.4837
17.876	32.2854
17.96	32.0574
18.044	31.8573
18.128	31.7795
18.212	31.8049
18.296	31.8013
18.38	31.7278
18.464	31.6639
18.548	31.616
18.632	31.4459
18.716	31.056
18.8	30.5422
18.884	30.0898
18.968	29.8115
19.052	29.7114
19.136	29.717
19.22	29.7224
19.304	29.6824
19.388	29.6556
19.472	29.7176
19.556	29.8426
19.64	29.9204
19.724	29.8957
19.808	29.8399
19.892	29.8526
19.976	29.9444
20.06	30.0453
20.144	30.0845
20.228	30.042
20.312	29.9597
20.396	29.908
20.48	29.9443
20.564	30.0709
20.648	30.242
20.732	30.3961
20.816	30.4992
20.9	30.5424
20.984	30.5083
21.068	30.3886
21.152	30.2478
21.236	30.2261
21.32	30.4374
21.404	30.8368
21.488	31.2152
21.572	31.3331
21.656	31.0765
21.74	30.5126
21.824	29.8261
21.908	29.2036
21.992	28.7697
22.076	28.5903
22.16	28.6815
22.244	28.9984
22.328	29.4196
22.412	29.7626
22.496	29.8647
22.58	29.6673
22.664	29.227
22.748	28.6861
22.832	28.1712
22.916	27.7397
23	27.4265
23.084	27.2636
23.168	27.2682
23.252	27.4093
23.336	27.5927
23.42	27.6864
23.504	27.6058
23.588	27.3737
23.672	27.1232
23.756	27.0808
23.84	27.4674
23.924	28.3861
24.008	29.7485
24.092	31.236
24.176	32.3294
24.26	32.5289
24.344	31.5119
24.428	29.315
24.512	26.363
24.596	23.3355
24.68	20.9895
24.764	19.9098
24.848	20.2302
24.932	21.7126
25.016	23.8943
25.1	26.2867
25.184	28.4819
25.268	30.2618
25.352	31.5694
25.436	32.3862
25.52	32.6247
25.604	32.0919
25.688	30.4182
25.772	27.2461
25.856	22.5183
25.94	16.7656
26.024	11.147
26.108	7.099950
26.192	5.614016
26.276	6.786276
26.36	9.710340
26.444	12.7047
26.528	13.9912
26.612	12.4336
26.696	7.857595
26.78	1.088371
26.864	-6.293236
26.948	-12.4854
27.028	-15.9177

File: LPE453_t20_cm-1.asc
PE IR       SPECTRUM    SPECTRUM    ASCII       PEDS        1.60
  -1
LP5855~1.ASC
17/05/16
15:56:17.00
17/05/16
15:56:17.00
tln
$LPE453_t0020$<tbV0>[-7.8,-10.4,8.0,0.0,27,1,0]
370
64

2002,4.07
MIRTGS : RIGHTBACK : INTERNAL 2
MIR : ON : INTERNAL 2
OPTKBR

0.200000
8
8.000000
FILLER
RATIO
SPECTRUM
UNLOCKED 256

DOUBLE
64
COMBINED
1
0
0

1.000000
RATIO

1
0
TRUE
51149
0
LEFT NOT FITTED RIGHT NOT FITTED 0
NONE
NONE
15600
12
4.427000
51148
TRUE
1 0 8 72 0 0 0 0

15798

#HDR
-1
-1
#GR
CM-1
%T
2.38419e-05
0.0
5000
-1.000000
4631
8
34.5035
-15.9177
#DATA
5000	-0.224494
4984	-0.083589
4968	0.552654
4952	0.518345
4936	0.095319
4920	0.350880
4904	0.464725
4888	0.472688
4872	-0.167179
4856	0.087118
4840	0.452899
4824	-0.148296
4808	0.212097
4792	0.163340
4776	0.273799
4760	-0.048708
4744	0.444340
4728	0.331521
4712	-0.152993
4696	-0.036740
4680	0.268507
4664	0.152921
4648	0.081396
4632	0.300574
4616	0.200915
4600	0.020980
4584	-0.231838
4568	-0.951719
4552	-0.401163
4536	-0.203204
4520	15.701
4504	1.875495
4488	-1.105618
4472	-0.969314
4456	-0.567197
4440	0.076866
4424	0.226354
4408	0.003886
4392	0.085401
4376	0.435233
4360	0.057744
4344	0.295448
4328	-0.204801
4312	0.138854
4296	-0.052690
4280	-0.110650
4264	0.002503
4248	0.656533
4232	0.265526
4216	-0.141882
4200	0.092697
4184	0.043511
4168	0.243163
4152	0.043153
4136	0.150227
4120	0.182437
4104	0.142335
4088	0.225591
4072	0.168037
4056	0.044059
4040	-0.062751
4024	-0.033378
4008	-0.038647
3992	0.136065
3976	0.153398
3960	0.140380
3944	0.136232
3928	0.025963
3912	0.047969
3896	-0.072884
3880	-0.007963
3864	-0.017380
3848	-0.008773
3832	0.140690
3816	0.185632
3800	0.010728
3784	0.068140
3768	0.303435
3752	0.021982
3736	0.069665
3720	0.139832
3704	-0.022697
3688	0.058889
3672	0.179862
3656	0.071763
3640	0.139355
3624	0.228095
3608	-0.035214
3592	0.014185
3576	0.098204
3560	0.068259
3544	0.102877
3528	0.036501
3512	-0.008654
3496	0.175595
3480	0.119805
3464	0.225043
3448	-0.066876
3432	0.026655
3416	0.074434
3400	-0.015258
3384	0.061917
3368	0.028204
3352	0.133109
3336	0.014305
3320	-0.030517
3304	0.088119
3288	0.055241
3272	0.057244
3256	0.015735
3240	0.033617
3224	0.111031
3208	0.001430
3192	-0.013637
3176	0.066590
3160	0.053381
3144	0.017070
3128	0.094532
3112	-0.072813
3096	0.019741
3080	0.019073
3064	0.133705
3048	0.001215
3032	0.093317
3016	-0.016427
3000	0.012350
2984	0.065875
2968	0.007796
2952	-0.029563
2936	0.047183
2920	0.057268
2904	0.205612
2888	0.045061
2872	0.276255
2856	0.016880
2840	0.153136
2824	-0.021553
2808	-0.021028
2792	0.022912
2776	0.077795
2760	-0.042009
2744	-0.011181
2728	-0.025391
2712	0.037169
2696	0.064492
2680	0.030159
2664	0.128579
2648	0.009727
2632	0.051498
2616	0.121021
2600	0.058579
2584	0.119638
2568	0.062823
2552	-0.032663
2536	-0.083875
2520	0.063729
2504	0.195312
2488	0.085973
2472	0.112938
2456	0.154733
2440	-0.092744
2424	0.039529
2408	0.060510
2392	0.208950
2376	0.137877
2360	0.154399
2344	0.378823
2328	0.544476
2312	0.637602
2296	0.967574
2280	1.272559
2264	1.524829
2248	2.178955
2232	2.970767
2216	3.771066
2200	4.983162
2184	6.034874
2168	7.357859
2152	8.786320
2136	10.2824
2120	12.0529
2104	13.5652
2088	15.1641
2072	17.0773
2056	18.4139
2040	19.2755
2024	20.3541
2008	21.6911
1992	22.6886
1976	23.1609
1960	24.0369
1944	25.0022
1928	25.3533
1912	25.6599
1896	26.1934
1880	26.9273
1864	26.9519
1848	27.0744
1832	27.4701
1816	27.9924
1800	27.9859
1784	27.747
1768	28.3992
1752	28.8575
1736	28.5775
1720	28.3722
1704	28.8881
1688	29.413
1672	28.9104
1656	28.8264
1640	29.3543
1624	29.7572
1608	29.3625
1592	28.9463
1576	29.68
1560	30.2666
1544	29.9799
1528	29.3586
1512	29.7953
1496	30.4276
1480	30.1621
1464	29.6773
1448	29.9031
1432	30.7486
1416	30.7561
1400	30.1378
1384	30.4144
1368	31.2037
1352	31.0573
1336	30.6776
1320	30.5856
1304	31.4276
1288	31.6252
1272	30.8283
1256	30.9479
1240	31.8408
1224	32.2165
1208	31.4961
1192	31.241
1176	32.0565
1160	32.7045
1144	32.1944
1128	31.6821
1112	32.6735
1096	33.4286
1080	32.4821
1064	31.9357
1048	32.6061
1032	33.4929
1016	32.8739
1000	32.3302
984	 33.0911
968	 33.9474
952	 33.744
936	 32.9846
920	 33.0506
904	 34.1216
888	 34.151
872	 33.3115
856	 32.8672
840	 34.1604
824	 34.3015
808	 33.3406
792	 33.1192
776	 33.7186
760	 34.4087
744	 33.113
728	 32.4178
712	 33.4018
696	 33.9199
680	 33.2557
664	 32.0057
648	 32.4417
632	 32.985
616	 32.5592
600	 31.5243
584	 31.0151
568	 32.6767
552	 31.782
536	 31.3537
520	 29.7196
504	 29.8334
488	 29.9572
472	 30.2154
456	 29.069
440	 28.8205
424	 27.3833
408	 26.4431
392	 32.6324
376	 12.9823
370	 -15.9177

File: LPE453_t21.asc
PE IR       SPECTRUM    SPECTRUM    ASCII       PEDS        1.60
  -1
LPCB9D~1.ASC
17/05/16
16:00:54.00
17/05/16
16:01:20.00
tln
$LPE453_t0021$<tbV0>[-10.4,-10.4,8.0,0.0,27,1,0]
27.028
64

2002,4.07
MIRTGS : RIGHTBACK : INTERNAL 2
MIR : ON : INTERNAL 2
OPTKBR

0.200000
8
8.000000
FILLER
RATIO
SPECTRUM
UNLOCKED 256

DOUBLE
64
COMBINED
1
0
0

0.002000
RATIO

1
0
TRUE
51149
0
LEFT NOT FITTED RIGHT NOT FITTED 0
NONE
NONE
15600
12
4.427000
51148
TRUE
1 0 8 72 0 0 0 0

15798

#HDR
-1
-1
#GR
µM
%T
2.38419e-05
0.0
2.000000
0.002000
12515
8
41.0909
-12.7726
#DATA
2.000000	 0.202107
2.084000	 0.297566
2.168000	 0.926034
2.252000	 -0.807153
2.336000	 -0.137461
2.420000	 0.088778
2.504000	 0.217205
2.588000	 0.125348
2.672000	 0.059713
2.756000	 0.073206
2.840000	 -0.089218
2.924000	 0.043472
3.008000	 0.159501
3.092000	 0.187938
3.176000	 0.243217
3.260000	 0.042451
3.344000	 -0.090553
3.428000	 0.041291
3.512000	 0.172450
3.596000	 0.066185
3.680000	 0.126140
3.764000	 0.078439
3.848000	 0.011214
3.932000	 -0.077698
4.016000	 0.124144
4.100000	 0.218625
4.184000	 0.103817
4.268000	 0.235226
4.352000	 0.750364
4.436000	 1.905740
4.520000	 4.031600
4.604000	 7.365693
4.688000	 11.8097
4.772000	 16.5487
4.856000	 21.1423
4.940000	 24.6331
5.024000	 27.5772
5.108000	 29.7939
5.192000	 31.6441
5.276000	 32.792
5.359999	 33.6996
5.444000	 34.3865
5.528000	 35.0724
5.612000	 35.3295
5.696000	 35.5958
5.780000	 35.8968
5.864000	 35.8968
5.948000	 36.1407
6.032000	 36.256
6.116000	 36.0566
6.200000	 36.1979
6.284000	 35.9328
6.368000	 36.118
6.452000	 36.1373
6.536000	 36.0123
6.620000	 36.1179
6.704000	 36.092
6.788000	 35.756
6.872000	 35.6182
6.956000	 35.8723
7.040000	 35.7354
7.124000	 35.3788
7.208000	 35.5984
7.292000	 35.7873
7.376000	 35.3269
7.460000	 35.1874
7.544000	 35.2883
7.628000	 35.5172
7.712000	 35.2648
7.796000	 35.0229
7.880000	 35.0779
7.964000	 35.1206
8.048000	 35.1809
8.132000	 34.8693
8.216000	 34.8232
8.300000	 35.0247
8.384000	 35.1692
8.468000	 34.8716
8.552000	 34.7142
8.635999	 34.4865
8.719999	 34.8031
8.804000	 34.9922
8.888000	 34.7672
8.972000	 34.4227
9.056000	 33.931
9.140000	 34.0875
9.224000	 34.6344
9.308000	 34.4663
9.391999	 34.5798
9.475999	 34.3619
9.560000	 33.9684
9.644000	 33.8257
9.728000	 34.1065
9.812000	 34.3901
9.896000	 34.1172
9.980000	 34.1331
10.064	33.8199
10.148	33.7826
10.232	33.694
10.316	33.8156
10.4	33.9165
10.484	34.0895
10.568	34.2096
10.652	33.8644
10.736	33.3714
10.82	33.0207
10.904	32.8847
10.988	32.8508
11.072	33.0813
11.156	33.5212
11.24	33.6062
11.324	33.5319
11.408	33.1823
11.492	32.8491
11.576	32.5703
11.66	32.3771
11.744	32.3299
11.828	32.6192
11.912	32.8067
11.996	32.8343
12.08	32.813
12.164	32.8722
12.248	32.6034
12.332	32.4533
12.416	32.1852
12.5	31.9199
12.584	31.7191
12.668	31.7017
12.752	31.8475
12.836	32.2321
12.92	32.5509
13.004	32.6922
13.088	32.536
13.172	32.5051
13.256	32.5618
13.34	32.628
13.424	32.4474
13.508	31.6957
13.592	31.1761
13.676	31.2068
13.76	31.2676
13.844	31.1894
13.928	31.2683
14.012	31.3897
14.096	31.6275
14.18	31.9682
14.264	31.9695
14.348	31.5762
14.432	31.1619
14.516	30.886
14.6	30.582
14.684	30.3111
14.768	30.2387
14.852	30.2994
14.936	30.3792
15.02	30.4644
15.104	30.6439
15.188	30.8325
15.272	30.8666
15.356	30.8908
15.44	31.006
15.524	30.983
15.608	30.795
15.692	30.7233
15.776	30.7162
15.86	30.4905
15.944	30.0626
16.028	29.6635
16.112	29.4434
16.196	29.3679
16.28	29.3149
16.364	29.2689
16.448	29.2523
16.532	29.2602
16.616	29.3345
16.7	29.4697
16.784	29.5807
16.868	29.6592
16.952	29.6909
17.036	29.5845
17.12	29.4131
17.204	29.398
17.288	29.5334
17.372	29.5882
17.456	29.4617
17.54	29.2247
17.624	28.9269
17.708	28.6073
17.792	28.3611
17.876	28.233
17.96	28.1459
18.044	28.0336
18.128	27.9214
18.212	27.835
18.296	27.7582
18.38	27.709
18.464	27.7593
18.548	27.9106
18.632	28.0371
18.716	28.047
18.8	28.0059
18.884	28.0118
18.968	28.0556
19.052	28.0929
19.136	28.1534
19.22	28.2727
19.304	28.3714
19.388	28.323
19.472	28.1159
19.556	27.8644
19.64	27.6513
19.724	27.4502
19.808	27.2057
19.892	26.9136
19.976	26.5979
20.06	26.2532
20.144	25.8789
20.228	25.5515
20.312	25.4253
20.396	25.5995
20.48	25.9956
20.564	26.3932
20.648	26.5855
20.732	26.5301
20.816	26.354
20.9	26.2385
20.984	26.2885
21.068	26.4975
21.152	26.7776
21.236	27.005
21.32	27.0504
21.404	26.8163
21.488	26.3106
21.572	25.6918
21.656	25.2417
21.74	25.2166
21.824	25.6734
21.908	26.4029
21.992	27.0708
22.076	27.4324
22.16	27.4646
22.244	27.3219
22.328	27.1704
22.412	27.0515
22.496	26.8752
22.58	26.5461
22.664	26.0553
22.748	25.4818
22.832	24.8925
22.916	24.2857
23	23.6251
23.084	22.9048
23.168	22.221
23.252	21.7376
23.336	21.6044
23.42	21.93
23.504	22.7027
23.588	23.8228
23.672	25.1412
23.756	26.4311
23.84	27.4668
23.924	28.0671
24.008	28.1526
24.092	27.791
24.176	27.2095
24.26	26.6313
24.344	26.1933
24.428	25.8682
24.512	25.4505
24.596	24.6435
24.68	23.1689
24.764	20.89
24.848	17.857
24.932	14.1927
25.016	10.0235
25.1	5.457557
25.184	0.696871
25.268	-3.920060
25.352	-7.959952
25.436	-10.9472
25.52	-12.5376
25.604	-12.6012
25.688	-11.0063
25.772	-7.656442
25.856	-2.621919
25.94	3.691135
26.024	10.4143
26.108	16.3338
26.192	20.2447
26.276	21.3341
26.36	19.4767
26.444	15.3334
26.528	10.1131
26.612	5.177426
26.696	1.638268
26.78	0.040452
26.864	0.313428
26.948	1.886202
27.028	3.835272