Folder: Masteroppgave/Bakgrunnsmateriale/MATLAB/FTIR/ftir_data/LPE453/Mapping_121 (part 17)

File: LPE453_t34.asc
PE IR       SPECTRUM    SPECTRUM    ASCII       PEDS        1.60
  -1
LPDF99~1.ASC
17/05/16
17:08:36.00
17/05/16
17:09:03.00
tln
$LPE453_t0034$<tbV0>[13.0,-5.2,8.0,0.0,27,1,0]
27.028
64

2002,4.07
MIRTGS : RIGHTBACK : INTERNAL 2
MIR : ON : INTERNAL 2
OPTKBR

0.200000
8
8.000000
FILLER
RATIO
SPECTRUM
UNLOCKED 256

DOUBLE
64
COMBINED
1
0
0

0.002000
RATIO

1
0
TRUE
51149
0
LEFT NOT FITTED RIGHT NOT FITTED 0
NONE
NONE
15600
12
4.427000
51148
TRUE
1 0 8 72 0 0 0 0

15798

#HDR
-1
-1
#GR
µM
%T
2.38419e-05
0.0
2.000000
0.002000
12515
8
36.4946
-18.1822
#DATA
2.000000	 -0.196623
2.084000	 0.296910
2.168000	 0.982151
2.252000	 -0.659469
2.336000	 0.131435
2.420000	 -0.088618
2.504000	 0.063663
2.588000	 -0.000134
2.672000	 0.077368
2.756000	 0.099514
2.840000	 0.019573
2.924000	 0.085145
3.008000	 0.114174
3.092000	 0.138921
3.176000	 -0.045768
3.260000	 -0.058629
3.344000	 0.126342
3.428000	 -0.009690
3.512000	 0.230381
3.596000	 -0.009213
3.680000	 0.086802
3.764000	 0.017482
3.848000	 -0.053423
3.932000	 0.037718
4.016000	 0.110806
4.100000	 0.017281
4.184000	 -0.066836
4.268000	 -0.130268
4.352000	 0.066444
4.436000	 0.192026
4.520000	 0.966506
4.604000	 2.527263
4.688000	 4.858468
4.772000	 7.805763
4.856000	 11.1361
4.940000	 14.1567
5.024000	 16.693
5.108000	 18.711
5.192000	 20.4033
5.276000	 21.6809
5.359999	 22.7183
5.444000	 23.4226
5.528000	 24.0948
5.612000	 24.4886
5.696000	 24.7531
5.780000	 25.0243
5.864000	 25.2394
5.948000	 25.4016
6.032000	 25.5028
6.116000	 25.6166
6.200000	 25.6831
6.284000	 25.7517
6.368000	 25.8082
6.452000	 25.8571
6.536000	 25.8896
6.620000	 25.9003
6.704000	 25.8051
6.788000	 25.8147
6.872000	 25.7436
6.956000	 25.8799
7.040000	 25.7579
7.124000	 25.8274
7.208000	 25.8846
7.292000	 25.5987
7.376000	 25.7812
7.460000	 25.7915
7.544000	 25.6242
7.628000	 25.6105
7.712000	 25.6847
7.796000	 25.5435
7.880000	 25.4727
7.964000	 25.5162
8.048000	 25.4355
8.132000	 25.3266
8.216000	 25.2697
8.300000	 25.3734
8.384000	 25.0991
8.468000	 25.0733
8.552000	 25.2063
8.635999	 25.1333
8.719999	 24.9808
8.804000	 24.8123
8.888000	 24.8377
8.972000	 24.8476
9.056000	 24.8733
9.140000	 24.4432
9.224000	 24.4872
9.308000	 24.5041
9.391999	 24.5665
9.475999	 24.5746
9.560000	 24.3357
9.644000	 24.3327
9.728000	 24.1452
9.812000	 24.3349
9.896000	 24.0847
9.980000	 23.7602
10.064	23.8154
10.148	23.752
10.232	23.709
10.316	23.4978
10.4	23.3295
10.484	23.2835
10.568	23.2446
10.652	23.3479
10.736	23.1938
10.82	23.0767
10.904	22.9676
10.988	22.7563
11.072	22.5803
11.156	22.6305
11.24	22.5948
11.324	22.6756
11.408	22.5463
11.492	22.4459
11.576	22.3323
11.66	22.3078
11.744	22.2527
11.828	22.2015
11.912	21.9878
11.996	21.9031
12.08	21.8261
12.164	21.6747
12.248	21.3998
12.332	21.3002
12.416	21.3677
12.5	21.4502
12.584	21.4378
12.668	21.1505
12.752	20.9439
12.836	20.8634
12.92	20.6608
13.004	20.698
13.088	20.8443
13.172	21.0116
13.256	21.0443
13.34	20.9656
13.424	20.874
13.508	20.5667
13.592	20.2562
13.676	20.1907
13.76	20.065
13.844	19.9184
13.928	19.845
14.012	19.8451
14.096	19.9312
14.18	20.0077
14.264	19.8837
14.348	19.5431
14.432	19.3599
14.516	19.4336
14.6	19.3385
14.684	19.1134
14.768	19.0863
14.852	19.019
14.936	18.8145
15.02	18.8541
15.104	19.074
15.188	19.1137
15.272	19.0093
15.356	18.8695
15.44	18.5836
15.524	18.201
15.608	18.0244
15.692	18.0837
15.776	18.1172
15.86	18.0326
15.944	17.9126
16.028	17.8407
16.112	17.8434
16.196	17.8098
16.28	17.6408
16.364	17.4709
16.448	17.4446
16.532	17.405
16.616	17.1765
16.7	16.9123
16.784	16.826
16.868	16.885
16.952	16.9731
17.036	17.0686
17.12	17.1272
17.204	17.0614
17.288	16.954
17.372	17.0167
17.456	17.2699
17.54	17.4895
17.624	17.5103
17.708	17.3603
17.792	17.1092
17.876	16.7896
17.96	16.435
18.044	16.0766
18.128	15.7448
18.212	15.5069
18.296	15.4202
18.38	15.4254
18.464	15.4169
18.548	15.4
18.632	15.4617
18.716	15.609
18.8	15.7353
18.884	15.7336
18.968	15.6028
19.052	15.4381
19.136	15.3459
19.22	15.3799
19.304	15.5147
19.388	15.6618
19.472	15.7026
19.556	15.5296
19.64	15.1075
19.724	14.5338
19.808	14.0076
19.892	13.7044
19.976	13.6615
20.06	13.7891
20.144	13.9638
20.228	14.1168
20.312	14.2442
20.396	14.3724
20.48	14.5284
20.564	14.7212
20.648	14.9241
20.732	15.0734
20.816	15.0952
20.9	14.9482
20.984	14.6367
21.068	14.2136
21.152	13.7649
21.236	13.3994
21.32	13.2123
21.404	13.2401
21.488	13.4275
21.572	13.6445
21.656	13.7583
21.74	13.7084
21.824	13.5377
21.908	13.3576
21.992	13.2726
22.076	13.329
22.16	13.4962
22.244	13.6988
22.328	13.8656
22.412	13.9712
22.496	14.0454
22.58	14.1338
22.664	14.2559
22.748	14.3972
22.832	14.533
22.916	14.6286
23	14.6828
23.084	14.7099
23.168	14.7172
23.252	14.6909
23.336	14.5979
23.42	14.4054
23.504	14.0827
23.588	13.6263
23.672	13.0718
23.756	12.501
23.84	12.0566
23.924	11.8859
24.008	12.0196
24.092	12.2777
24.176	12.304
24.26	11.6986
24.344	10.1933
24.428	7.853249
24.512	5.133036
24.596	2.658327
24.68	1.018421
24.764	0.533811
24.848	1.109267
24.932	2.260730
25.016	3.326682
25.1	3.764667
25.184	3.220309
25.268	1.675703
25.352	-0.567629
25.436	-3.003399
25.52	-5.085321
25.604	-6.368745
25.688	-6.516791
25.772	-5.406876
25.856	-3.188171
25.94	-0.295040
26.024	2.565836
26.108	4.585042
26.192	5.084149
26.276	3.714666
26.36	0.627811
26.444	-3.693197
26.528	-8.532480
26.612	-13.1344
26.696	-16.6321
26.78	-18.1634
26.864	-17.0208
26.948	-12.8644
27.028	-6.312179

File: LPE453_t34_cm-1.asc
PE IR       SPECTRUM    SPECTRUM    ASCII       PEDS        1.60
  -1
LPE85B~1.ASC
17/05/16
17:08:36.00
17/05/16
17:08:36.00
tln
$LPE453_t0034$<tbV0>[13.0,-5.2,8.0,0.0,27,1,0]
370
64

2002,4.07
MIRTGS : RIGHTBACK : INTERNAL 2
MIR : ON : INTERNAL 2
OPTKBR

0.200000
8
8.000000
FILLER
RATIO
SPECTRUM
UNLOCKED 256

DOUBLE
64
COMBINED
1
0
0

1.000000
RATIO

1
0
TRUE
51149
0
LEFT NOT FITTED RIGHT NOT FITTED 0
NONE
NONE
15600
12
4.427000
51148
TRUE
1 0 8 72 0 0 0 0

15798

#HDR
-1
-1
#GR
CM-1
%T
2.38419e-05
0.0
5000
-1.000000
4631
8
40.6374
-18.0939
#DATA
5000	-0.196623
4984	-0.350666
4968	0.251626
4952	-0.393581
4936	0.062775
4920	0.655817
4904	0.099325
4888	-0.065159
4872	0.706291
4856	0.517845
4840	0.173425
4824	0.329923
4808	0.490021
4792	0.180101
4776	0.254607
4760	0.050020
4744	-0.067400
4728	0.121808
4712	0.245881
4696	0.299954
4680	0.560688
4664	0.252485
4648	1.138091
4632	1.005339
4616	1.093745
4600	0.040555
4584	-0.826573
4568	-0.658035
4552	-1.726031
4536	-2.694296
4520	16.2766
4504	0.170755
4488	-0.842213
4472	-1.004505
4456	-0.408101
4440	-0.648093
4424	-0.251364
4408	1.101589
4392	0.599598
4376	0.936341
4360	0.564694
4344	0.144124
4328	0.240159
4312	0.273251
4296	0.093746
4280	0.161910
4264	0.285339
4248	0.498533
4232	0.196623
4216	0.347709
4200	0.455236
4184	-0.061225
4168	-0.024485
4152	0.261569
4136	-0.006198
4120	0.021839
4104	0.082993
4088	0.134325
4072	0.006484
4056	-0.023746
4040	0.206375
4024	-0.083088
4008	0.089430
3992	0.015544
3976	0.288915
3960	0.217056
3944	0.280976
3928	0.043988
3912	0.224113
3896	0.043392
3880	0.030040
3864	0.000071
3848	-0.148344
3832	0.005006
3816	-0.026130
3800	0.116324
3784	0.044488
3768	0.020766
3752	0.159668
3736	0.122046
3720	0.058460
3704	0.071239
3688	-0.038194
3672	-0.170087
3656	0.035858
3640	0.137996
3624	0.049495
3608	0.063276
3592	0.094485
3576	0.209093
3560	0.208449
3544	0.170183
3528	-0.036358
3512	0.226712
3496	0.140142
3480	0.172400
3464	-0.033187
3448	0.107502
3432	0.099778
3416	0.022315
3400	0.042700
3384	0.011563
3368	-0.054860
3352	0.053882
3336	-0.062489
3320	0.246381
3304	-0.092840
3288	0.077795
3272	0.144338
3256	0.079441
3240	0.115060
3224	-0.008916
3208	-0.063347
3192	-0.023221
3176	0.030660
3160	-0.067114
3144	-0.017929
3128	0.117874
3112	0.152921
3096	0.059008
3080	-0.021505
3064	-0.013518
3048	0.041866
3032	0.144839
3016	0.037431
3000	0.162649
2984	0.039410
2968	-0.055456
2952	-0.004506
2936	0.009846
2920	0.054407
2904	-0.070738
2888	0.082874
2872	-0.011396
2856	-0.022649
2840	0.206708
2824	0.085616
2808	0.073480
2792	0.047636
2776	0.025415
2760	-0.058603
2744	0.057530
2728	0.058054
2712	0.094509
2696	0.104045
2680	0.021266
2664	-0.033807
2648	0.062108
2632	-0.049543
2616	0.080943
2600	-0.066137
2584	0.019526
2568	0.076580
2552	0.002956
2536	0.043392
2520	0.128126
2504	0.120854
2488	0.132679
2472	0.016999
2456	0.086641
2440	0.021457
2424	0.014495
2408	-0.088143
2392	-0.048089
2376	0.013661
2360	-0.028133
2344	-0.138211
2328	0.008225
2312	-0.031709
2296	0.067448
2280	0.054740
2264	0.155162
2248	0.322222
2232	0.542712
2216	0.846958
2200	1.336288
2184	1.814007
2168	2.658843
2152	3.396534
2136	4.580664
2120	5.893230
2104	7.174777
2088	8.416318
2072	9.891033
2056	11.4009
2040	12.8014
2024	14.1861
2008	15.3433
1992	16.6132
1976	17.7905
1960	18.5428
1944	19.4668
1928	20.3353
1912	21.0431
1896	21.6761
1880	22.134
1864	22.774
1848	23.1197
1832	23.5744
1816	23.9312
1800	24.158
1784	24.4451
1768	24.5924
1752	24.8047
1736	25.0291
1720	24.9703
1704	25.2629
1688	25.5306
1672	25.2701
1656	25.5384
1640	25.6727
1624	25.639
1608	25.7004
1592	25.7504
1576	25.8533
1560	26.0113
1544	25.7511
1528	25.8841
1512	25.9163
1496	25.829
1480	25.832
1464	25.8473
1448	25.7498
1432	25.8908
1416	25.7142
1400	25.8492
1384	25.9145
1368	25.5676
1352	25.8091
1336	25.7542
1320	25.5843
1304	25.5812
1288	25.6862
1272	25.441
1256	25.515
1240	25.4016
1224	25.2908
1208	25.3329
1192	25.089
1176	25.0478
1160	25.1754
1144	24.929
1128	24.7829
1112	24.8932
1096	24.486
1080	24.5471
1064	24.5771
1048	24.3408
1032	24.2406
1016	24.3057
1000	23.7446
984	 23.7563
968	 23.4646
952	 23.2723
936	 23.3557
920	 23.0156
904	 22.5753
888	 22.6259
872	 22.4734
856	 22.296
840	 22.004
824	 21.7502
808	 21.3264
792	 21.3156
776	 20.7348
760	 20.9864
744	 20.8341
728	 20.1117
712	 19.8709
696	 19.4699
680	 19.0866
664	 18.9646
648	 18.6183
632	 18.08
616	 17.7482
600	 17.0031
584	 17.1272
568	 17.5232
552	 15.7887
536	 15.4993
520	 15.3927
504	 13.8552
488	 14.5535
472	 13.5985
456	 13.3229
440	 14.3615
424	 13.645
408	 5.202627
392	 -4.878520
376	 -12.3109
370	 -6.312179

File: LPE453_t35.asc
PE IR       SPECTRUM    SPECTRUM    ASCII       PEDS        1.60
  -1
LPDF9D~1.ASC
17/05/16
17:13:13.00
17/05/16
17:13:39.00
tln
$LPE453_t0035$<tbV0>[10.4,-5.2,8.0,0.0,27,1,0]
27.028
64

2002,4.07
MIRTGS : RIGHTBACK : INTERNAL 2
MIR : ON : INTERNAL 2
OPTKBR

0.200000
8
8.000000
FILLER
RATIO
SPECTRUM
UNLOCKED 256

DOUBLE
64
COMBINED
1
0
0

0.002000
RATIO

1
0
TRUE
51149
0
LEFT NOT FITTED RIGHT NOT FITTED 0
NONE
NONE
15600
12
4.427000
51148
TRUE
1 0 8 72 0 0 0 0

15798

#HDR
-1
-1
#GR
µM
%T
2.38419e-05
0.0
2.000000
0.002000
12515
8
24.7167
-14.6198
#DATA
2.000000	 -0.109601
2.084000	 0.323740
2.168000	 1.488990
2.252000	 0.502187
2.336000	 0.179506
2.420000	 0.303723
2.504000	 0.086813
2.588000	 -0.177650
2.672000	 0.139718
2.756000	 0.080387
2.840000	 0.081636
2.924000	 0.154099
3.008000	 -0.034919
3.092000	 0.124832
3.176000	 0.052301
3.260000	 -0.160977
3.344000	 -0.027809
3.428000	 0.064996
3.512000	 0.029652
3.596000	 0.010318
3.680000	 0.165023
3.764000	 0.103506
3.848000	 0.035350
3.932000	 0.008713
4.016000	 0.074434
4.100000	 0.044639
4.184000	 -0.032691
4.268000	 0.002972
4.352000	 -0.024838
4.436000	 0.120799
4.520000	 0.653347
4.604000	 1.846753
4.688000	 4.059538
4.772000	 6.729076
4.856000	 10.0665
4.940000	 13.0667
5.024000	 15.8952
5.108000	 18.0012
5.192000	 19.6768
5.276000	 21.0308
5.359999	 22.1508
5.444000	 22.8271
5.528000	 23.4482
5.612000	 23.8287
5.696000	 24.0458
5.780000	 24.3277
5.864000	 24.488
5.948000	 24.444
6.032000	 24.5742
6.116000	 24.6218
6.200000	 24.6505
6.284000	 24.5755
6.368000	 24.6828
6.452000	 24.5873
6.536000	 24.5542
6.620000	 24.6292
6.704000	 24.5874
6.788000	 24.38
6.872000	 24.3896
6.956000	 24.5048
7.040000	 24.2536
7.124000	 24.1138
7.208000	 24.2234
7.292000	 23.8995
7.376000	 24.0965
7.460000	 24.0523
7.544000	 23.8135
7.628000	 23.8223
7.712000	 23.9085
7.796000	 23.7256
7.880000	 23.6434
7.964000	 23.6909
8.048000	 23.602
8.132000	 23.605
8.216000	 23.4561
8.300000	 23.4349
8.384000	 23.3494
8.468000	 23.2288
8.552000	 23.1432
8.635999	 23.1288
8.719999	 23.0754
8.804000	 22.8656
8.888000	 22.9402
8.972000	 22.8995
9.056000	 22.7889
9.140000	 22.5937
9.224000	 22.6676
9.308000	 22.5533
9.391999	 22.4207
9.475999	 22.4997
9.560000	 22.5209
9.644000	 22.1609
9.728000	 22.1961
9.812000	 22.1642
9.896000	 21.9389
9.980000	 21.913
10.064	21.7278
10.148	21.6564
10.232	21.7571
10.316	21.4169
10.4	21.4059
10.484	21.4028
10.568	21.5302
10.652	21.0029
10.736	21.1085
10.82	21.0755
10.904	20.747
10.988	20.6482
11.072	20.5763
11.156	20.3915
11.24	20.4152
11.324	20.4052
11.408	20.2794
11.492	19.8419
11.576	19.7885
11.66	19.6773
11.744	19.6662
11.828	19.7057
11.912	19.6435
11.996	19.4513
12.08	19.2688
12.164	19.1641
12.248	19.0905
12.332	19.1107
12.416	18.955
12.5	19.0421
12.584	18.9998
12.668	18.917
12.752	19.0009
12.836	18.7901
12.92	18.5612
13.004	18.4808
13.088	18.3553
13.172	18.3121
13.256	18.2404
13.34	18.1351
13.424	18.1329
13.508	18.1618
13.592	18.0859
13.676	17.9526
13.76	17.786
13.844	17.5793
13.928	17.398
14.012	17.3658
14.096	17.2884
14.18	17.036
14.264	16.9362
14.348	17.0817
14.432	17.1361
14.516	16.9649
14.6	16.7942
14.684	16.7823
14.768	16.6783
14.852	16.4521
14.936	16.4152
15.02	16.4853
15.104	16.3842
15.188	16.1188
15.272	15.9403
15.356	15.9968
15.44	16.0409
15.524	15.9116
15.608	15.8387
15.692	15.8856
15.776	15.8282
15.86	15.5678
15.944	15.212
16.028	14.9532
16.112	14.9146
16.196	15.0276
16.28	15.1251
16.364	15.0996
16.448	14.9471
16.532	14.7256
16.616	14.5118
16.7	14.3813
16.784	14.364
16.868	14.3915
16.952	14.3568
17.036	14.1895
17.12	13.9043
17.204	13.6444
17.288	13.5738
17.372	13.6822
17.456	13.8303
17.54	13.9585
17.624	14.0817
17.708	14.1678
17.792	14.1887
17.876	14.1794
17.96	14.132
18.044	13.9404
18.128	13.5614
18.212	13.1549
18.296	12.9474
18.38	12.9869
18.464	13.1349
18.548	13.252
18.632	13.313
18.716	13.3328
18.8	13.2933
18.884	13.1929
18.968	13.1216
19.052	13.2008
19.136	13.4279
19.22	13.637
19.304	13.6428
19.388	13.3997
19.472	12.9994
19.556	12.5693
19.64	12.2037
19.724	11.9719
19.808	11.9132
19.892	11.9952
19.976	12.1014
20.06	12.1028
20.144	11.9522
20.228	11.7066
20.312	11.4737
20.396	11.3427
20.48	11.3633
20.564	11.5349
20.648	11.7952
20.732	12.0311
20.816	12.14
20.9	12.1085
20.984	12.0205
21.068	11.9817
21.152	12.0233
21.236	12.0767
21.32	12.0275
21.404	11.8138
21.488	11.4572
21.572	11.0365
21.656	10.629
21.74	10.2827
21.824	10.0295
21.908	9.896825
21.992	9.891387
22.076	9.976227
22.16	10.0649
22.244	10.064
22.328	9.938703
22.412	9.749852
22.496	9.641075
22.58	9.758304
22.664	10.1808
22.748	10.87
22.832	11.6847
22.916	12.4205
23	12.8768
23.084	12.9341
23.168	12.5914
23.252	11.9712
23.336	11.2889
23.42	10.7792
23.504	10.5762
23.588	10.6822
23.672	10.9955
23.756	11.3331
23.84	11.5493
23.924	11.5959
24.008	11.5012
24.092	11.3148
24.176	11.0779
24.26	10.7787
24.344	10.3996
24.428	9.978137
24.512	9.628971
24.596	9.509570
24.68	9.715941
24.764	10.1633
24.848	10.5686
24.932	10.4001
25.016	9.084660
25.1	6.281455
25.184	2.044464
25.268	-3.084228
25.352	-8.238156
25.436	-12.3222
25.52	-14.4346
25.604	-14.1755
25.688	-11.6638
25.772	-7.510394
25.856	-2.566257
25.94	2.360559
26.024	6.620210
26.108	9.801746
26.192	11.8037
26.276	12.7483
26.36	12.8555
26.444	12.397
26.528	11.6812
26.612	11.049
26.696	10.924
26.78	11.7999
26.864	14.0092
26.948	17.4408
27.028	21.1118

File: LPE453_t35_cm-1.asc
PE IR       SPECTRUM    SPECTRUM    ASCII       PEDS        1.60
  -1
LPE8DB~1.ASC
17/05/16
17:13:13.00
17/05/16
17:13:13.00
tln
$LPE453_t0035$<tbV0>[10.4,-5.2,8.0,0.0,27,1,0]
370
64

2002,4.07
MIRTGS : RIGHTBACK : INTERNAL 2
MIR : ON : INTERNAL 2
OPTKBR

0.200000
8
8.000000
FILLER
RATIO
SPECTRUM
UNLOCKED 256

DOUBLE
64
COMBINED
1
0
0

1.000000
RATIO

1
0
TRUE
51149
0
LEFT NOT FITTED RIGHT NOT FITTED 0
NONE
NONE
15600
12
4.427000
51148
TRUE
1 0 8 72 0 0 0 0

15798

#HDR
-1
-1
#GR
CM-1
%T
2.38419e-05
0.0
5000
-1.000000
4631
8
24.7163
-14.5363
#DATA
5000	-0.109601
4984	0.346994
4968	0.052142
4952	0.240945
4936	0.117993
4920	-0.001811
4904	0.296545
4888	0.651192
4872	0.300502
4856	0.479078
4840	0.851106
4824	0.307035
4808	0.479054
4792	0.128364
4776	0.244522
4760	0.193929
4744	0.314927
4728	0.058603
4712	-0.018405
4696	-0.018262
4680	0.379729
4664	0.278925
4648	0.574827
4632	0.640344
4616	1.416778
4600	0.522732
4584	-0.102233
4568	-0.338220
4552	-0.409388
4536	-0.860023
4520	6.624436
4504	-2.622771
4488	0.660061
4472	-0.070500
4456	0.064516
4440	0.489449
4424	0.650334
4408	0.842618
4392	0.242805
4376	0.239276
4360	0.652194
4344	0.516486
4328	0.363731
4312	-0.053882
4296	-0.206708
4280	0.173330
4264	0.222492
4248	0.326108
4232	0.286126
4216	0.303864
4200	0.108480
4184	0.105309
4168	-0.209116
4152	0.180220
4136	0.348043
4120	0.203108
4104	-0.107145
4088	0.091505
4072	0.138711
4056	0.243139
4040	0.035071
4024	0.260877
4008	0.005483
3992	0.107884
3976	0.017094
3960	0.098180
3944	0.033044
3928	0.030970
3912	0.169634
3896	0.153732
3880	0.172591
3864	-0.177788
3848	0.113272
3832	0.021004
3816	-0.033164
3800	0.276780
3784	0.092291
3768	-0.012350
3752	0.341582
3736	0.138592
3720	0.085616
3704	0.000262
3688	0.074005
3672	0.062727
3656	-0.016307
3640	0.016927
3624	0.125265
3608	0.032830
3592	-0.020766
3576	0.110101
3560	0.086641
3544	0.254535
3528	-0.022149
3512	0.076699
3496	-0.152873
3480	0.232481
3464	-0.167584
3448	-0.052022
3432	0.050234
3416	0.069975
3400	-0.034165
3384	-0.042295
3368	0.046777
3352	0.043249
3336	0.264334
3320	-0.035405
3304	0.167775
3288	0.089001
3272	0.130963
3256	0.073838
3240	0.066614
3224	0.032520
3208	0.031661
3192	0.013804
3176	0.032401
3160	0.046658
3144	0.066757
3128	-0.092601
3112	0.199007
3096	0.067234
3080	0.165271
3064	-0.156903
3048	0.075197
3032	-0.030064
3016	0.130796
3000	0.013685
2984	0.007414
2968	0.020360
2952	0.155997
2936	0.091719
2920	0.054359
2904	0.161504
2888	0.096631
2872	0.022745
2856	0.149774
2840	0.024986
2824	0.005054
2808	0.157809
2792	-0.122737
2776	0.032162
2760	0.089240
2744	-0.074124
2728	0.070595
2712	0.135326
2696	-0.119614
2680	0.030851
2664	0.023818
2648	0.067877
2632	-0.026106
2616	0.082468
2600	0.052785
2584	0.062751
2568	0.069665
2552	0.090813
2536	0.077700
2520	0.058627
2504	-0.091290
2488	0.069332
2472	0.021505
2456	0.047063
2440	0.041937
2424	0.142836
2408	-0.060081
2392	-0.037860
2376	-0.063705
2360	-0.121355
2344	0.028443
2328	-0.026774
2312	0.007629
2296	-0.017929
2280	0.024247
2264	0.030612
2248	0.235295
2232	0.340127
2216	0.594305
2200	0.941371
2184	1.328015
2168	1.982021
2152	2.761983
2136	3.906130
2120	4.736399
2104	6.028842
2088	7.511043
2072	8.915138
2056	10.2063
2040	11.6976
2024	13.0917
2008	14.4643
1992	15.7981
1976	16.6905
1960	17.8362
1944	18.702
1928	19.5998
1912	20.3856
1896	21.0023
1880	21.6892
1864	22.2183
1848	22.6726
1832	22.9404
1816	23.3261
1800	23.6556
1784	23.7973
1768	23.985
1752	24.0955
1736	24.3706
1720	24.2729
1704	24.5183
1688	24.4932
1672	24.4007
1656	24.5474
1640	24.5527
1624	24.6305
1608	24.7075
1592	24.5681
1576	24.5724
1560	24.6787
1544	24.6384
1528	24.5212
1512	24.648
1496	24.4741
1480	24.5013
1464	24.4053
1448	24.4457
1432	24.3026
1416	24.3067
1400	24.1949
1384	24.2109
1368	23.9975
1352	24.0577
1336	24.0849
1320	23.8483
1304	23.8327
1288	23.782
1272	23.6955
1256	23.6914
1240	23.6209
1224	23.585
1208	23.4551
1192	23.3442
1176	23.2054
1160	23.1017
1144	23.0202
1128	22.9277
1112	22.8719
1096	22.601
1080	22.621
1064	22.4325
1048	22.5132
1032	22.0763
1016	22.0467
1000	21.9044
984	 21.7059
968	 21.3933
952	 21.4973
936	 20.9795
920	 20.8621
904	 20.5894
888	 20.416
872	 19.9307
856	 19.6495
840	 19.6487
824	 19.2163
808	 19.0276
792	 18.9198
776	 18.6233
760	 18.3166
744	 18.1433
728	 17.8367
712	 17.359
696	 17.1147
680	 16.7762
664	 16.4656
648	 16.0454
632	 15.7045
616	 15.0823
600	 14.4191
584	 13.8925
568	 14.0559
552	 13.623
536	 13.3231
520	 13.6516
504	 11.9341
488	 11.3789
472	 12.0506
456	 9.883594
440	 10.6814
424	 10.6739
408	 9.635519
392	 -14.3094
376	 11.1444
370	 21.1118

File: LPE453_t36.asc
PE IR       SPECTRUM    SPECTRUM    ASCII       PEDS        1.60
  -1
LPDF91~1.ASC
17/05/16
17:17:50.00
17/05/16
17:18:16.00
tln
$LPE453_t0036$<tbV0>[7.8,-5.2,8.0,0.0,27,1,0]
27.028
64

2002,4.07
MIRTGS : RIGHTBACK : INTERNAL 2
MIR : ON : INTERNAL 2
OPTKBR

0.200000
8
8.000000
FILLER
RATIO
SPECTRUM
UNLOCKED 256

DOUBLE
64
COMBINED
1
0
0

0.002000
RATIO

1
0
TRUE
51149
0
LEFT NOT FITTED RIGHT NOT FITTED 0
NONE
NONE
15600
12
4.427000
51148
TRUE
1 0 8 72 0 0 0 0

15798

#HDR
-1
-1
#GR
µM
%T
2.38419e-05
0.0
2.000000
0.002000
12515
8
31.4887
-10.6464
#DATA
2.000000	 0.272011
2.084000	 0.278012
2.168000	 0.460026
2.252000	 -0.718339
2.336000	 0.112244
2.420000	 0.028265
2.504000	 0.185848
2.588000	 -0.014783
2.672000	 0.024054
2.756000	 -0.023361
2.840000	 0.032650
2.924000	 0.144913
3.008000	 0.205661
3.092000	 0.079676
3.176000	 0.216682
3.260000	 0.012982
3.344000	 0.053250
3.428000	 0.095808
3.512000	 0.021239
3.596000	 -0.105621
3.680000	 -0.054515
3.764000	 0.066211
3.848000	 0.070210
3.932000	 0.030197
4.016000	 0.136129
4.100000	 0.102160
4.184000	 0.007984
4.268000	 0.034946
4.352000	 -0.071464
4.436000	 0.052343
4.520000	 0.344654
4.604000	 1.388157
4.688000	 3.036070
4.772000	 5.631672
4.856000	 8.390092
4.940000	 11.4609
5.024000	 13.8842
5.108000	 16.0476
5.192000	 17.5169
5.276000	 18.9285
5.359999	 19.8735
5.444000	 20.5
5.528000	 21.081
5.612000	 21.5136
5.696000	 21.6691
5.780000	 21.9421
5.864000	 22.1312
5.948000	 22.1575
6.032000	 22.1801
6.116000	 22.1874
6.200000	 22.2401
6.284000	 22.2235
6.368000	 22.0627
6.452000	 22.0116
6.536000	 22.1801
6.620000	 22.0857
6.704000	 21.9558
6.788000	 21.9857
6.872000	 21.8973
6.956000	 21.8442
7.040000	 21.7963
7.124000	 21.6392
7.208000	 21.7515
7.292000	 21.6494
7.376000	 21.4715
7.460000	 21.5224
7.544000	 21.6156
7.628000	 21.4982
7.712000	 21.3511
7.796000	 21.3422
7.880000	 21.1631
7.964000	 21.3063
8.048000	 21.2372
8.132000	 21.194
8.216000	 21.1049
8.300000	 20.9748
8.384000	 20.9214
8.468000	 20.8894
8.552000	 20.8518
8.635999	 20.7714
8.719999	 20.6362
8.804000	 20.4553
8.888000	 20.4791
8.972000	 20.491
9.056000	 20.5477
9.140000	 20.3964
9.224000	 20.1746
9.308000	 20.3629
9.391999	 20.0169
9.475999	 19.9847
9.560000	 20.0124
9.644000	 19.7967
9.728000	 19.6133
9.812000	 19.5842
9.896000	 19.4951
9.980000	 19.3966
10.064	19.2768
10.148	19.2134
10.232	19.3061
10.316	19.0999
10.4	18.9888
10.484	18.7993
10.568	18.7871
10.652	18.6498
10.736	18.5336
10.82	18.463
10.904	18.47
10.988	18.2269
11.072	18.242
11.156	18.0478
11.24	17.9379
11.324	17.7773
11.408	17.7607
11.492	17.7003
11.576	17.5488
11.66	17.4135
11.744	17.338
11.828	17.2741
11.912	17.0818
11.996	17.0678
12.08	17.2999
12.164	17.1623
12.248	17.0457
12.332	16.9961
12.416	16.8742
12.5	16.6463
12.584	16.519
12.668	16.4879
12.752	16.3111
12.836	16.1777
12.92	15.9924
13.004	15.815
13.088	15.8595
13.172	15.881
13.256	15.7576
13.34	15.4527
13.424	15.2292
13.508	15.3939
13.592	15.3146
13.676	15.1747
13.76	15.2617
13.844	15.312
13.928	15.1136
14.012	14.8389
14.096	14.8153
14.18	14.8335
14.264	14.7438
14.348	14.5735
14.432	14.3821
14.516	14.2604
14.6	14.2337
14.684	14.1839
14.768	14.0648
14.852	14.0231
14.936	14.0138
15.02	13.7867
15.104	13.467
15.188	13.4503
15.272	13.6581
15.356	13.7148
15.44	13.5776
15.524	13.4228
15.608	13.3222
15.692	13.2473
15.776	13.2092
15.86	13.2649
15.944	13.3314
16.028	13.2691
16.112	13.165
16.196	13.1472
16.28	13.0922
16.364	12.8315
16.448	12.4235
16.532	12.0824
16.616	11.9729
16.7	12.0612
16.784	12.1821
16.868	12.2856
16.952	12.4209
17.036	12.5069
17.12	12.3985
17.204	12.1461
17.288	11.9592
17.372	11.9535
17.456	12.0652
17.54	12.1476
17.624	12.1048
17.708	11.9546
17.792	11.7714
17.876	11.5895
17.96	11.3677
18.044	11.0673
18.128	10.7482
18.212	10.582
18.296	10.7282
18.38	11.1566
18.464	11.6202
18.548	11.8487
18.632	11.7695
18.716	11.531
18.8	11.3381
18.884	11.2869
18.968	11.3399
19.052	11.3855
19.136	11.3243
19.22	11.1408
19.304	10.9284
19.388	10.8079
19.472	10.8072
19.556	10.8433
19.64	10.8172
19.724	10.7085
19.808	10.5588
19.892	10.4063
19.976	10.2619
20.06	10.1411
20.144	10.0685
20.228	10.0436
20.312	10.0308
20.396	10.0023
20.48	9.960553
20.564	9.933120
20.648	9.938872
20.732	9.972824
20.816	10.0047
20.9	9.992803
20.984	9.902908
21.068	9.719771
21.152	9.456599
21.236	9.155295
21.32	8.880720
21.404	8.707337
21.488	8.714046
21.572	8.953310
21.656	9.410214
21.74	9.988615
21.824	10.5386
21.908	10.9218
21.992	11.0657
22.076	10.9675
22.16	10.6741
22.244	10.2623
22.328	9.815299
22.412	9.406763
22.496	9.085513
22.58	8.849442
22.664	8.651315
22.748	8.434532
22.832	8.192307
22.916	7.988047
23	7.925922
23.084	8.087325
23.168	8.465904
23.252	8.938520
23.336	9.298849
23.42	9.377932
23.504	9.077771
23.588	8.459224
23.672	7.718881
23.756	7.101244
23.84	6.806275
23.924	6.915005
24.008	7.349310
24.092	7.904575
24.176	8.372200
24.26	8.625225
24.344	8.680551
24.428	8.696794
24.512	8.913999
24.596	9.487656
24.68	10.3616
24.764	11.2271
24.848	11.6553
24.932	11.1542
25.016	9.396058
25.1	6.362866
25.184	2.386152
25.268	-1.929431
25.352	-5.899117
25.436	-8.876868
25.52	-10.4439
25.604	-10.4526
25.688	-8.923457
25.772	-6.044367
25.856	-2.166674
25.94	2.153095
26.024	6.149991
26.108	9.003064
26.192	10.1134
26.276	9.293353
26.36	6.820483
26.444	3.476956
26.528	0.295380
26.612	-1.778613
26.696	-2.168608
26.78	-0.844056
26.864	1.709236
26.948	4.731364
27.028	7.444787