Folder: Masteroppgave/Bakgrunnsmateriale/MATLAB/FTIR/ftir_data/LPE453/Mapping_121 (part 4)

File: LPE453_t01_cm-1.asc
PE IR       SPECTRUM    SPECTRUM    ASCII       PEDS        1.60
  -1
LPE453~3.ASC
17/05/16
14:28:01.00
17/05/16
14:28:01.00
tln
$LPE453_t0001$<tbV0>[13.0,-13.0,8.0,0.0,27,1,0]
370
64

2002,4.07
MIRTGS : RIGHTBACK : INTERNAL 2
MIR : ON : INTERNAL 2
OPTKBR

0.200000
8
8.000000
FILLER
RATIO
SPECTRUM
UNLOCKED 256

DOUBLE
64
COMBINED
1
0
0

1.000000
RATIO

1
0
TRUE
51149
0
LEFT NOT FITTED RIGHT NOT FITTED 0
NONE
NONE
15600
12
4.427000
51148
TRUE
1 0 8 72 0 0 0 0

15798

#HDR
-1
-1
#GR
CM-1
%T
2.38419e-05
0.0
5000
-1.000000
4631
8
33.3787
-6.256198
#DATA
5000	0.128602
4984	0.233817
4968	0.625658
4952	0.297188
4936	0.148200
4920	0.144767
4904	0.603270
4888	0.014400
4872	-0.130891
4856	0.329947
4840	-0.252652
4824	0.575947
4808	1.362323
4792	-0.659894
4776	0.336813
4760	-0.844860
4744	0.700449
4728	1.639556
4712	0.086712
4696	-0.550580
4680	0.360298
4664	0.079035
4648	0.007128
4632	0.620532
4616	0.318408
4600	0.011873
4584	-0.046038
4568	-0.057888
4552	-0.514817
4536	0.389909
4520	-0.005578
4504	-0.909924
4488	4.157114
4472	-6.256198
4456	-2.301311
4440	0.615620
4424	0.216555
4408	0.039768
4392	0.373601
4376	0.295805
4360	0.306248
4344	0.185704
4328	0.160479
4312	0.009870
4296	0.006842
4280	-0.050306
4264	-0.010180
4248	0.137734
4232	-0.135684
4216	0.291633
4200	0.044274
4184	0.139307
4168	0.329947
4152	0.449037
4136	0.252246
4120	0.001049
4104	0.226140
4088	0.395917
4072	0.088214
4056	0.123453
4040	-0.037956
4024	-0.064110
4008	0.217247
3992	0.081038
3976	-0.203728
3960	0.149965
3944	0.117039
3928	-0.049281
3912	-0.121784
3896	0.131535
3880	0.079274
3864	0.101757
3848	0.001454
3832	0.045776
3816	-0.091338
3800	0.144171
3784	0.068712
3768	0.089550
3752	0.216412
3736	-0.166821
3720	-0.027585
3704	-0.100588
3688	0.234913
3672	0.058054
3656	-0.058579
3640	0.054669
3624	0.160503
3608	-0.108671
3592	-0.066232
3576	0.153374
3560	0.037908
3544	-0.019931
3528	0.207042
3512	0.063467
3496	0.001859
3480	-0.046944
3464	0.078773
3448	0.006031
3432	0.076007
3416	-0.030922
3400	0.056838
3384	-0.013852
3368	0.004887
3352	0.072908
3336	0.010347
3320	0.040578
3304	0.035762
3288	0.038218
3272	0.001168
3256	0.076937
3240	0.010323
3224	0.048303
3208	0.102806
3192	0.142669
3176	-0.122976
3160	0.055885
3144	0.041198
3128	0.232577
3112	0.116205
3096	0.061130
3080	0.007128
3064	-0.127530
3048	-0.055170
3032	0.059032
3016	0.014519
3000	0.039625
2984	-0.053071
2968	0.108265
2952	0.044727
2936	0.063657
2920	0.010824
2904	0.139880
2888	-0.033521
2872	0.037479
2856	0.032877
2840	0.043392
2824	-0.034356
2808	0.040960
2792	0.131249
2776	-0.051021
2760	0.060343
2744	0.090837
2728	-0.039982
2712	0.064659
2696	0.063562
2680	0.057506
2664	0.060343
2648	0.094103
2632	-0.013899
2616	0.109195
2600	-0.028133
2584	0.096821
2568	-0.001645
2552	0.059890
2536	0.030350
2520	-0.004386
2504	0.013089
2488	0.036144
2472	0.136947
2456	0.077748
2440	0.045275
2424	0.140786
2408	0.107192
2392	0.124025
2376	0.059223
2360	0.076222
2344	0.039792
2328	0.028061
2312	-0.000834
2296	0.188183
2280	0.235319
2264	0.431227
2248	0.581383
2232	0.952935
2216	1.400303
2200	1.911830
2184	2.555084
2168	3.418803
2152	4.648756
2136	5.725049
2120	6.971478
2104	8.363938
2088	9.901046
2072	11.3597
2056	12.8498
2040	14.2081
2024	15.5556
2008	16.7932
1992	17.9635
1976	18.8597
1960	19.9411
1944	20.8178
1928	21.4862
1912	22.1542
1896	22.8411
1880	23.2344
1864	23.7267
1848	24.2518
1832	24.5165
1816	24.8149
1800	25.0879
1784	25.3513
1768	25.5282
1752	25.6984
1736	25.8469
1720	26.1082
1704	26.2249
1688	26.3609
1672	26.3179
1656	26.7173
1640	26.7012
1624	26.757
1608	26.7498
1592	26.7962
1576	26.9762
1560	27.0421
1544	26.9375
1528	26.923
1512	26.905
1496	26.9692
1480	26.8935
1464	26.8933
1448	27.0501
1432	27.0119
1416	27.0694
1400	27.0562
1384	27.0354
1368	27.1401
1352	27.1299
1336	27.0247
1320	27.0164
1304	26.9905
1288	26.9309
1272	26.7453
1256	26.735
1240	26.7767
1224	26.7151
1208	26.8657
1192	26.7559
1176	26.5965
1160	26.6243
1144	26.4967
1128	26.4672
1112	26.2955
1096	26.5195
1080	26.2912
1064	25.9949
1048	26.1048
1032	26.013
1016	25.531
1000	25.7313
984	 25.5593
968	 25.4521
952	 25.3947
936	 25.0826
920	 24.9002
904	 25.0317
888	 24.7547
872	 24.5506
856	 24.4276
840	 24.0728
824	 23.9169
808	 23.6503
792	 23.5356
776	 23.2109
760	 22.8389
744	 22.643
728	 22.5975
712	 22.1381
696	 21.6778
680	 21.6716
664	 21.4367
648	 21.1287
632	 20.9111
616	 20.4672
600	 20.0853
584	 19.9088
568	 19.1484
552	 19.0297
536	 18.7517
520	 18.6816
504	 17.2736
488	 17.0896
472	 17.2919
456	 16.211
440	 16.2899
424	 13.0591
408	 17.0813
392	 29.7286
376	 1.185250
370	 22.8685

File: LPE453_t02.asc
PE IR       SPECTRUM    SPECTRUM    ASCII       PEDS        1.60
  -1
LPC391~1.ASC
17/05/16
14:32:38.00
17/05/16
14:33:04.00
tln
$LPE453_t0002$<tbV0>[10.4,-13.0,8.0,0.0,27,1,0]
27.028
64

2002,4.07
MIRTGS : RIGHTBACK : INTERNAL 2
MIR : ON : INTERNAL 2
OPTKBR

0.200000
8
8.000000
FILLER
RATIO
SPECTRUM
UNLOCKED 256

DOUBLE
64
COMBINED
1
0
0

0.002000
RATIO

1
0
TRUE
51149
0
LEFT NOT FITTED RIGHT NOT FITTED 0
NONE
NONE
15600
12
4.427000
51148
TRUE
1 0 8 72 0 0 0 0

15798

#HDR
-1
-1
#GR
µM
%T
2.38419e-05
0.0
2.000000
0.002000
12515
8
33.9781
-8.430671
#DATA
2.000000	 0.318956
2.084000	 -0.064952
2.168000	 0.373275
2.252000	 -0.782710
2.336000	 0.347813
2.420000	 0.236038
2.504000	 0.257587
2.588000	 0.112980
2.672000	 0.031301
2.756000	 0.132033
2.840000	 0.032211
2.924000	 0.018900
3.008000	 0.123688
3.092000	 0.088437
3.176000	 -0.084181
3.260000	 0.017081
3.344000	 0.102829
3.428000	 0.006808
3.512000	 0.017200
3.596000	 -0.023237
3.680000	 0.002910
3.764000	 -0.010278
3.848000	 0.088279
3.932000	 0.018276
4.016000	 -0.057551
4.100000	 0.063608
4.184000	 0.072610
4.268000	 -0.009200
4.352000	 0.274360
4.436000	 0.930547
4.520000	 2.379716
4.604000	 5.015905
4.688000	 8.744296
4.772000	 13.0241
4.856000	 17.1645
4.940000	 20.7994
5.024000	 23.942
5.108000	 26.3812
5.192000	 27.8609
5.276000	 29.3762
5.359999	 30.6426
5.444000	 31.1945
5.528000	 32.0568
5.612000	 32.1284
5.696000	 32.9998
5.780000	 32.7476
5.864000	 33.6095
5.948000	 33.2729
6.032000	 33.7599
6.116000	 33.4256
6.200000	 33.6521
6.284000	 33.7651
6.368000	 33.3589
6.452000	 33.6343
6.536000	 33.4226
6.620000	 33.4747
6.704000	 33.6137
6.788000	 33.1218
6.872000	 33.1663
6.956000	 33.4932
7.040000	 32.929
7.124000	 32.7434
7.208000	 33.1418
7.292000	 32.8047
7.376000	 32.5552
7.460000	 32.9352
7.544000	 32.881
7.628000	 32.1074
7.712000	 32.3067
7.796000	 32.7338
7.880000	 32.3982
7.964000	 31.9027
8.048000	 32.047
8.132000	 32.5047
8.216000	 32.2879
8.300000	 31.7306
8.384000	 31.6331
8.468000	 31.9822
8.552000	 32.2038
8.635999	 31.9041
8.719999	 31.3067
8.804000	 31.2905
8.888000	 31.6232
8.972000	 31.8997
9.056000	 31.5306
9.140000	 31.1225
9.224000	 30.9113
9.308000	 31.3872
9.391999	 31.5035
9.475999	 31.3169
9.560000	 30.6395
9.644000	 30.4572
9.728000	 30.5778
9.812000	 30.8519
9.896000	 31.0241
9.980000	 31.0469
10.064	30.5634
10.148	30.1551
10.232	30.0224
10.316	30.3371
10.4	30.7196
10.484	30.9198
10.568	30.6534
10.652	30.0005
10.736	29.573
10.82	29.5196
10.904	29.6725
10.988	29.7867
11.072	30.0691
11.156	30.0179
11.24	29.7259
11.324	29.2998
11.408	28.9642
11.492	28.788
11.576	28.9605
11.66	29.196
11.744	29.4984
11.828	29.6193
11.912	29.5711
11.996	29.1254
12.08	28.6031
12.164	28.5102
12.248	28.5129
12.332	28.2862
12.416	28.2318
12.5	28.493
12.584	28.5738
12.668	28.4547
12.752	28.2549
12.836	28.1075
12.92	27.7694
13.004	27.4424
13.088	27.3403
13.172	27.4106
13.256	27.5347
13.34	27.5939
13.424	27.9374
13.508	27.9888
13.592	27.6665
13.676	27.605
13.76	27.4735
13.844	27.1584
13.928	26.8032
14.012	26.5585
14.096	26.5714
14.18	26.5661
14.264	26.5387
14.348	26.5314
14.432	26.4535
14.516	26.592
14.6	26.8126
14.684	26.8516
14.768	26.9012
14.852	26.9717
14.936	26.8245
15.02	26.5522
15.104	26.3711
15.188	26.097
15.272	25.756
15.356	25.7538
15.44	25.9914
15.524	26.0123
15.608	25.7935
15.692	25.5846
15.776	25.5099
15.86	25.6361
15.944	25.8932
16.028	26.0514
16.112	26.005
16.196	25.7946
16.28	25.4678
16.364	25.1188
16.448	24.8525
16.532	24.6897
16.616	24.6304
16.7	24.6273
16.784	24.5529
16.868	24.3877
16.952	24.2554
17.036	24.219
17.12	24.2789
17.204	24.4609
17.288	24.6642
17.372	24.6951
17.456	24.5798
17.54	24.536
17.624	24.5993
17.708	24.576
17.792	24.3826
17.876	24.1666
17.96	24.0516
18.044	23.9879
18.128	23.8872
18.212	23.7594
18.296	23.6533
18.38	23.581
18.464	23.5333
18.548	23.506
18.632	23.4762
18.716	23.4316
18.8	23.4192
18.884	23.4995
18.968	23.6256
19.052	23.6469
19.136	23.4861
19.22	23.2626
19.304	23.1964
19.388	23.3765
19.472	23.672
19.556	23.8582
19.64	23.7979
19.724	23.5002
19.808	23.0595
19.892	22.5772
19.976	22.1323
20.06	21.7674
20.144	21.4813
20.228	21.2481
20.312	21.0711
20.396	20.9958
20.48	21.0402
20.564	21.1401
20.648	21.1892
20.732	21.1431
20.816	21.0708
20.9	21.0824
20.984	21.2212
21.068	21.4341
21.152	21.6444
21.236	21.8201
21.32	21.9776
21.404	22.1267
21.488	22.2561
21.572	22.3662
21.656	22.49
21.74	22.6621
21.824	22.8549
21.908	22.9604
21.992	22.8764
22.076	22.6019
22.16	22.249
22.244	21.945
22.328	21.7096
22.412	21.4257
22.496	20.9312
22.58	20.16
22.664	19.2002
22.748	18.275
22.832	17.5972
22.916	17.2848
23	17.2941
23.084	17.4893
23.168	17.7033
23.252	17.812
23.336	17.7482
23.42	17.5236
23.504	17.2068
23.588	16.9028
23.672	16.7326
23.756	16.8263
23.84	17.279
23.924	18.1162
24.008	19.2723
24.092	20.5946
24.176	21.8818
24.26	23.0152
24.344	23.991
24.428	24.8924
24.512	25.829
24.596	26.842
24.68	27.8184
24.764	28.5014
24.848	28.5951
24.932	27.9782
25.016	26.8511
25.1	25.6394
25.184	24.8529
25.268	24.828
25.352	25.5951
25.436	26.934
25.52	28.4578
25.604	29.7416
25.688	30.3038
25.772	29.6897
25.856	27.6066
25.94	24.1064
26.024	19.6999
26.108	15.2703
26.192	11.7666
26.276	9.844988
26.36	9.665075
26.444	10.708
26.528	11.9674
26.612	12.3593
26.696	11.0399
26.78	7.695998
26.864	2.671794
26.948	-3.164877
27.028	-8.430671

File: LPE453_t02_cm-1.asc
PE IR       SPECTRUM    SPECTRUM    ASCII       PEDS        1.60
  -1
LP5750~1.ASC
17/05/16
14:32:38.00
17/05/16
14:32:38.00
tln
$LPE453_t0002$<tbV0>[10.4,-13.0,8.0,0.0,27,1,0]
370
64

2002,4.07
MIRTGS : RIGHTBACK : INTERNAL 2
MIR : ON : INTERNAL 2
OPTKBR

0.200000
8
8.000000
FILLER
RATIO
SPECTRUM
UNLOCKED 256

DOUBLE
64
COMBINED
1
0
0

1.000000
RATIO

1
0
TRUE
51149
0
LEFT NOT FITTED RIGHT NOT FITTED 0
NONE
NONE
15600
12
4.427000
51148
TRUE
1 0 8 72 0 0 0 0

15798

#HDR
-1
-1
#GR
CM-1
%T
2.38419e-05
0.0
5000
-1.000000
4631
8
33.9776
-8.430671
#DATA
5000	0.318956
4984	0.445723
4968	0.246143
4952	-0.036025
4936	0.350594
4920	-0.063705
4904	0.083589
4888	-0.223565
4872	0.496840
4856	0.182867
4840	0.260949
4824	0.070738
4808	-0.138139
4792	-0.077533
4776	0.506877
4760	0.321769
4744	-0.325345
4728	0.679373
4712	0.270128
4696	1.530456
4680	1.323938
4664	-1.209354
4648	0.721311
4632	0.836420
4616	0.320339
4600	0.831913
4584	0.415945
4568	1.051592
4552	0.814652
4536	-0.799703
4520	-0.872516
4504	-1.490211
4488	15.8228
4472	4.939579
4456	-0.173759
4440	-0.752210
4424	-0.188946
4408	-0.038719
4392	0.675702
4376	0.883030
4360	0.501775
4344	0.247693
4328	0.265121
4312	0.216507
4296	0.199532
4280	0.262999
4264	-0.008010
4248	0.148940
4232	-0.036120
4216	0.234723
4200	0.240135
4184	0.510644
4168	0.232195
4152	0.117349
4136	0.208973
4120	0.263881
4104	-0.075030
4088	0.114870
4072	-0.200676
4056	0.148940
4040	-0.068044
4024	0.044107
4008	-0.006198
3992	0.336933
3976	0.171399
3960	0.077056
3944	0.178050
3928	0.057959
3912	0.062966
3896	0.012087
3880	0.142788
3864	0.112915
3848	-0.053691
3832	0.119638
3816	0.031089
3800	0.098252
3784	0.027179
3768	0.062990
3752	0.095319
3736	0.122737
3720	-0.105118
3704	0.029969
3688	0.085186
3672	0.043177
3656	0.067901
3640	0.015640
3624	0.163936
3608	-0.008773
3592	0.024461
3576	0.127005
3560	0.008535
3544	-0.008606
3528	0.083136
3512	0.097775
3496	0.231862
3480	0.120711
3464	-0.125980
3448	-0.013804
3432	-0.004625
3416	0.034260
3400	-0.052928
3384	0.051546
3368	0.173091
3352	0.022625
3336	0.083255
3320	0.113391
3304	0.112724
3288	0.155210
3272	0.153326
3256	0.151205
3240	0.138735
3224	0.082588
3208	-0.023436
3192	0.046849
3176	0.183892
3160	-0.039005
3144	-0.123977
3128	-0.049471
3112	0.195312
3096	0.052356
3080	-0.074958
3064	0.041151
3048	0.006389
3032	0.005364
3016	-0.016236
3000	0.181508
2984	0.029444
2968	-0.019121
2952	0.048327
2936	-0.016784
2920	-0.076842
2904	0.076055
2888	0.094366
2872	0.038170
2856	0.077176
2840	0.110626
2824	0.025010
2808	0.055241
2792	-0.020146
2776	-0.010204
2760	0.100469
2744	-0.038313
2728	0.003123
2712	-0.062537
2696	0.080990
2680	0.009417
2664	0.115442
2648	-0.081729
2632	-0.054574
2616	0.054526
2600	0.096416
2584	0.060486
2568	-0.007510
2552	0.120401
2536	0.000095
2520	0.144529
2504	0.008034
2488	-0.021696
2472	0.015377
2456	0.017237
2440	0.066971
2424	0.246548
2408	0.155353
2392	0.043845
2376	-0.026607
2360	0.129747
2344	-0.000882
2328	0.080299
2312	0.191187
2296	0.291728
2280	0.511550
2264	0.727224
2248	1.058745
2232	1.608800
2216	2.229738
2200	3.054881
2184	4.122710
2168	5.334472
2152	6.797599
2136	8.374834
2120	10.2686
2104	11.9301
2088	13.9902
2072	15.73
2056	17.4828
2040	19.2037
2024	20.8274
2008	22.4586
1992	23.8408
1976	24.9784
1960	26.2119
1944	27.0813
1928	27.7528
1912	28.7981
1896	29.3698
1880	29.889
1864	30.7066
1848	31.0426
1832	31.263
1816	31.816
1800	32.297
1784	32.1261
1768	32.6968
1752	32.9685
1736	32.9123
1720	33.0969
1704	33.6247
1688	33.3302
1672	33.4197
1656	33.845
1640	33.5271
1624	33.2965
1608	33.8136
1592	33.7878
1576	33.5169
1560	33.7489
1544	33.8614
1528	33.3652
1512	33.3861
1496	33.637
1480	33.2832
1464	32.9861
1448	33.5433
1432	33.2625
1416	32.7652
1400	32.849
1384	33.1562
1368	32.7049
1352	32.5264
1336	33.0477
1320	32.5868
1304	32.0632
1288	32.5275
1272	32.5028
1256	31.9086
1240	32.1585
1224	32.5812
1208	31.9093
1192	31.6522
1176	32.1659
1160	32.0083
1144	31.224
1128	31.4862
1112	31.8463
1096	31.1933
1080	31.1086
1064	31.5059
1048	30.7957
1032	30.5358
1016	30.9782
1000	30.9803
984	 30.0901
968	 30.3868
952	 30.9038
936	 29.7788
920	 29.5966
904	 30.0422
888	 29.6356
872	 28.8049
856	 29.2755
840	 29.5882
824	 28.5019
808	 28.1965
792	 28.5369
776	 27.9289
760	 27.3859
744	 27.9996
728	 27.5372
712	 26.5425
696	 26.5119
680	 26.8548
664	 26.4581
648	 25.9731
632	 25.5542
616	 25.6582
600	 24.6299
584	 24.2838
568	 24.5852
552	 23.9046
536	 23.4637
520	 23.2414
504	 22.8681
488	 21.053
472	 21.7204
456	 22.9593
440	 18.4872
424	 16.9121
408	 25.8035
392	 28.2862
376	 12.4058
370	 -8.430671

File: LPE453_t03.asc
PE IR       SPECTRUM    SPECTRUM    ASCII       PEDS        1.60
  -1
LPC395~1.ASC
17/05/16
14:37:15.00
17/05/16
14:37:41.00
tln
$LPE453_t0003$<tbV0>[7.8,-13.0,8.0,0.0,27,1,0]
27.028
64

2002,4.07
MIRTGS : RIGHTBACK : INTERNAL 2
MIR : ON : INTERNAL 2
OPTKBR

0.200000
8
8.000000
FILLER
RATIO
SPECTRUM
UNLOCKED 256

DOUBLE
64
COMBINED
1
0
0

0.002000
RATIO

1
0
TRUE
51149
0
LEFT NOT FITTED RIGHT NOT FITTED 0
NONE
NONE
15600
12
4.427000
51148
TRUE
1 0 8 72 0 0 0 0

15798

#HDR
-1
-1
#GR
µM
%T
2.38419e-05
0.0
2.000000
0.002000
12515
8
34.7465
-4.767086
#DATA
2.000000	 0.348305
2.084000	 0.631926
2.168000	 1.363071
2.252000	 -0.548809
2.336000	 -0.112204
2.420000	 0.029983
2.504000	 0.078265
2.588000	 -0.033267
2.672000	 0.048977
2.756000	 0.027181
2.840000	 0.170253
2.924000	 -0.013843
3.008000	 0.243430
3.092000	 0.121697
3.176000	 0.095068
3.260000	 0.096431
3.344000	 0.115134
3.428000	 -0.053659
3.512000	 -0.055661
3.596000	 0.065995
3.680000	 0.084256
3.764000	 -0.022653
3.848000	 -0.036755
3.932000	 -0.006911
4.016000	 0.086075
4.100000	 0.031712
4.184000	 0.027529
4.268000	 0.177922
4.352000	 0.348043
4.436000	 1.010314
4.520000	 2.530470
4.604000	 5.288554
4.688000	 9.332347
4.772000	 13.8846
4.856000	 18.0682
4.940000	 22.0877
5.024000	 25.1292
5.108000	 27.7943
5.192000	 29.6413
5.276000	 30.9894
5.359999	 32.2432
5.444000	 32.8053
5.528000	 33.4565
5.612000	 33.6674
5.696000	 34.0315
5.780000	 34.0182
5.864000	 34.5213
5.948000	 34.3477
6.032000	 34.5756
6.116000	 34.3551
6.200000	 34.5738
6.284000	 34.3102
6.368000	 34.3557
6.452000	 34.3592
6.536000	 34.1281
6.620000	 34.2137
6.704000	 34.2538
6.788000	 33.9187
6.872000	 33.8637
6.956000	 34.0082
7.040000	 33.5791
7.124000	 33.5701
7.208000	 33.8871
7.292000	 33.6221
7.376000	 33.2733
7.460000	 33.6392
7.544000	 33.6577
7.628000	 33.0583
7.712000	 33.1254
7.796000	 33.4653
7.880000	 33.0972
7.964000	 32.7185
8.048000	 32.9737
8.132000	 33.2236
8.216000	 32.9819
8.300000	 32.6462
8.384000	 32.4414
8.468000	 32.9015
8.552000	 32.9183
8.635999	 32.5343
8.719999	 32.2741
8.804000	 32.3433
8.888000	 32.5978
8.972000	 32.684
9.056000	 32.1594
9.140000	 31.7318
9.224000	 32.0722
9.308000	 32.468
9.391999	 32.441
9.475999	 32.1892
9.560000	 31.7604
9.644000	 31.6691
9.728000	 31.5629
9.812000	 32.0542
9.896000	 31.8267
9.980000	 31.8423
10.064	31.6252
10.148	31.1316
10.232	30.9497
10.316	31.248
10.4	31.6648
10.484	31.5847
10.568	31.344
10.652	31.0097
10.736	30.7046
10.82	30.5463
10.904	30.6144
10.988	30.8349
11.072	31.0336
11.156	31.0995
11.24	30.7526
11.324	30.4992
11.408	29.9886
11.492	29.719
11.576	29.8969
11.66	30.1581
11.744	30.2789
11.828	30.3705
11.912	30.0717
11.996	29.8046
12.08	29.4892
12.164	29.188
12.248	29.1902
12.332	29.442
12.416	29.4145
12.5	29.4163
12.584	29.538
12.668	29.6849
12.752	29.5418
12.836	29.3641
12.92	29.0732
13.004	28.5809
13.088	28.4296
13.172	28.5646
13.256	28.7041
13.34	28.6907
13.424	28.8797
13.508	28.8994
13.592	28.6826
13.676	28.4489
13.76	28.0987
13.844	27.9377
13.928	27.9782
14.012	27.7653
14.096	27.4314
14.18	27.2661
14.264	27.3121
14.348	27.3961
14.432	27.4464
14.516	27.5928
14.6	27.6986
14.684	27.6729
14.768	27.6545
14.852	27.5709
14.936	27.3679
15.02	27.2697
15.104	27.2024
15.188	26.8601
15.272	26.4978
15.356	26.5065
15.44	26.6968
15.524	26.7147
15.608	26.6397
15.692	26.7697
15.776	26.9856
15.86	26.9518
15.944	26.777
16.028	26.7667
16.112	26.87
16.196	26.885
16.28	26.7406
16.364	26.4053
16.448	25.9508
16.532	25.621
16.616	25.5233
16.7	25.5062
16.784	25.4628
16.868	25.4233
16.952	25.4012
17.036	25.4111
17.12	25.5118
17.204	25.6746
17.288	25.7437
17.372	25.6488
17.456	25.519
17.54	25.5065
17.624	25.5667
17.708	25.5105
17.792	25.2296
17.876	24.8183
17.96	24.4884
18.044	24.3675
18.128	24.359
18.212	24.2383
18.296	23.9165
18.38	23.5884
18.464	23.5353
18.548	23.807
18.632	24.1732
18.716	24.3942
18.8	24.4468
18.884	24.4625
18.968	24.5184
19.052	24.5602
19.136	24.5008
19.22	24.3221
19.304	24.0876
19.388	23.8855
19.472	23.7755
19.556	23.7574
19.64	23.7724
19.724	23.7452
19.808	23.6392
19.892	23.4759
19.976	23.2892
20.06	23.0829
20.144	22.8459
20.228	22.6077
20.312	22.4522
20.396	22.4572
20.48	22.6243
20.564	22.8767
20.648	23.1158
20.732	23.2813
20.816	23.361
20.9	23.3644
20.984	23.3069
21.068	23.218
21.152	23.1539
21.236	23.1687
21.32	23.279
21.404	23.4413
21.488	23.5896
21.572	23.6857
21.656	23.7382
21.74	23.7741
21.824	23.7944
21.908	23.7629
21.992	23.6435
22.076	23.4414
22.16	23.2101
22.244	22.9889
22.328	22.7595
22.412	22.4498
22.496	21.9847
22.58	21.3505
22.664	20.621
22.748	19.9382
22.832	19.4207
22.916	19.1185
23	19.0041
23.084	18.9995
23.168	19.0346
23.252	19.1105
23.336	19.3009
23.42	19.7193
23.504	20.4404
23.588	21.3935
23.672	22.3557
23.756	23.0304
23.84	23.2366
23.924	23.0301
24.008	22.6946
24.092	22.6072
24.176	23.0121
24.26	23.8763
24.344	24.8616
24.428	25.5041
24.512	25.4229
24.596	24.5303
24.68	23.0569
24.764	21.4486
24.848	20.1732
24.932	19.5681
25.016	19.6906
25.1	20.3827
25.184	21.2956
25.268	22.0427
25.352	22.3403
25.436	22.0385
25.52	21.1653
25.604	19.8655
25.688	18.3118
25.772	16.5877
25.856	14.6362
25.94	12.3409
26.024	9.578871
26.108	6.318373
26.192	2.756134
26.276	-0.657920
26.36	-3.364942
26.444	-4.716476
26.528	-4.170298
26.612	-1.520261
26.696	3.042395
26.78	8.888287
26.864	15.1916
26.948	21.1441
27.028	25.8569

File: LPE453_t03_cm-1.asc
PE IR       SPECTRUM    SPECTRUM    ASCII       PEDS        1.60
  -1
LP57D0~1.ASC
17/05/16
14:37:15.00
17/05/16
14:37:15.00
tln
$LPE453_t0003$<tbV0>[7.8,-13.0,8.0,0.0,27,1,0]
370
64

2002,4.07
MIRTGS : RIGHTBACK : INTERNAL 2
MIR : ON : INTERNAL 2
OPTKBR

0.200000
8
8.000000
FILLER
RATIO
SPECTRUM
UNLOCKED 256

DOUBLE
64
COMBINED
1
0
0

1.000000
RATIO

1
0
TRUE
51149
0
LEFT NOT FITTED RIGHT NOT FITTED 0
NONE
NONE
15600
12
4.427000
51148
TRUE
1 0 8 72 0 0 0 0

15798

#HDR
-1
-1
#GR
CM-1
%T
2.38419e-05
0.0
5000
-1.000000
4631
8
34.7463
-4.759025
#DATA
5000	0.348305
4984	0.305342
4968	-0.111317
4952	0.090122
4936	0.112438
4920	0.230836
4904	-0.214838
4888	0.092649
4872	-0.393819
4856	0.558090
4840	0.642061
4824	-0.018167
4808	0.754785
4792	0.336766
4776	0.111508
4760	0.347876
4744	-0.195264
4728	-0.241994
4712	0.219821
4696	-0.547695
4680	0.161075
4664	-1.127910
4648	1.367568
4632	0.404334
4616	-0.485634
4600	0.017833
4584	-0.137519
4568	-0.165653
4552	-1.341938
4536	-0.872683
4520	-0.593185
4504	0.782179
4488	32.1627
4472	-1.030182
4456	-0.169634
4440	-0.521564
4424	-0.035548
4408	-0.086212
4392	0.270915
4376	0.835347
4360	0.416064
4344	0.481152
4328	-0.059723
4312	0.148773
4296	0.079846
4280	-0.132870
4264	0.076436
4248	0.057363
4232	0.253868
4216	0.219964
4200	0.213766
4184	0.189423
4168	0.156116
4152	0.120425
4136	0.149083
4120	0.124502
4104	0.035262
4088	0.062942
4072	0.213956
4056	0.094199
4040	-0.048875
4024	0.042343
4008	0.091695
3992	0.124359
3976	0.198888
3960	-0.002384
3944	0.294089
3928	0.252604
3912	0.157070
3896	0.199604
3880	0.311851
3864	-0.033402
3848	0.119662
3832	0.178313
3816	0.247120
3800	0.098180
3784	0.103425
3768	0.012993
3752	0.135493
3736	0.119018
3720	0.075507
3704	0.029921
3688	0.000572
3672	-0.136899
3656	-0.029253
3640	0.017213
3624	0.076723
3608	0.021243
3592	0.259041
3576	0.117707
3560	0.219798
3544	0.097870
3528	0.200200
3512	0.010895
3496	0.088572
3480	-0.026726
3464	0.079274
3448	0.040197
3432	0.150251
3416	0.004673
3400	0.294446
3384	-0.051856
3368	0.262975
3352	0.001382
3336	0.106954
3320	0.218892
3304	0.219583
3288	0.157070
3272	-0.004267
3256	0.169515
3240	0.239229
3224	-0.013852
3208	0.063347
3192	0.197863
3176	-0.025701
3160	0.141835
3144	0.190138
3128	-0.114107
3112	0.072431
3096	0.094723
3080	0.244879
3064	0.093603
3048	0.022864
3032	0.028634
3016	0.035023
3000	0.050592
2984	0.055146
2968	0.022959
2952	-0.056266
2936	-0.040173
2920	-0.035119
2904	0.048971
2888	0.195932
2872	0.057482
2856	0.106239
2840	0.078415
2824	0.061941
2808	0.043106
2792	0.033354
2776	0.026774
2760	-0.081968
2744	-0.022125
2728	0.019216
2712	0.097775
2696	0.037860
2680	0.024771
2664	0.144982
2648	0.014138
2632	0.025582
2616	0.038313
2600	-0.024580
2584	0.104928
2568	0.073337
2552	0.025796
2536	0.064539
2520	0.150513
2504	0.141882
2488	0.112175
2472	0.045561
2456	0.000238
2440	0.046610
2424	0.018215
2408	-0.059032
2392	0.034737
2376	0.032567
2360	0.051426
2344	0.172638
2328	0.209259
2312	0.253987
2296	0.382423
2280	0.467610
2264	0.723767
2248	1.139307
2232	1.708102
2216	2.308082
2200	3.233528
2184	4.214596
2168	5.647611
2152	7.324743
2136	8.986401
2120	10.7548
2104	12.7235
2088	14.9248
2072	16.5548
2056	18.4659
2040	20.3102
2024	22.1249
2008	23.6621
1992	25.0324
1976	26.3054
1960	27.6653
1944	28.6009
1928	29.5016
1912	30.3814
1896	30.9535
1880	31.5665
1864	32.2749
1848	32.569
1832	32.921
1816	33.3576
1800	33.5668
1784	33.6571
1768	33.9043
1752	34.0451
1736	33.9997
1720	34.3473
1704	34.5613
1688	34.2445
1672	34.2259
1656	34.6498
1640	34.4286
1624	34.3112
1608	34.5102
1592	34.3251
1576	34.2882
1560	34.5608
1544	34.4171
1528	34.0982
1512	34.167
1496	34.3414
1480	33.9449
1464	33.6939
1448	33.9209
1432	33.7946
1416	33.506
1400	33.6879
1384	33.8347
1368	33.5066
1352	33.3866
1336	33.6547
1320	33.374
1304	33.0184
1288	33.4353
1272	33.2166
1256	32.7204
1240	33.0512
1224	33.1549
1208	32.7425
1192	32.4287
1176	32.9834
1160	32.5967
1144	32.2729
1128	32.4802
1112	32.5425
1096	31.7681
1080	32.2401
1064	32.4229
1048	31.859
1032	31.606
1016	31.9839
1000	31.8013
984	 31.0634
968	 31.3214
952	 31.5346
936	 30.8995
920	 30.5904
904	 31.009
888	 30.6996
872	 29.7705
856	 30.1739
840	 30.1007
824	 29.2623
808	 29.4662
792	 29.6209
776	 29.2423
760	 28.5275
744	 28.9131
728	 28.1998
712	 27.6273
696	 27.4057
680	 27.665
664	 27.2585
648	 26.6831
632	 27.0036
616	 26.8414
600	 25.5144
584	 25.5177
568	 25.5564
552	 24.3621
536	 24.2594
520	 24.2934
504	 23.579
488	 22.6568
472	 23.1483
456	 23.7413
440	 20.0947
424	 21.3571
408	 25.4356
392	 21.2915
376	 -2.194833
370	 25.8569