Folder: Masteroppgave/Bakgrunnsmateriale/MATLAB/FTIR/ftir_data/LPE453/Mapping_121 (part 23)

File: LPE453_t49.asc
PE IR       SPECTRUM    SPECTRUM    ASCII       PEDS        1.60
  -1
LPE3AD~1.ASC
17/05/16
18:24:43.00
17/05/16
18:25:09.00
tln
$LPE453_t0049$<tbV0>[2.6,-2.6,8.0,0.0,27,1,0]
27.028
64

2002,4.07
MIRTGS : RIGHTBACK : INTERNAL 2
MIR : ON : INTERNAL 2
OPTKBR

0.200000
8
8.000000
FILLER
RATIO
SPECTRUM
UNLOCKED 256

DOUBLE
64
COMBINED
1
0
0

0.002000
RATIO

1
0
TRUE
51149
0
LEFT NOT FITTED RIGHT NOT FITTED 0
NONE
NONE
15600
12
4.427000
51148
TRUE
1 0 8 72 0 0 0 0

15798

#HDR
-1
-1
#GR
µM
%T
2.38419e-05
0.0
2.000000
0.002000
12515
8
24.6228
-5.902590
#DATA
2.000000	 0.247406
2.084000	 -0.199881
2.168000	 0.512953
2.252000	 -0.126891
2.336000	 0.057928
2.420000	 0.229786
2.504000	 0.084647
2.588000	 0.077709
2.672000	 0.119275
2.756000	 0.060080
2.840000	 -0.049133
2.924000	 0.042421
3.008000	 0.030694
3.092000	 -0.022325
3.176000	 -0.020109
3.260000	 0.103360
3.344000	 0.079553
3.428000	 -0.040417
3.512000	 -0.040645
3.596000	 -0.001724
3.680000	 0.036289
3.764000	 -0.020802
3.848000	 -0.019700
3.932000	 -0.021962
4.016000	 0.018461
4.100000	 0.042038
4.184000	 -0.109721
4.268000	 -0.072068
4.352000	 -0.009915
4.436000	 0.008068
4.520000	 0.732933
4.604000	 1.890376
4.688000	 4.089208
4.772000	 7.036516
4.856000	 10.3864
4.940000	 13.4691
5.024000	 16.1748
5.108000	 18.3125
5.192000	 20.0202
5.276000	 21.262
5.359999	 22.2483
5.444000	 22.8835
5.528000	 23.4773
5.612000	 23.906
5.696000	 24.2267
5.780000	 24.1429
5.864000	 24.4643
5.948000	 24.4646
6.032000	 24.4849
6.116000	 24.4259
6.200000	 24.601
6.284000	 24.5897
6.368000	 24.6042
6.452000	 24.4615
6.536000	 24.4355
6.620000	 24.4255
6.704000	 24.3354
6.788000	 24.3493
6.872000	 24.2621
6.956000	 24.1025
7.040000	 24.1521
7.124000	 23.9443
7.208000	 23.9602
7.292000	 23.966
7.376000	 23.7902
7.460000	 23.9614
7.544000	 23.7796
7.628000	 23.7181
7.712000	 23.691
7.796000	 23.4804
7.880000	 23.4924
7.964000	 23.509
8.048000	 23.3355
8.132000	 23.3858
8.216000	 23.2066
8.300000	 23.0782
8.384000	 23.0525
8.468000	 23.0399
8.552000	 22.9251
8.635999	 22.9805
8.719999	 22.8817
8.804000	 22.4362
8.888000	 22.696
8.972000	 22.5168
9.056000	 22.4764
9.140000	 22.271
9.224000	 22.3446
9.308000	 22.3437
9.391999	 22.1236
9.475999	 21.9741
9.560000	 22.2445
9.644000	 22.021
9.728000	 21.8185
9.812000	 21.4153
9.896000	 21.5222
9.980000	 21.7523
10.064	21.5788
10.148	21.5196
10.232	21.1192
10.316	20.8813
10.4	21.1299
10.484	21.1712
10.568	21.1846
10.652	20.7934
10.736	20.5354
10.82	20.5592
10.904	20.5281
10.988	20.4394
11.072	20.1494
11.156	20.041
11.24	20.0645
11.324	19.864
11.408	19.7692
11.492	19.7882
11.576	19.5963
11.66	19.4261
11.744	19.2813
11.828	19.3179
11.912	19.227
11.996	19.1466
12.08	18.9868
12.164	19.0164
12.248	18.8594
12.332	18.6891
12.416	18.6082
12.5	18.5093
12.584	18.2169
12.668	17.9808
12.752	18.0615
12.836	17.9716
12.92	17.8873
13.004	17.7967
13.088	17.7951
13.172	17.8019
13.256	17.8079
13.34	17.8574
13.424	17.6193
13.508	17.3041
13.592	17.1984
13.676	17.1674
13.76	17.1375
13.844	17.1437
13.928	16.9901
14.012	16.8085
14.096	16.6413
14.18	16.4669
14.264	16.4803
14.348	16.597
14.432	16.5207
14.516	16.2806
14.6	16.2153
14.684	16.2896
14.768	16.1334
14.852	15.8061
14.936	15.6441
15.02	15.6306
15.104	15.5185
15.188	15.2852
15.272	15.1024
15.356	15.0727
15.44	15.175
15.524	15.2652
15.608	15.1944
15.692	15.0108
15.776	14.8153
15.86	14.6669
15.944	14.6578
16.028	14.7285
16.112	14.7069
16.196	14.6378
16.28	14.622
16.364	14.5482
16.448	14.348
16.532	14.1224
16.616	13.9226
16.7	13.754
16.784	13.6981
16.868	13.7802
16.952	13.8822
17.036	13.9103
17.12	13.9167
17.204	13.9795
17.288	14.0381
17.372	13.9694
17.456	13.7759
17.54	13.571
17.624	13.4118
17.708	13.268
17.792	13.1385
17.876	13.0791
17.96	13.099
18.044	13.1211
18.128	13.0755
18.212	12.9982
18.296	12.9776
18.38	13.0227
18.464	13.0482
18.548	12.9842
18.632	12.8365
18.716	12.6517
18.8	12.4784
18.884	12.3678
18.968	12.3574
19.052	12.4187
19.136	12.4654
19.22	12.4377
19.304	12.3687
19.388	12.3308
19.472	12.3349
19.556	12.3154
19.64	12.217
19.724	12.0692
19.808	11.9465
19.892	11.8642
19.976	11.7404
20.06	11.4747
20.144	11.0703
20.228	10.668
20.312	10.463
20.396	10.5678
20.48	10.9422
20.564	11.4246
20.648	11.8381
20.732	12.0788
20.816	12.1398
20.9	12.0768
20.984	11.9515
21.068	11.8107
21.152	11.6773
21.236	11.5587
21.32	11.4449
21.404	11.301
21.488	11.0843
21.572	10.7719
21.656	10.3832
21.74	9.976202
21.824	9.621757
21.908	9.370112
21.992	9.242259
22.076	9.245511
22.16	9.385116
22.244	9.664756
22.328	10.0505
22.412	10.4492
22.496	10.7187
22.58	10.732
22.664	10.4412
22.748	9.917095
22.832	9.301863
22.916	8.759305
23	8.381547
23.084	8.182795
23.168	8.122646
23.252	8.153898
23.336	8.249238
23.42	8.385598
23.504	8.523364
23.588	8.608930
23.672	8.598651
23.756	8.488042
23.84	8.331559
23.924	8.214954
24.008	8.239375
24.092	8.506016
24.176	9.065362
24.26	9.910848
24.344	10.9816
24.428	12.1844
24.512	13.4094
24.596	14.5561
24.68	15.5391
24.764	16.2962
24.848	16.7795
24.932	16.9596
25.016	16.8467
25.1	16.5131
25.184	16.039
25.268	15.4739
25.352	14.8263
25.436	14.0257
25.52	12.9267
25.604	11.3653
25.688	9.307175
25.772	6.904163
25.856	4.447183
25.94	2.326533
26.024	0.923436
26.108	0.450359
26.192	0.811850
26.276	1.629467
26.36	2.359596
26.444	2.456012
26.528	1.601142
26.612	-0.189797
26.696	-2.502861
26.78	-4.672077
26.864	-5.853100
26.948	-5.365044
27.028	-3.165459

File: LPE453_t49_cm-1.asc
PE IR       SPECTRUM    SPECTRUM    ASCII       PEDS        1.60
  -1
LP69D9~1.ASC
17/05/16
18:24:43.00
17/05/16
18:24:43.00
tln
$LPE453_t0049$<tbV0>[2.6,-2.6,8.0,0.0,27,1,0]
370
64

2002,4.07
MIRTGS : RIGHTBACK : INTERNAL 2
MIR : ON : INTERNAL 2
OPTKBR

0.200000
8
8.000000
FILLER
RATIO
SPECTRUM
UNLOCKED 256

DOUBLE
64
COMBINED
1
0
0

1.000000
RATIO

1
0
TRUE
51149
0
LEFT NOT FITTED RIGHT NOT FITTED 0
NONE
NONE
15600
12
4.427000
51148
TRUE
1 0 8 72 0 0 0 0

15798

#HDR
-1
-1
#GR
CM-1
%T
2.38419e-05
0.0
5000
-1.000000
4631
8
24.6228
-5.902576
#DATA
5000	0.247406
4984	0.090241
4968	-0.069808
4952	0.288057
4936	0.129842
4920	0.023269
4904	0.101661
4888	0.195431
4872	0.510287
4856	0.037360
4840	0.475287
4824	-0.210928
4808	0.248718
4792	-0.322151
4776	-0.068998
4760	-0.002121
4744	-0.202465
4728	-0.099802
4712	-0.000953
4696	0.266289
4680	0.366878
4664	0.044345
4648	0.468063
4632	0.142669
4616	0.326275
4600	0.374102
4584	0.400280
4568	-0.339055
4552	0.444602
4536	-0.039458
4520	4.250955
4504	1.018071
4488	0.192737
4472	0.135469
4456	-0.708913
4440	-0.173163
4424	0.023865
4408	0.101232
4392	0.196599
4376	0.147986
4360	0.223159
4344	0.133895
4328	0.219202
4312	0.173163
4296	-0.069475
4280	0.094914
4264	0.025677
4248	-0.171637
4232	0.140571
4216	0.316905
4200	0.398921
4184	-0.224733
4168	0.406146
4152	0.274562
4136	0.195622
4120	0.006651
4104	0.047731
4088	-0.015544
4072	-0.130105
4056	-0.043511
4040	0.275373
4024	0.026226
4008	-0.017452
3992	0.106024
3976	0.220751
3960	-0.014400
3944	-0.043129
3928	0.091505
3912	0.093483
3896	0.083827
3880	-0.145721
3864	0.078248
3848	0.004363
3832	0.056290
3816	0.201082
3800	0.079464
3784	0.142335
3768	0.066781
3752	0.206136
3736	0.155544
3720	-0.101852
3704	0.100040
3688	-0.102519
3672	0.111317
3656	-0.148582
3640	-0.016188
3624	-0.012612
3608	0.013566
3592	0.280594
3576	0.017666
3560	0.093722
3544	0.037002
3528	0.044345
3512	0.169944
3496	0.191664
3480	0.137305
3464	0.120711
3448	0.027871
3432	-0.040221
3416	0.011873
3400	-0.000834
3384	-0.030779
3368	0.017786
3352	-0.092983
3336	-0.080442
3320	0.214052
3304	0.144624
3288	0.154376
3272	0.104212
3256	0.198245
3240	-0.083923
3224	0.048089
3208	-0.040626
3192	0.058507
3176	-0.010323
3160	-0.089192
3144	0.050663
3128	0.029969
3112	0.101017
3096	0.004720
3080	0.197148
3064	0.109338
3048	0.083637
3032	-0.067949
3016	0.010228
3000	0.134611
2984	-0.013732
2968	-0.115919
2952	0.102043
2936	0.170660
2920	-0.041079
2904	0.000786
2888	0.012230
2872	0.002264
2856	0.018644
2840	0.083708
2824	-0.030994
2808	-0.028538
2792	0.046777
2776	-0.014448
2760	0.103497
2744	0.073266
2728	0.017142
2712	0.120115
2696	-0.047922
2680	0.096273
2664	0.032186
2648	0.081586
2632	-0.024056
2616	0.044417
2600	-0.040197
2584	0.071239
2568	-0.027346
2552	-0.085878
2536	0.064134
2520	0.014638
2504	-0.058150
2488	-0.023508
2472	-0.040793
2456	0.022411
2440	0.055146
2424	0.083041
2408	0.089621
2392	-0.108671
2376	0.060677
2360	-0.027322
2344	-0.063753
2328	-0.098276
2312	-0.034403
2296	-0.016283
2280	-0.028061
2264	0.040984
2248	0.120449
2232	0.388765
2216	0.658297
2200	0.942873
2184	1.523065
2168	2.076601
2152	2.819252
2136	4.002261
2120	5.077028
2104	6.375360
2088	7.642245
2072	9.036970
2056	10.6665
2040	12.0785
2024	13.4965
2008	14.736
1992	16.0633
1976	17.1547
1960	18.1939
1944	19.0044
1928	19.9742
1912	20.7466
1896	21.2399
1880	21.7974
1864	22.3042
1848	22.72
1832	23.051
1816	23.32
1800	23.6356
1784	23.8685
1768	24.0479
1752	24.2163
1736	24.2632
1720	24.3779
1704	24.4669
1688	24.4859
1672	24.492
1656	24.5121
1640	24.4558
1624	24.5534
1608	24.589
1592	24.5896
1576	24.542
1560	24.5383
1544	24.4701
1528	24.4403
1512	24.4443
1496	24.4227
1480	24.2442
1464	24.252
1448	24.2194
1432	24.0712
1416	24.182
1400	23.9834
1384	23.9967
1368	23.8417
1352	23.8311
1336	23.9007
1320	23.7242
1304	23.6293
1288	23.5709
1272	23.5028
1256	23.5154
1240	23.3011
1224	23.2913
1208	23.1288
1192	23.0567
1176	23.0101
1160	22.9663
1144	22.7957
1128	22.6426
1112	22.488
1096	22.3422
1080	22.4095
1064	22.0964
1048	22.212
1032	21.8685
1016	21.4092
1000	21.7577
984	 21.5042
968	 20.9019
952	 21.1594
936	 20.6525
920	 20.5538
904	 20.1799
888	 20.0328
872	 19.8082
856	 19.3629
840	 19.2343
824	 19.0011
808	 18.6478
792	 18.0446
776	 17.9114
760	 17.8091
744	 17.5481
728	 17.137
712	 16.749
696	 16.6037
680	 16.28
664	 15.5984
648	 15.1628
632	 14.7205
616	 14.6266
600	 13.8131
584	 13.918
568	 13.4438
552	 13.086
536	 12.7837
520	 12.4296
504	 11.9118
488	 11.0075
472	 11.627
456	 9.324622
440	 10.0614
424	 8.607363
408	 13.3782
392	 13.0773
376	 0.210523
370	 -3.165459

File: LPE453_t50.asc
PE IR       SPECTRUM    SPECTRUM    ASCII       PEDS        1.60
  -1
LPC7A9~1.ASC
17/05/16
18:29:20.00
17/05/16
18:29:46.00
tln
$LPE453_t0050$<tbV0>[0.0,-2.6,8.0,0.0,27,1,0]
27.028
64

2002,4.07
MIRTGS : RIGHTBACK : INTERNAL 2
MIR : ON : INTERNAL 2
OPTKBR

0.200000
8
8.000000
FILLER
RATIO
SPECTRUM
UNLOCKED 256

DOUBLE
64
COMBINED
1
0
0

0.002000
RATIO

1
0
TRUE
51149
0
LEFT NOT FITTED RIGHT NOT FITTED 0
NONE
NONE
15600
12
4.427000
51148
TRUE
1 0 8 72 0 0 0 0

15798

#HDR
-1
-1
#GR
µM
%T
2.38419e-05
0.0
2.000000
0.002000
12515
8
28.3565
-14.6397
#DATA
2.000000	 -0.219249
2.084000	 -0.157274
2.168000	 0.617140
2.252000	 -0.249367
2.336000	 -0.371933
2.420000	 -0.005017
2.504000	 -0.111605
2.588000	 0.035299
2.672000	 0.110968
2.756000	 0.005929
2.840000	 -0.156206
2.924000	 0.140756
3.008000	 -0.041779
3.092000	 -0.022494
3.176000	 0.002024
3.260000	 0.094679
3.344000	 -0.064731
3.428000	 0.126449
3.512000	 0.016859
3.596000	 0.005852
3.680000	 0.040922
3.764000	 0.041199
3.848000	 0.034751
3.932000	 0.025454
4.016000	 -0.131664
4.100000	 -0.003502
4.184000	 0.126016
4.268000	 -0.000270
4.352000	 0.084533
4.436000	 0.382948
4.520000	 1.157899
4.604000	 2.957946
4.688000	 6.065561
4.772000	 9.489246
4.856000	 13.2935
4.940000	 16.8198
5.024000	 19.7463
5.108000	 21.9157
5.192000	 23.7048
5.276000	 25.0446
5.359999	 26.0036
5.444000	 26.6291
5.528000	 27.1878
5.612000	 27.5195
5.696000	 27.7867
5.780000	 27.9924
5.864000	 28.0686
5.948000	 28.0731
6.032000	 28.1553
6.116000	 28.2748
6.200000	 28.3169
6.284000	 28.3047
6.368000	 28.2154
6.452000	 28.2741
6.536000	 28.1768
6.620000	 28.0952
6.704000	 27.9928
6.788000	 28.0203
6.872000	 27.8795
6.956000	 27.852
7.040000	 27.7749
7.124000	 27.6932
7.208000	 27.5822
7.292000	 27.4496
7.376000	 27.5313
7.460000	 27.4061
7.544000	 27.3578
7.628000	 27.3351
7.712000	 27.2652
7.796000	 27.2368
7.880000	 27.1731
7.964000	 27.2355
8.048000	 27.0283
8.132000	 26.977
8.216000	 26.9454
8.300000	 26.8245
8.384000	 26.9176
8.468000	 26.6631
8.552000	 26.7719
8.635999	 26.5919
8.719999	 26.4578
8.804000	 26.5487
8.888000	 26.4575
8.972000	 26.2362
9.056000	 26.3834
9.140000	 26.3941
9.224000	 26.2372
9.308000	 26.124
9.391999	 25.7386
9.475999	 25.8235
9.560000	 25.9251
9.644000	 25.6664
9.728000	 25.567
9.812000	 25.4349
9.896000	 25.3574
9.980000	 25.1756
10.064	25.3692
10.148	25.3316
10.232	25.2756
10.316	24.9222
10.4	24.9347
10.484	24.8986
10.568	24.6917
10.652	24.4904
10.736	24.3785
10.82	24.4812
10.904	24.4674
10.988	24.1052
11.072	24.0196
11.156	23.83
11.24	23.8149
11.324	23.6306
11.408	23.5065
11.492	23.618
11.576	23.6892
11.66	23.4395
11.744	23.2093
11.828	23.0732
11.912	23.0741
11.996	22.8111
12.08	22.706
12.164	22.6659
12.248	22.5813
12.332	22.681
12.416	22.5763
12.5	22.4102
12.584	22.2982
12.668	22.1498
12.752	22.1136
12.836	22.1077
12.92	22.0546
13.004	21.7127
13.088	21.4145
13.172	21.3967
13.256	21.3005
13.34	21.3296
13.424	21.5024
13.508	21.5638
13.592	21.3849
13.676	21.0806
13.76	20.9695
13.844	21.0111
13.928	20.9129
14.012	20.8011
14.096	20.8032
14.18	20.7682
14.264	20.5912
14.348	20.3844
14.432	20.3687
14.516	20.4211
14.6	20.3128
14.684	20.103
14.768	19.8893
14.852	19.7012
14.936	19.5754
15.02	19.4564
15.104	19.2815
15.188	19.1749
15.272	19.2964
15.356	19.4852
15.44	19.4831
15.524	19.3059
15.608	19.0474
15.692	18.7815
15.776	18.6356
15.86	18.6515
15.944	18.7193
16.028	18.7138
16.112	18.6139
16.196	18.5033
16.28	18.463
16.364	18.4621
16.448	18.3868
16.532	18.1825
16.616	17.9111
16.7	17.6853
16.784	17.5826
16.868	17.5833
16.952	17.5878
17.036	17.5117
17.12	17.3805
17.204	17.3002
17.288	17.3112
17.372	17.3448
17.456	17.3353
17.54	17.2809
17.624	17.1828
17.708	17.0408
17.792	16.8997
17.876	16.7936
17.96	16.69
18.044	16.5563
18.128	16.4322
18.212	16.3796
18.296	16.3908
18.38	16.3804
18.464	16.265
18.548	16.0512
18.632	15.8499
18.716	15.7665
18.8	15.7889
18.884	15.8184
18.968	15.7989
19.052	15.7673
19.136	15.7839
19.22	15.8573
19.304	15.9509
19.388	16.0232
19.472	16.0396
19.556	15.9723
19.64	15.8221
19.724	15.6356
19.808	15.483
19.892	15.414
19.976	15.4228
20.06	15.4491
20.144	15.4232
20.228	15.3062
20.312	15.1095
20.396	14.8882
20.48	14.7162
20.564	14.6495
20.648	14.6872
20.732	14.7597
20.816	14.7706
20.9	14.6722
20.984	14.5275
21.068	14.4701
21.152	14.5884
21.236	14.8349
21.32	15.0517
21.404	15.0821
21.488	14.8927
21.572	14.5859
21.656	14.3201
21.74	14.2094
21.824	14.2571
21.908	14.3672
21.992	14.4114
22.076	14.2946
22.16	14.0093
22.244	13.6373
22.328	13.2898
22.412	13.0433
22.496	12.8735
22.58	12.6771
22.664	12.3449
22.748	11.8416
22.832	11.2413
22.916	10.6949
23	10.3529
23.084	10.2861
23.168	10.4915
23.252	10.9249
23.336	11.521
23.42	12.239
23.504	13.0011
23.588	13.6723
23.672	14.0793
23.756	14.0384
23.84	13.4413
23.924	12.3582
24.008	11.0207
24.092	9.755665
24.176	8.914126
24.26	8.696705
24.344	9.094767
24.428	9.890582
24.512	10.7004
24.596	11.1295
24.68	10.8611
24.764	9.740916
24.848	7.768420
24.932	5.094709
25.016	1.982576
25.1	-1.294464
25.184	-4.423824
25.268	-7.092523
25.352	-9.029675
25.436	-9.849110
25.52	-9.171680
25.604	-6.806719
25.688	-2.800525
25.772	2.391096
25.856	7.946884
25.94	13.0477
26.024	17.0206
26.108	19.4829
26.192	20.3278
26.276	19.6553
26.36	17.7857
26.444	15.0092
26.528	11.5003
26.612	7.342966
26.696	2.640022
26.78	-2.360251
26.864	-7.160405
26.948	-11.2921
27.028	-14.6397

File: LPE453_t50_cm-1.asc
PE IR       SPECTRUM    SPECTRUM    ASCII       PEDS        1.60
  -1
LPD955~1.ASC
17/05/16
18:29:20.00
17/05/16
18:29:20.00
tln
$LPE453_t0050$<tbV0>[0.0,-2.6,8.0,0.0,27,1,0]
370
64

2002,4.07
MIRTGS : RIGHTBACK : INTERNAL 2
MIR : ON : INTERNAL 2
OPTKBR

0.200000
8
8.000000
FILLER
RATIO
SPECTRUM
UNLOCKED 256

DOUBLE
64
COMBINED
1
0
0

1.000000
RATIO

1
0
TRUE
51149
0
LEFT NOT FITTED RIGHT NOT FITTED 0
NONE
NONE
15600
12
4.427000
51148
TRUE
1 0 8 72 0 0 0 0

15798

#HDR
-1
-1
#GR
CM-1
%T
2.38419e-05
0.0
5000
-1.000000
4631
8
28.3559
-14.6397
#DATA
5000	-0.219249
4984	0.042033
4968	0.019478
4952	0.095081
4936	-0.029182
4920	-0.198483
4904	0.240421
4888	0.127434
4872	-0.194668
4856	0.309610
4840	0.147891
4824	0.151133
4808	0.231719
4792	0.052499
4776	0.408434
4760	-0.056886
4744	0.124859
4728	0.062203
4712	0.057959
4696	-0.012969
4680	-0.036215
4664	0.646734
4648	0.533270
4632	0.804615
4616	0.389814
4600	0.624561
4584	-0.152206
4568	0.062084
4552	-0.812959
4536	0.152206
4520	-6.884288
4504	16.4574
4488	0.846934
4472	-1.073789
4456	-0.153636
4440	-0.270342
4424	-0.032663
4408	0.259947
4392	0.595402
4376	0.425362
4360	0.592589
4344	0.194740
4328	0.082659
4312	0.148987
4296	-0.022983
4280	-0.421261
4264	0.002574
4248	0.167965
4232	0.061178
4216	-0.065898
4200	0.038099
4184	0.394153
4168	0.113344
4152	0.122976
4136	-0.006246
4120	0.151991
4104	-0.053787
4088	0.062441
4072	-0.019574
4056	0.042247
4040	0.045537
4024	0.015902
4008	-0.074911
3992	-0.093054
3976	0.185561
3960	0.066733
3944	-0.000834
3928	0.017166
3912	-0.021529
3896	-0.008940
3880	-0.062179
3864	0.035357
3848	0.171995
3832	0.032377
3816	0.221967
3800	0.005984
3784	-0.133824
3768	-0.085282
3752	0.102281
3736	-0.064301
3720	-0.051784
3704	0.259399
3688	0.050354
3672	-0.073194
3656	0.034236
3640	0.089263
3624	-0.057554
3608	-0.135254
3592	0.016665
3576	0.099229
3560	0.166273
3544	0.079488
3528	-0.042676
3512	0.118446
3496	0.162005
3480	0.004172
3464	0.012755
3448	-0.033235
3432	0.044846
3416	0.170230
3400	0.078797
3384	0.090503
3368	0.045204
3352	0.087857
3336	0.021934
3320	-0.061607
3304	0.053453
3288	-0.057649
3272	-0.005602
3256	0.097322
3240	-0.076794
3224	0.099873
3208	-0.019574
3192	-0.073218
3176	-0.050449
3160	0.170278
3144	0.110983
3128	0.145673
3112	-0.036096
3096	-0.088381
3080	0.035452
3064	0.088858
3048	-0.038862
3032	0.020408
3016	0.010347
3000	0.108623
2984	-0.024533
2968	0.035047
2952	0.004243
2936	-0.063848
2920	0.072002
2904	-0.026130
2888	0.165486
2872	0.002884
2856	0.022077
2840	0.026273
2824	0.046420
2808	0.058341
2792	0.012993
2776	0.052309
2760	-0.011873
2744	-0.033116
2728	0.051879
2712	0.022459
2696	-0.031018
2680	0.068068
2664	0.018453
2648	-0.043988
2632	0.040364
2616	0.038027
2600	0.053453
2584	-0.061893
2568	-0.030303
2552	-0.060820
2536	0.113701
2520	0.023150
2504	0.128030
2488	-0.078105
2472	0.082731
2456	-0.002002
2440	-0.007534
2424	-0.039958
2408	-0.023722
2392	0.142312
2376	0.021243
2360	-0.045442
2344	0.006222
2328	0.045299
2312	0.103116
2296	0.085210
2280	0.151205
2264	0.223326
2248	0.429630
2232	0.680470
2216	1.042437
2200	1.533627
2184	2.423882
2168	3.149867
2152	4.351377
2136	5.768752
2120	7.127285
2104	8.687877
2088	10.3013
2072	12.2245
2056	13.7581
2040	15.2989
2024	16.846
2008	18.2966
1992	19.6247
1976	20.6551
1960	21.7684
1944	22.8214
1928	23.6321
1912	24.4337
1896	25.024
1880	25.5514
1864	26.0609
1848	26.4241
1832	26.7845
1816	27.1167
1800	27.3907
1784	27.529
1768	27.7293
1752	27.8487
1736	27.8933
1720	28.0213
1704	28.0552
1688	28.1569
1672	28.1158
1656	28.1935
1640	28.256
1624	28.3282
1608	28.3477
1592	28.2994
1576	28.1745
1560	28.2108
1544	28.1624
1528	28.1547
1512	28.1003
1496	28.0468
1480	27.977
1464	28.0398
1448	27.8776
1432	27.8583
1416	27.8591
1400	27.5732
1384	27.5644
1368	27.4837
1352	27.4425
1336	27.3652
1320	27.4152
1304	27.2138
1288	27.2148
1272	27.1785
1256	27.2381
1240	26.963
1224	26.9664
1208	26.8626
1192	26.9125
1176	26.652
1160	26.6068
1144	26.4513
1128	26.5388
1112	26.2603
1096	26.452
1080	26.1656
1064	25.7244
1048	25.9085
1032	25.5984
1016	25.4683
1000	25.279
984	 25.3728
968	 24.8965
952	 24.8296
936	 24.4113
920	 24.5032
904	 24.0339
888	 23.7897
872	 23.5558
856	 23.3843
840	 23.0859
824	 22.7003
808	 22.6599
792	 22.2138
776	 22.1014
760	 21.3988
744	 21.5286
728	 20.9733
712	 20.7947
696	 20.3608
680	 20.0467
664	 19.3772
648	 19.4926
632	 18.6292
616	 18.4751
600	 17.7628
584	 17.3758
568	 17.2085
552	 16.4466
536	 15.8108
520	 15.869
504	 15.4444
488	 14.6997
472	 14.6818
456	 14.3902
440	 11.9795
424	 13.6516
408	 10.6831
392	 -9.336948
376	 8.195495
370	 -14.6397

File: LPE453_t51.asc
PE IR       SPECTRUM    SPECTRUM    ASCII       PEDS        1.60
  -1
LPC7AD~1.ASC
17/05/16
18:33:56.00
17/05/16
18:34:22.00
tln
$LPE453_t0051$<tbV0>[-2.6,-2.6,8.0,0.0,27,1,0]
27.028
64

2002,4.07
MIRTGS : RIGHTBACK : INTERNAL 2
MIR : ON : INTERNAL 2
OPTKBR

0.200000
8
8.000000
FILLER
RATIO
SPECTRUM
UNLOCKED 256

DOUBLE
64
COMBINED
1
0
0

0.002000
RATIO

1
0
TRUE
51149
0
LEFT NOT FITTED RIGHT NOT FITTED 0
NONE
NONE
15600
12
4.427000
51148
TRUE
1 0 8 72 0 0 0 0

15798

#HDR
-1
-1
#GR
µM
%T
2.38419e-05
0.0
2.000000
0.002000
12515
8
57.885
-11.3994
#DATA
2.000000	 -0.253653
2.084000	 0.159977
2.168000	 0.974573
2.252000	 -0.555984
2.336000	 0.260562
2.420000	 0.253958
2.504000	 0.240842
2.588000	 0.068345
2.672000	 0.112186
2.756000	 0.084859
2.840000	 0.058131
2.924000	 0.118930
3.008000	 -0.071882
3.092000	 0.028183
3.176000	 0.072236
3.260000	 0.146317
3.344000	 -0.012068
3.428000	 0.070676
3.512000	 -0.042873
3.596000	 -0.018935
3.680000	 0.081029
3.764000	 0.037689
3.848000	 -0.006416
3.932000	 0.056289
4.016000	 0.096219
4.100000	 -0.012464
4.184000	 0.070924
4.268000	 0.130032
4.352000	 0.225142
4.436000	 0.654841
4.520000	 1.888231
4.604000	 4.251280
4.688000	 7.826348
4.772000	 11.7867
4.856000	 15.858
4.940000	 19.7593
5.024000	 22.7636
5.108000	 25.0505
5.192000	 26.6502
5.276000	 28.1097
5.359999	 29.044
5.444000	 29.6451
5.528000	 30.2022
5.612000	 30.5544
5.696000	 30.8105
5.780000	 30.8913
5.864000	 31.0689
5.948000	 31.183
6.032000	 31.1263
6.116000	 31.3312
6.200000	 31.2632
6.284000	 31.2967
6.368000	 31.2871
6.452000	 31.1493
6.536000	 31.2915
6.620000	 31.0165
6.704000	 31.129
6.788000	 31.0991
6.872000	 30.8424
6.956000	 31.1768
7.040000	 30.7619
7.124000	 30.8855
7.208000	 30.9594
7.292000	 30.6531
7.376000	 30.5717
7.460000	 30.6851
7.544000	 30.4851
7.628000	 30.3975
7.712000	 30.4924
7.796000	 30.3809
7.880000	 30.2313
7.964000	 30.2418
8.048000	 30.2619
8.132000	 30.1296
8.216000	 30.0504
8.300000	 30.0481
8.384000	 29.9806
8.468000	 29.8147
8.552000	 29.5832
8.635999	 29.7505
8.719999	 29.8507
8.804000	 29.5084
8.888000	 29.4413
8.972000	 29.5326
9.056000	 29.3936
9.140000	 29.5097
9.224000	 29.2054
9.308000	 28.9545
9.391999	 29.0635
9.475999	 29.0324
9.560000	 29.0248
9.644000	 28.933
9.728000	 28.8378
9.812000	 28.7611
9.896000	 28.6248
9.980000	 28.6891
10.064	28.6219
10.148	28.2447
10.232	28.2342
10.316	28.1889
10.4	28.2259
10.484	28.2756
10.568	28.0392
10.652	27.8891
10.736	27.4695
10.82	27.4768
10.904	27.5112
10.988	27.6344
11.072	27.6198
11.156	27.6209
11.24	27.2465
11.324	26.922
11.408	26.9325
11.492	27.0915
11.576	27.1781
11.66	27.0825
11.744	26.9684
11.828	26.5149
11.912	26.2201
11.996	26.0808
12.08	25.9501
12.164	26.0809
12.248	26.1808
12.332	26.2946
12.416	26.3315
12.5	26.005
12.584	25.6959
12.668	25.502
12.752	25.4387
12.836	25.2444
12.92	25.0105
13.004	25.1098
13.088	25.3543
13.172	25.3832
13.256	25.1443
13.34	24.8086
13.424	24.8218
13.508	24.9566
13.592	24.816
13.676	24.4971
13.76	24.2532
13.844	24.1802
13.928	24.2234
14.012	24.3621
14.096	24.3981
14.18	24.1891
14.264	23.8266
14.348	23.5861
14.432	23.5378
14.516	23.4763
14.6	23.343
14.684	23.2435
14.768	23.1555
14.852	23.1207
14.936	23.2622
15.02	23.3829
15.104	23.2736
15.188	23.1218
15.272	23.0507
15.356	22.8772
15.44	22.5449
15.524	22.2454
15.608	22.0952
15.692	22.0257
15.776	21.9302
15.86	21.8259
15.944	21.8222
16.028	21.9073
16.112	21.9228
16.196	21.8273
16.28	21.7926
16.364	21.957
16.448	22.2203
16.532	22.3149
16.616	22.092
16.7	21.7208
16.784	21.47
16.868	21.3583
16.952	21.2316
17.036	21.0417
17.12	20.8427
17.204	20.6514
17.288	20.4784
17.372	20.3745
17.456	20.3466
17.54	20.3336
17.624	20.3066
17.708	20.3289
17.792	20.4563
17.876	20.6177
17.96	20.6751
18.044	20.57
18.128	20.3416
18.212	20.0467
18.296	19.7431
18.38	19.5219
18.464	19.4657
18.548	19.5578
18.632	19.6841
18.716	19.7235
18.8	19.6275
18.884	19.443
18.968	19.2563
19.052	19.1162
19.136	19.0096
19.22	18.9154
19.304	18.863
19.388	18.9022
19.472	19.0224
19.556	19.1483
19.64	19.201
19.724	19.1389
19.808	18.9587
19.892	18.6981
19.976	18.435
20.06	18.2495
20.144	18.1638
20.228	18.1397
20.312	18.1484
20.396	18.212
20.48	18.3402
20.564	18.4536
20.648	18.4283
20.732	18.2177
20.816	17.9224
20.9	17.7041
20.984	17.6472
21.068	17.6977
21.152	17.7464
21.236	17.7498
21.32	17.7682
21.404	17.8938
21.488	18.1494
21.572	18.4566
21.656	18.6855
21.74	18.729
21.824	18.5499
21.908	18.1832
21.992	17.7014
22.076	17.1824
22.16	16.6947
22.244	16.2927
22.328	16.0112
22.412	15.8604
22.496	15.8284
22.58	15.884
22.664	15.9795
22.748	16.0554
22.832	16.0536
22.916	15.9225
23	15.6614
23.084	15.3152
23.168	14.9763
23.252	14.7326
23.336	14.6178
23.42	14.6043
23.504	14.6192
23.588	14.5852
23.672	14.4718
23.756	14.3311
23.84	14.2707
23.924	14.4122
24.008	14.7898
24.092	15.2928
24.176	15.7289
24.26	15.8754
24.344	15.5708
24.428	14.7914
24.512	13.5985
24.596	12.1366
24.68	10.539
24.764	8.864890
24.848	7.166056
24.932	5.575397
25.016	4.309430
25.1	3.568833
25.184	3.483040
25.268	4.009447
25.352	4.910990
25.436	5.970005
25.52	7.130417
25.604	8.515951
25.688	10.3685
25.772	12.8712
25.856	16.0167
25.94	19.5524
26.024	23.1289
26.108	26.5128
26.192	29.7288
26.276	33.0297
26.36	36.755
26.444	41.1607
26.528	46.1572
26.612	51.2496
26.696	55.4856
26.78	57.7491
26.864	57.0046
26.948	52.7295
27.028	45.7673