Folder: Masteroppgave/Bakgrunnsmateriale/MATLAB/FTIR/ftir_data/LPE453/Mapping_121 (part 12)

File: LPE453_t21_cm-1.asc
PE IR       SPECTRUM    SPECTRUM    ASCII       PEDS        1.60
  -1
LP58D5~1.ASC
17/05/16
16:00:54.00
17/05/16
16:00:54.00
tln
$LPE453_t0021$<tbV0>[-10.4,-10.4,8.0,0.0,27,1,0]
370
64

2002,4.07
MIRTGS : RIGHTBACK : INTERNAL 2
MIR : ON : INTERNAL 2
OPTKBR

0.200000
8
8.000000
FILLER
RATIO
SPECTRUM
UNLOCKED 256

DOUBLE
64
COMBINED
1
0
0

1.000000
RATIO

1
0
TRUE
51149
0
LEFT NOT FITTED RIGHT NOT FITTED 0
NONE
NONE
15600
12
4.427000
51148
TRUE
1 0 8 72 0 0 0 0

15798

#HDR
-1
-1
#GR
CM-1
%T
2.38419e-05
0.0
5000
-1.000000
4631
8
43.0971
-12.7604
#DATA
5000	0.202107
4984	0.316166
4968	-0.171470
4952	0.998735
4936	0.247454
4920	-0.142884
4904	-0.082206
4888	0.170350
4872	0.876188
4856	0.520563
4840	0.014638
4824	0.037646
4808	0.021934
4792	0.301909
4776	0.335359
4760	0.050616
4744	-0.001001
4728	0.278091
4712	0.213813
4696	0.645041
4680	0.740623
4664	0.643277
4648	0.753092
4632	1.086378
4616	1.083111
4600	0.447297
4584	-0.213098
4568	-0.647997
4552	-0.939345
4536	0.662112
4520	10.0943
4504	-0.468301
4488	-1.585364
4472	-1.142954
4456	-1.117849
4440	-0.854659
4424	-0.044918
4408	0.500559
4392	0.553512
4376	0.567626
4360	0.810885
4344	0.355625
4328	0.032567
4312	0.244045
4296	0.174427
4280	-0.113677
4264	-0.182843
4248	0.001358
4232	0.213241
4216	0.383901
4200	0.160026
4184	0.410437
4168	0.022006
4152	0.426054
4136	0.123786
4120	0.053310
4104	0.151658
4088	-0.099444
4072	0.376605
4056	0.045514
4040	0.147485
4024	0.247788
4008	-0.117182
3992	0.182127
3976	0.302505
3960	0.377726
3944	0.165843
3928	0.059509
3912	-0.051379
3896	0.158333
3880	0.005054
3864	0.125479
3848	0.186419
3832	0.032520
3816	0.194764
3800	0.022268
3784	-0.009441
3768	0.206661
3752	0.052595
3736	0.142431
3720	0.100588
3704	-0.006985
3688	0.159335
3672	0.238370
3656	0.149345
3640	-0.037884
3624	0.181031
3608	-0.124979
3592	0.039553
3576	0.002145
3560	0.096917
3544	0.147366
3528	0.024056
3512	-0.062823
3496	0.061511
3480	-0.017547
3464	-0.169157
3448	-0.005722
3432	0.032663
3416	0.014710
3400	0.075817
3384	0.207114
3368	0.055265
3352	-0.028944
3336	0.036716
3320	0.179338
3304	0.121545
3288	0.065279
3272	0.137376
3256	0.107884
3240	0.153589
3224	0.092792
3208	0.082540
3192	-0.031685
3176	-0.010108
3160	0.038719
3144	0.392675
3128	0.198411
3112	-0.003838
3096	0.044655
3080	-0.007700
3064	0.052523
3048	0.116348
3032	0.051903
3016	0.053954
3000	-0.024485
2984	-0.107693
2968	-0.073146
2952	0.091862
2936	0.021839
2920	0.091195
2904	0.088500
2888	0.087070
2872	0.127840
2856	0.186610
2840	0.046539
2824	0.026869
2808	0.033879
2792	0.044727
2776	0.035405
2760	-0.098800
2744	0.031900
2728	0.139045
2712	0.091361
2696	-0.013256
2680	0.017738
2664	0.154852
2648	0.101590
2632	0.034022
2616	0.143051
2600	0.013923
2584	0.046801
2568	0.042843
2552	0.040626
2536	0.026822
2520	0.118064
2504	0.077652
2488	0.041079
2472	-0.016450
2456	0.146365
2440	0.192594
2424	0.358629
2408	0.079250
2392	0.115013
2376	0.168299
2360	0.228214
2344	0.213980
2328	0.406002
2312	0.555038
2296	0.782084
2280	1.009035
2264	1.490116
2248	2.159166
2232	2.744150
2216	3.746747
2200	4.885292
2184	6.379318
2168	7.803511
2152	9.646821
2136	11.4726
2120	13.4054
2104	15.4443
2088	17.4051
2072	19.4082
2056	21.5784
2040	23.0432
2024	24.6595
2008	26.164
1992	27.4375
1976	28.6865
1960	29.606
1944	30.7073
1928	31.5221
1912	32.2922
1896	32.7715
1880	33.3103
1864	33.7872
1848	34.2442
1832	34.4761
1816	34.9024
1800	35.1188
1784	35.3086
1768	35.5146
1752	35.6387
1736	36.0794
1720	35.8956
1704	35.9835
1688	36.1131
1672	36.2289
1656	36.3059
1640	36.0373
1624	36.1196
1608	36.0482
1592	35.9427
1576	36.0712
1560	36.3095
1544	36.2501
1528	36.0065
1512	36.0865
1496	36.1583
1480	35.854
1464	35.7408
1448	36.0555
1432	35.7539
1416	35.6817
1400	35.3965
1384	35.5897
1368	35.7593
1352	35.2008
1336	35.1292
1320	35.4262
1304	35.4293
1288	35.0502
1272	35.06
1256	35.1211
1240	35.0818
1224	34.8394
1208	35.0204
1192	35.1601
1176	34.7324
1160	34.4614
1144	34.8297
1128	34.827
1112	34.2964
1096	34.0197
1080	34.5241
1064	34.5714
1048	34.0951
1032	34.0458
1016	34.3474
1000	34.0215
984	 33.7278
968	 33.8385
952	 34.1654
936	 33.7101
920	 32.9396
904	 33.0312
888	 33.6056
872	 32.9279
856	 32.3357
840	 32.7979
824	 32.8799
808	 32.3328
792	 31.6876
776	 32.4463
760	 32.4909
744	 32.3263
728	 31.2749
712	 31.4555
696	 31.4665
680	 30.2724
664	 30.5365
648	 30.9968
632	 30.6256
616	 29.3453
600	 29.4146
584	 29.4085
568	 28.9962
552	 27.9359
536	 28.0522
520	 28.2892
504	 27.0941
488	 26.0566
472	 26.8852
456	 26.5959
440	 25.626
424	 23.7772
408	 25.4656
392	 -12.4293
376	 6.039857
370	 3.835272

File: LPE453_t22.asc
PE IR       SPECTRUM    SPECTRUM    ASCII       PEDS        1.60
  -1
LPCB91~1.ASC
17/05/16
16:05:31.00
17/05/16
16:05:57.00
tln
$LPE453_t0022$<tbV0>[-13.0,-10.4,8.0,0.0,27,1,0]
27.028
64

2002,4.07
MIRTGS : RIGHTBACK : INTERNAL 2
MIR : ON : INTERNAL 2
OPTKBR

0.200000
8
8.000000
FILLER
RATIO
SPECTRUM
UNLOCKED 256

DOUBLE
64
COMBINED
1
0
0

0.002000
RATIO

1
0
TRUE
51149
0
LEFT NOT FITTED RIGHT NOT FITTED 0
NONE
NONE
15600
12
4.427000
51148
TRUE
1 0 8 72 0 0 0 0

15798

#HDR
-1
-1
#GR
µM
%T
2.38419e-05
0.0
2.000000
0.002000
12515
8
35.6956
-3.278283
#DATA
2.000000	 0.190281
2.084000	 -0.173374
2.168000	 1.886903
2.252000	 0.792578
2.336000	 0.216581
2.420000	 0.323749
2.504000	 0.054300
2.588000	 0.163894
2.672000	 0.233381
2.756000	 0.026781
2.840000	 0.071468
2.924000	 0.089138
3.008000	 0.105603
3.092000	 0.018842
3.176000	 0.036911
3.260000	 0.110664
3.344000	 0.079765
3.428000	 -0.050636
3.512000	 0.066960
3.596000	 -0.010677
3.680000	 0.025520
3.764000	 0.084240
3.848000	 -0.040697
3.932000	 -0.009950
4.016000	 0.267446
4.100000	 0.026496
4.184000	 0.072910
4.268000	 0.117074
4.352000	 0.522830
4.436000	 1.387575
4.520000	 3.223381
4.604000	 6.309594
4.688000	 10.1032
4.772000	 14.1082
4.856000	 18.1762
4.940000	 21.6793
5.024000	 24.1196
5.108000	 26.452
5.192000	 28.0295
5.276000	 29.4509
5.359999	 30.3742
5.444000	 31.1494
5.528000	 31.8378
5.612000	 32.435
5.696000	 32.7979
5.780000	 33.2874
5.864000	 33.4632
5.948000	 34.1335
6.032000	 33.9078
6.116000	 34.255
6.200000	 34.3739
6.284000	 34.3586
6.368000	 34.9106
6.452000	 34.7103
6.536000	 34.7449
6.620000	 35.4304
6.704000	 35.1086
6.788000	 35.0417
6.872000	 35.6735
6.956000	 35.1791
7.040000	 34.9715
7.124000	 35.3865
7.208000	 35.5458
7.292000	 35.0397
7.376000	 34.8791
7.460000	 35.3258
7.544000	 35.4194
7.628000	 34.7876
7.712000	 34.7909
7.796000	 35.3057
7.880000	 35.203
7.964000	 34.7429
8.048000	 34.4686
8.132000	 34.7963
8.216000	 35.0224
8.300000	 34.7115
8.384000	 34.1535
8.468000	 34.0595
8.552000	 34.5426
8.635999	 34.8191
8.719999	 34.3096
8.804000	 33.7785
8.888000	 33.5867
8.972000	 33.6882
9.056000	 34.1791
9.140000	 33.9072
9.224000	 33.5706
9.308000	 33.1778
9.391999	 32.9815
9.475999	 33.1319
9.560000	 33.56
9.644000	 33.6436
9.728000	 32.9853
9.812000	 32.5793
9.896000	 32.3642
9.980000	 32.4201
10.064	32.6245
10.148	32.758
10.232	32.5722
10.316	32.3633
10.4	32.0657
10.484	31.7605
10.568	31.4755
10.652	31.6878
10.736	32.146
10.82	32.2866
10.904	32.1642
10.988	31.8433
11.072	31.462
11.156	31.1105
11.24	30.7335
11.324	30.7052
11.408	30.669
11.492	30.7925
11.576	31.0617
11.66	31.2054
11.744	30.9963
11.828	30.6523
11.912	30.3156
11.996	29.9534
12.08	29.9336
12.164	30.0198
12.248	30.1165
12.332	30.395
12.416	30.4392
12.5	30.2314
12.584	30.1759
12.668	29.951
12.752	29.5221
12.836	29.1037
12.92	28.7172
13.004	28.6948
13.088	28.7296
13.172	29.0231
13.256	29.3654
13.34	29.2354
13.424	29.3261
13.508	29.4248
13.592	29.3166
13.676	29.0883
13.76	28.6377
13.844	28.212
13.928	28.0946
14.012	28.0955
14.096	27.9855
14.18	27.8377
14.264	27.9144
14.348	28.1005
14.432	28.141
14.516	28.4017
14.6	28.7581
14.684	28.7418
14.768	28.5738
14.852	28.4412
14.936	28.2566
15.02	28.0715
15.104	27.8568
15.188	27.5219
15.272	27.2076
15.356	27.0368
15.44	26.9556
15.524	26.9088
15.608	26.9133
15.692	27.0059
15.776	27.181
15.86	27.4558
15.944	27.7113
16.028	27.6833
16.112	27.3956
16.196	27.0931
16.28	26.8041
16.364	26.5337
16.448	26.4684
16.532	26.5515
16.616	26.4722
16.7	26.2163
16.784	26.0289
16.868	25.9556
16.952	25.9079
17.036	25.9278
17.12	26.0662
17.204	26.2346
17.288	26.3276
17.372	26.3276
17.456	26.2474
17.54	26.1048
17.624	25.9774
17.708	25.9732
17.792	26.1222
17.876	26.3399
17.96	26.4964
18.044	26.4991
18.128	26.3149
18.212	25.9668
18.296	25.5247
18.38	25.09
18.464	24.7549
18.548	24.5489
18.632	24.4155
18.716	24.2934
18.8	24.2042
18.884	24.2145
18.968	24.3136
19.052	24.374
19.136	24.2675
19.22	24.0022
19.304	23.7458
19.388	23.7018
19.472	23.9548
19.556	24.4059
19.64	24.8411
19.724	25.093
19.808	25.1485
19.892	25.1128
19.976	25.085
20.06	25.0713
20.144	25.006
20.228	24.8506
20.312	24.6687
20.396	24.58
20.48	24.629
20.564	24.7235
20.648	24.7117
20.732	24.5321
20.816	24.2676
20.9	24.0496
20.984	23.9243
21.068	23.8256
21.152	23.6777
21.236	23.4924
21.32	23.3601
21.404	23.3362
21.488	23.3871
21.572	23.4296
21.656	23.4357
21.74	23.4672
21.824	23.6116
21.908	23.8798
21.992	24.1825
22.076	24.4027
22.16	24.4828
22.244	24.4772
22.328	24.4732
22.412	24.4884
22.496	24.43
22.58	24.154
22.664	23.564
22.748	22.6825
22.832	21.6305
22.916	20.5799
23	19.6964
23.084	19.097
23.168	18.8208
23.252	18.7956
23.336	18.8406
23.42	18.7526
23.504	18.3661
23.588	17.6729
23.672	16.834
23.756	16.115
23.84	15.788
23.924	15.9953
24.008	16.6841
24.092	17.6391
24.176	18.5888
24.26	19.3253
24.344	19.7771
24.428	20.012
24.512	20.1322
24.596	20.2173
24.68	20.2411
24.764	20.0496
24.848	19.4808
24.932	18.403
25.016	16.7817
25.1	14.6674
25.184	12.1911
25.268	9.521675
25.352	6.812485
25.436	4.211966
25.52	1.858904
25.604	-0.108284
25.688	-1.497986
25.772	-2.093238
25.856	-1.716448
25.94	-0.359858
26.024	1.812224
26.108	4.510830
26.192	7.521159
26.276	10.7483
26.36	14.1959
26.444	17.8071
26.528	21.3296
26.612	24.2678
26.696	26.0076
26.78	26.0636
26.864	24.2241
26.948	20.6646
27.028	16.2555

File: LPE453_t22_cm-1.asc
PE IR       SPECTRUM    SPECTRUM    ASCII       PEDS        1.60
  -1
LP5850~1.ASC
17/05/16
16:05:31.00
17/05/16
16:05:31.00
tln
$LPE453_t0022$<tbV0>[-13.0,-10.4,8.0,0.0,27,1,0]
370
64

2002,4.07
MIRTGS : RIGHTBACK : INTERNAL 2
MIR : ON : INTERNAL 2
OPTKBR

0.200000
8
8.000000
FILLER
RATIO
SPECTRUM
UNLOCKED 256

DOUBLE
64
COMBINED
1
0
0

1.000000
RATIO

1
0
TRUE
51149
0
LEFT NOT FITTED RIGHT NOT FITTED 0
NONE
NONE
15600
12
4.427000
51148
TRUE
1 0 8 72 0 0 0 0

15798

#HDR
-1
-1
#GR
CM-1
%T
2.38419e-05
0.0
5000
-1.000000
4631
8
35.6955
-3.275203
#DATA
5000	0.190281
4984	0.209140
4968	0.224232
4952	0.503349
4936	0.095343
4920	0.850987
4904	-0.077247
4888	0.195312
4872	-0.495100
4856	0.473690
4840	0.189352
4824	-0.234079
4808	0.122404
4792	0.235891
4776	0.296497
4760	0.417995
4744	0.311422
4728	-0.139379
4712	0.122404
4696	0.154304
4680	0.458550
4664	1.003289
4648	0.263762
4632	0.502705
4616	1.726651
4600	0.891971
4584	-0.051808
4568	-0.341057
4552	-0.694775
4536	-3.215265
4520	-0.441551
4504	7.456851
4488	-0.662755
4472	-0.362324
4456	0.838565
4440	0.793671
4424	1.013207
4408	0.859427
4392	0.704860
4376	0.644230
4360	0.417971
4344	0.426054
4328	0.233197
4312	0.194454
4296	0.419878
4280	0.243592
4264	-0.016379
4248	0.071740
4232	0.093317
4216	0.237774
4200	0.522947
4184	0.586009
4168	0.287151
4152	0.346422
4136	0.315761
4120	0.227165
4104	-0.041460
4088	-0.249075
4072	0.037741
4056	-0.138640
4040	0.209355
4024	0.245118
4008	0.295805
3992	0.059461
3976	0.274515
3960	0.211501
3944	0.152730
3928	0.037741
3912	0.180625
3896	-0.007057
3880	0.163435
3864	0.163960
3848	0.022530
3832	0.105309
3816	-0.047230
3800	-0.010395
3784	-0.095248
3768	0.153875
3752	0.063395
3736	-0.033259
3720	0.236344
3704	0.174927
3688	0.081229
3672	-0.058078
3656	-0.003719
3640	0.106501
3624	0.045585
3608	0.183129
3592	0.008893
3576	0.014686
3560	0.048160
3544	0.063753
3528	-0.047898
3512	-0.010204
3496	0.176715
3480	0.065612
3464	-0.195527
3448	0.157999
3432	0.047898
3416	0.140023
3400	0.033736
3384	-0.105762
3368	-0.055193
3352	0.096106
3336	0.015091
3320	0.056290
3304	-0.039052
3288	0.149130
3272	0.147175
3256	0.022697
3240	0.083160
3224	0.051498
3208	0.205349
3192	0.028061
3176	0.140929
3160	0.081920
3144	0.091075
3128	0.027108
3112	0.115871
3096	0.072860
3080	0.087833
3064	0.157904
3048	0.116539
3032	0.010323
3016	0.023841
3000	0.187754
2984	0.102257
2968	0.147938
2952	0.068068
2936	0.065016
2920	-0.069522
2904	-0.055694
2888	0.189518
2872	0.043439
2856	0.102758
2840	0.103926
2824	0.069212
2808	0.090837
2792	0.097870
2776	-0.011849
2760	0.088763
2744	-0.095915
2728	-0.018763
2712	0.036692
2696	0.112366
2680	-0.001549
2664	0.005078
2648	0.074005
2632	0.034213
2616	0.005888
2600	-0.027394
2584	-0.053882
2568	-0.003862
2552	0.093531
2536	0.004625
2520	0.058102
2504	0.263905
2488	0.182294
2472	0.164628
2456	-0.046515
2440	0.053691
2424	-0.102543
2408	0.302839
2392	0.038266
2376	0.075888
2360	0.173783
2344	0.118327
2328	0.195741
2312	0.301146
2296	0.561499
2280	0.905942
2264	1.096367
2248	1.680922
2232	2.300095
2216	3.039598
2200	4.078555
2184	5.146098
2168	6.637430
2152	8.179211
2136	9.744572
2120	11.6121
2104	13.2971
2088	14.9735
2072	16.922
2056	18.538
2040	20.0819
2024	21.7106
2008	23.0659
1992	23.9911
1976	25.2848
1960	26.3424
1944	27.0753
1928	27.9482
1912	28.7648
1896	29.4412
1880	29.6508
1864	30.441
1848	31.0219
1832	31.1691
1816	31.4675
1800	32.1892
1784	32.4716
1768	32.5177
1752	32.9568
1736	33.3869
1720	33.3626
1704	33.5665
1688	34.078
1672	34.0771
1656	34.0074
1640	34.1894
1624	34.4848
1608	34.2519
1592	34.3428
1576	34.9067
1560	35.2094
1544	34.8109
1528	34.822
1512	35.3727
1496	35.2006
1480	34.882
1464	35.4047
1448	35.3702
1432	34.9093
1416	34.9979
1400	35.5395
1384	35.4687
1368	35.0461
1352	34.9725
1336	35.4891
1320	35.0894
1304	34.6613
1288	35.1964
1272	35.2786
1256	34.7505
1240	34.4883
1224	35.0826
1208	34.8347
1192	34.1271
1176	34.1997
1160	34.8301
1144	34.168
1128	33.5878
1112	33.7794
1096	33.9794
1080	33.3074
1064	32.9852
1048	33.4649
1032	33.3966
1016	32.6324
1000	32.5121
984	 32.7391
968	 32.2986
952	 31.6778
936	 31.865
920	 32.2521
904	 31.5013
888	 30.7147
872	 30.7376
856	 31.1771
840	 30.3486
824	 29.9991
808	 30.4812
792	 30.0977
776	 28.8484
760	 28.9406
744	 29.3646
728	 28.7808
712	 28.0681
696	 28.1167
680	 28.6965
664	 27.9821
648	 26.9613
632	 27.323
616	 26.9665
600	 26.3226
584	 26.073
568	 25.998
552	 26.3525
536	 24.3794
520	 23.9645
504	 25.138
488	 24.6427
472	 23.6018
456	 23.96
440	 22.9218
424	 17.7019
408	 20.1296
392	 2.115607
376	 23.7811
370	 16.2555

File: LPE453_t23.asc
PE IR       SPECTRUM    SPECTRUM    ASCII       PEDS        1.60
  -1
LPCB95~1.ASC
17/05/16
16:17:16.00
17/05/16
16:17:42.00
tln
$LPE453_t0023$<tbV0>[13.0,-7.8,8.0,0.0,27,1,0]
27.028
64

2002,4.07
MIRTGS : RIGHTBACK : INTERNAL 2
MIR : ON : INTERNAL 2
OPTKBR

0.200000
8
8.000000
FILLER
RATIO
SPECTRUM
UNLOCKED 256

DOUBLE
64
COMBINED
1
0
0

0.002000
RATIO

1
0
TRUE
51149
0
LEFT NOT FITTED RIGHT NOT FITTED 0
NONE
NONE
15600
12
4.427000
51148
TRUE
1 0 8 72 0 0 0 0

15798

#HDR
-1
-1
#GR
µM
%T
2.38419e-05
0.0
2.000000
0.002000
12515
8
27.3301
-55.3728
#DATA
2.000000	 0.240468
2.084000	 0.118976
2.168000	 0.605528
2.252000	 -0.286231
2.336000	 0.184897
2.420000	 0.075956
2.504000	 -0.282487
2.588000	 0.033648
2.672000	 0.084266
2.756000	 0.045460
2.840000	 -0.043000
2.924000	 0.158203
3.008000	 0.144682
3.092000	 0.082090
3.176000	 0.139855
3.260000	 0.060446
3.344000	 0.071524
3.428000	 0.037667
3.512000	 0.097812
3.596000	 -0.010892
3.680000	 0.061724
3.764000	 -0.036264
3.848000	 0.062287
3.932000	 -0.051174
4.016000	 -0.028593
4.100000	 0.066210
4.184000	 0.080345
4.268000	 0.010820
4.352000	 0.193016
4.436000	 0.470337
4.520000	 1.277281
4.604000	 2.997685
4.688000	 5.781786
4.772000	 8.972498
4.856000	 12.4026
4.940000	 15.3836
5.024000	 18.0426
5.108000	 20.1442
5.192000	 21.7988
5.276000	 22.9887
5.359999	 24.0724
5.444000	 24.869
5.528000	 25.362
5.612000	 25.809
5.696000	 26.2064
5.780000	 26.3249
5.864000	 26.6415
5.948000	 26.81
6.032000	 26.8223
6.116000	 27.0942
6.200000	 27.103
6.284000	 27.154
6.368000	 27.0427
6.452000	 27.2559
6.536000	 27.2298
6.620000	 27.2154
6.704000	 27.1898
6.788000	 27.14
6.872000	 27.2068
6.956000	 27.1873
7.040000	 27.1481
7.124000	 27.0761
7.208000	 26.992
7.292000	 27.0555
7.376000	 27.1728
7.460000	 27.0213
7.544000	 26.943
7.628000	 26.959
7.712000	 26.9041
7.796000	 26.7786
7.880000	 26.832
7.964000	 26.8165
8.048000	 26.7485
8.132000	 26.7543
8.216000	 26.8186
8.300000	 26.6795
8.384000	 26.5614
8.468000	 26.4408
8.552000	 26.4604
8.635999	 26.3165
8.719999	 26.2077
8.804000	 26.2976
8.888000	 26.1708
8.972000	 26.133
9.056000	 25.927
9.140000	 25.8278
9.224000	 25.9911
9.308000	 26.0434
9.391999	 25.849
9.475999	 25.8984
9.560000	 25.3177
9.644000	 25.4213
9.728000	 25.7129
9.812000	 25.7759
9.896000	 25.3906
9.980000	 25.1653
10.064	25.2305
10.148	25.1636
10.232	24.9976
10.316	25.1854
10.4	24.9404
10.484	24.7796
10.568	24.5576
10.652	24.6535
10.736	24.8934
10.82	24.6553
10.904	24.3928
10.988	24.1475
11.072	23.9037
11.156	23.7292
11.24	24.0082
11.324	24.102
11.408	23.961
11.492	23.9806
11.576	23.7613
11.66	23.4114
11.744	23.4124
11.828	23.525
11.912	23.7326
11.996	23.6912
12.08	23.4318
12.164	23.241
12.248	22.8517
12.332	22.6907
12.416	22.7324
12.5	22.8084
12.584	22.9236
12.668	22.9417
12.752	22.6766
12.836	22.4313
12.92	22.4847
13.004	22.3097
13.088	22.0915
13.172	22.1658
13.256	22.261
13.34	22.1279
13.424	21.943
13.508	21.9173
13.592	21.9277
13.676	21.8068
13.76	21.6464
13.844	21.6405
13.928	21.5981
14.012	21.2857
14.096	21.0889
14.18	21.1477
14.264	21.1036
14.348	20.9833
14.432	20.9224
14.516	20.8363
14.6	20.6685
14.684	20.5382
14.768	20.5023
14.852	20.438
14.936	20.2995
15.02	20.1236
15.104	19.9494
15.188	19.9278
15.272	20.0729
15.356	20.1441
15.44	20.0797
15.524	19.9985
15.608	19.9217
15.692	19.8644
15.776	19.8089
15.86	19.6548
15.944	19.4359
16.028	19.2995
16.112	19.2474
16.196	19.1699
16.28	19.1092
16.364	19.2588
16.448	19.6048
16.532	19.8186
16.616	19.6618
16.7	19.2963
16.784	19.0257
16.868	18.8956
16.952	18.7452
17.036	18.5356
17.12	18.4064
17.204	18.4481
17.288	18.6068
17.372	18.7709
17.456	18.8714
17.54	18.9126
17.624	18.8773
17.708	18.6995
17.792	18.4033
17.876	18.151
17.96	18.0598
18.044	18.0652
18.128	18.0414
18.212	17.9511
18.296	17.8301
18.38	17.7088
18.464	17.5778
18.548	17.412
18.632	17.2225
18.716	17.0518
18.8	16.9055
18.884	16.7229
18.968	16.4806
19.052	16.2964
19.136	16.3308
19.22	16.5817
19.304	16.8489
19.388	16.9348
19.472	16.8341
19.556	16.7018
19.64	16.6729
19.724	16.7462
19.808	16.831
19.892	16.8413
19.976	16.7464
20.06	16.5596
20.144	16.3116
20.228	16.0423
20.312	15.803
20.396	15.6446
20.48	15.597
20.564	15.649
20.648	15.7561
20.732	15.8665
20.816	15.9449
20.9	15.9796
20.984	15.9618
21.068	15.8779
21.152	15.72
21.236	15.5043
21.32	15.2743
21.404	15.0743
21.488	14.9236
21.572	14.822
21.656	14.7635
21.74	14.7609
21.824	14.8462
21.908	15.0362
21.992	15.3065
22.076	15.5953
22.16	15.8248
22.244	15.9531
22.328	15.9704
22.412	15.8744
22.496	15.6477
22.58	15.27
22.664	14.7633
22.748	14.2519
22.832	13.9333
22.916	13.9775
23	14.4459
23.084	15.2074
23.168	15.953
23.252	16.369
23.336	16.2495
23.42	15.5723
23.504	14.486
23.588	13.249
23.672	12.1118
23.756	11.2501
23.84	10.7619
23.924	10.6919
24.008	11.0193
24.092	11.6074
24.176	12.1753
24.26	12.3174
24.344	11.5287
24.428	9.461883
24.512	6.171701
24.596	2.134001
24.68	-1.742372
24.764	-4.332987
24.848	-4.827862
24.932	-3.021238
25.016	0.491037
25.1	4.555300
25.184	7.794335
25.268	9.245097
25.352	8.691752
25.436	6.675520
25.52	4.275655
25.604	2.613724
25.688	2.453699
25.772	3.845748
25.856	6.131905
25.94	8.194600
26.024	8.725798
26.108	6.705203
26.192	1.571244
26.276	-6.609463
26.36	-17.0763
26.444	-28.5538
26.528	-39.5286
26.612	-48.344
26.696	-53.7559
26.78	-55.3637
26.864	-53.6798
26.948	-49.7705
27.028	-44.9725

File: LPE453_t23_cm-1.asc
PE IR       SPECTRUM    SPECTRUM    ASCII       PEDS        1.60
  -1
LP58D0~1.ASC
17/05/16
16:17:16.00
17/05/16
16:17:16.00
tln
$LPE453_t0023$<tbV0>[13.0,-7.8,8.0,0.0,27,1,0]
370
64

2002,4.07
MIRTGS : RIGHTBACK : INTERNAL 2
MIR : ON : INTERNAL 2
OPTKBR

0.200000
8
8.000000
FILLER
RATIO
SPECTRUM
UNLOCKED 256

DOUBLE
64
COMBINED
1
0
0

1.000000
RATIO

1
0
TRUE
51149
0
LEFT NOT FITTED RIGHT NOT FITTED 0
NONE
NONE
15600
12
4.427000
51148
TRUE
1 0 8 72 0 0 0 0

15798

#HDR
-1
-1
#GR
CM-1
%T
2.38419e-05
0.0
5000
-1.000000
4631
8
27.3302
-55.1029
#DATA
5000	0.240468
4984	-0.235438
4968	-0.027632
4952	0.257086
4936	-0.208520
4920	0.083160
4904	0.631403
4888	0.281214
4872	-0.296878
4856	0.468015
4840	0.396871
4824	0.327777
4808	0.214219
4792	0.176978
4776	0.181555
4760	0.026988
4744	-0.064444
4728	-0.067353
4712	0.025701
4696	0.041580
4680	-0.012803
4664	0.138044
4648	0.090050
4632	0.390458
4616	0.958490
4600	0.721240
4584	-1.062488
4568	-0.214910
4552	-2.063465
4536	-0.193333
4520	2.418828
4504	15.8684
4488	0.246524
4472	0.093412
4456	-0.383019
4440	-0.258016
4424	-0.674390
4408	0.062870
4392	0.475335
4376	0.599884
4360	0.143718
4344	0.215387
4328	0.168156
4312	0.114250
4296	0.223255
4280	0.162839
4264	0.168943
4248	-0.093388
4232	-0.098085
4216	-0.070405
4200	0.306844
4184	0.502276
4168	-0.004100
4152	0.068640
4136	0.195384
4120	0.075221
4104	0.327706
4088	-0.100255
4072	0.127649
4056	0.010943
4040	0.138330
4024	-0.090169
4008	0.190925
3992	-0.209903
3976	-0.074005
3960	-0.048136
3944	0.267696
3928	0.051808
3912	-0.070428
3896	-0.051712
3880	-0.078487
3864	0.033998
3848	0.011634
3832	0.131034
3816	0.257396
3800	0.007748
3784	-0.000214
3768	0.186562
3752	0.133728
3736	0.064730
3720	0.026559
3704	0.063037
3688	0.094270
3672	-0.033688
3656	0.015187
3640	0.087046
3624	0.068879
3608	-0.010848
3592	-0.031661
3576	-0.086593
3560	0.161552
3544	0.329828
3528	-0.055003
3512	-0.076293
3496	0.069475
3480	0.107455
3464	-0.003314
3448	-0.055360
3432	0.170207
3416	0.166535
3400	-0.048708
3384	0.036358
3368	0.169396
3352	0.301408
3336	0.003910
3320	0.139570
3304	0.029397
3288	0.114369
3272	-0.139212
3256	-0.004243
3240	0.115728
3224	0.154137
3208	0.163364
3192	-0.000357
3176	0.193691
3160	0.020599
3144	0.191688
3128	-0.057673
3112	-0.048065
3096	0.110387
3080	-0.097584
3064	0.022864
3048	0.009059
3032	0.078845
3016	0.035691
3000	0.033807
2984	-0.006699
2968	0.171542
2952	0.140237
2936	0.064015
2920	0.075292
2904	-0.048565
2888	-0.008463
2872	-0.059151
2856	0.150585
2840	0.098013
2824	0.033402
2808	-0.068283
2792	0.020217
2776	0.023603
2760	0.034093
2744	0.047397
2728	0.014400
2712	0.052809
2696	0.089168
2680	0.097489
2664	-0.037312
2648	-0.053048
2632	0.060439
2616	0.102853
2600	0.047636
2584	0.057625
2568	0.018382
2552	-0.000762
2536	0.119757
2520	-0.063109
2504	0.087165
2488	0.009965
2472	0.081515
2456	0.074124
2440	0.076341
2424	-0.315165
2408	0.092601
2392	0.113439
2376	0.047898
2360	0.123667
2344	0.004482
2328	0.061774
2312	0.106620
2296	0.233864
2280	0.174355
2264	0.257706
2248	0.543785
2232	0.827193
2216	1.199316
2200	1.828694
2184	2.416586
2168	3.250265
2152	4.275178
2136	5.562925
2120	6.806015
2104	8.285093
2088	9.749579
2072	11.4637
2056	12.6262
2040	14.0826
2024	15.4071
2008	16.7804
1992	17.9494
1976	18.997
1960	20.0217
1944	20.7649
1928	21.7083
1912	22.4537
1896	22.9723
1880	23.6385
1864	24.1184
1848	24.5647
1832	24.9638
1816	25.1798
1800	25.5707
1784	25.8036
1768	25.9934
1752	26.1782
1736	26.2358
1720	26.5319
1704	26.6452
1688	26.7221
1672	26.752
1656	26.847
1640	27.1395
1624	27.0631
1608	27.0863
1592	27.1485
1576	27.0859
1560	27.116
1544	27.2456
1528	27.236
1512	27.2159
1496	27.2289
1480	27.314
1464	27.1291
1448	27.2686
1432	27.132
1416	27.187
1400	27.0607
1384	27.0592
1368	27.0925
1352	27.1534
1336	27.014
1320	26.9211
1304	26.9952
1288	26.8814
1272	26.8074
1256	26.8257
1240	26.7167
1224	26.8072
1208	26.6981
1192	26.5363
1176	26.4428
1160	26.3695
1144	26.2254
1128	26.1133
1112	26.0279
1096	25.865
1080	26.0752
1064	25.8559
1048	25.3883
1032	25.5831
1016	25.6752
1000	25.1688
984	 25.107
968	 25.1652
952	 24.7423
936	 24.7939
920	 24.5252
904	 23.9438
888	 24.0811
872	 23.9718
856	 23.3797
840	 23.7153
824	 23.3163
808	 22.7194
792	 22.953
776	 22.4633
760	 22.1396
744	 21.9239
728	 21.681
712	 21.1675
696	 20.9641
680	 20.5232
664	 20.0328
648	 20.0878
632	 19.7384
616	 19.1292
600	 19.4438
584	 18.4047
568	 18.8951
552	 18.0492
536	 17.1687
520	 16.62
504	 16.8471
488	 15.5989
472	 15.6365
456	 15.1005
440	 14.3678
424	 13.2936
408	 6.269001
392	 4.530477
376	 -46.8906
370	 -44.9725