Folder: Masteroppgave/Bakgrunnsmateriale/MATLAB/FTIR/ftir_data/LPE453/Mapping_121 (part 7)

File: LPE453_t09.asc
PE IR       SPECTRUM    SPECTRUM    ASCII       PEDS        1.60
  -1
LPE39D~1.ASC
17/05/16
15:04:55.00
17/05/16
15:05:22.00
tln
$LPE453_t0009$<tbV0>[-7.8,-13.0,8.0,0.0,27,1,0]
27.028
64

2002,4.07
MIRTGS : RIGHTBACK : INTERNAL 2
MIR : ON : INTERNAL 2
OPTKBR

0.200000
8
8.000000
FILLER
RATIO
SPECTRUM
UNLOCKED 256

DOUBLE
64
COMBINED
1
0
0

0.002000
RATIO

1
0
TRUE
51149
0
LEFT NOT FITTED RIGHT NOT FITTED 0
NONE
NONE
15600
12
4.427000
51148
TRUE
1 0 8 72 0 0 0 0

15798

#HDR
-1
-1
#GR
µM
%T
2.38419e-05
0.0
2.000000
0.002000
12515
8
38.1469
-1.697283
#DATA
2.000000	 -0.096464
2.084000	 0.069048
2.168000	 0.001825
2.252000	 -0.266595
2.336000	 0.226760
2.420000	 0.279047
2.504000	 0.164347
2.588000	 0.021215
2.672000	 0.049930
2.756000	 0.205218
2.840000	 -0.182871
2.924000	 0.033595
3.008000	 0.067354
3.092000	 0.002206
3.176000	 -0.110065
3.260000	 0.066323
3.344000	 -0.027528
3.428000	 -0.093853
3.512000	 0.051832
3.596000	 -0.015146
3.680000	 -0.043263
3.764000	 0.048104
3.848000	 -0.051587
3.932000	 -0.010917
4.016000	 0.140691
4.100000	 0.000347
4.184000	 0.075867
4.268000	 0.214543
4.352000	 0.864610
4.436000	 2.106709
4.520000	 4.308403
4.604000	 7.948189
4.688000	 12.4469
4.772000	 17.4409
4.856000	 22.35
4.940000	 25.8067
5.024000	 28.8362
5.108000	 31.168
5.192000	 32.9873
5.276000	 34.3759
5.359999	 35.3181
5.444000	 36.1054
5.528000	 36.675
5.612000	 37.0681
5.696000	 37.4207
5.780000	 37.442
5.864000	 37.8757
5.948000	 37.9679
6.032000	 37.8983
6.116000	 37.9833
6.200000	 37.7855
6.284000	 37.7209
6.368000	 37.8233
6.452000	 37.7062
6.536000	 37.7956
6.620000	 37.9171
6.704000	 37.5309
6.788000	 37.6144
6.872000	 37.5605
6.956000	 37.3765
7.040000	 37.2414
7.124000	 37.329
7.208000	 37.3359
7.292000	 36.8999
7.376000	 36.9908
7.460000	 37.3331
7.544000	 36.966
7.628000	 36.6179
7.712000	 36.5869
7.796000	 36.8486
7.880000	 36.8165
7.964000	 36.4103
8.048000	 36.163
8.132000	 36.547
8.216000	 36.7277
8.300000	 36.5292
8.384000	 36.1819
8.468000	 36.0398
8.552000	 35.9867
8.635999	 36.4134
8.719999	 36.1632
8.804000	 36.0273
8.888000	 35.7256
8.972000	 35.4667
9.056000	 36.0449
9.140000	 36.2139
9.224000	 36.0878
9.308000	 35.7771
9.391999	 35.2596
9.475999	 34.8204
9.560000	 35.2332
9.644000	 35.5674
9.728000	 35.6909
9.812000	 35.4479
9.896000	 35.587
9.980000	 34.879
10.064	34.8587
10.148	34.8866
10.232	34.7102
10.316	35.3398
10.4	35.43
10.484	35.1636
10.568	34.8158
10.652	34.6043
10.736	34.23
10.82	34.1207
10.904	34.6803
10.988	34.8408
11.072	34.6729
11.156	34.3296
11.24	34.2185
11.324	34.248
11.408	33.9467
11.492	33.7918
11.576	33.9045
11.66	33.9767
11.744	34.1222
11.828	34.4242
11.912	34.5001
11.996	34.1666
12.08	33.874
12.164	33.5855
12.248	33.4179
12.332	33.0866
12.416	32.8009
12.5	32.7891
12.584	33.1618
12.668	33.5852
12.752	33.5949
12.836	33.3958
12.92	33.3357
13.004	33.3248
13.088	33.181
13.172	32.9833
13.256	32.6258
13.34	32.2614
13.424	32.0215
13.508	31.9048
13.592	32.0706
13.676	32.3885
13.76	32.645
13.844	32.9671
13.928	33.2472
14.012	33.2365
14.096	33.0289
14.18	32.8511
14.264	32.5106
14.348	32.1102
14.432	31.8446
14.516	31.657
14.6	31.5719
14.684	31.5178
14.768	31.491
14.852	31.5592
14.936	31.6582
15.02	31.7155
15.104	31.7301
15.188	31.8171
15.272	31.9879
15.356	32.0175
15.44	31.8274
15.524	31.5994
15.608	31.3247
15.692	30.8592
15.776	30.3329
15.86	30.0005
15.944	29.934
16.028	30.0397
16.112	30.1816
16.196	30.2536
16.28	30.225
16.364	30.1247
16.448	29.9932
16.532	29.9599
16.616	30.1576
16.7	30.5198
16.784	30.8454
16.868	31.0117
16.952	31.0579
17.036	31.0654
17.12	31.0047
17.204	30.7812
17.288	30.4374
17.372	30.1014
17.456	29.8046
17.54	29.5248
17.624	29.285
17.708	29.1215
17.792	29.0587
17.876	29.1025
17.96	29.1859
18.044	29.2054
18.128	29.1684
18.212	29.1664
18.296	29.1792
18.38	29.0659
18.464	28.791
18.548	28.5267
18.632	28.4669
18.716	28.6332
18.8	28.8883
18.884	29.0706
18.968	29.0859
19.052	28.9448
19.136	28.7455
19.22	28.6033
19.304	28.5664
19.388	28.6115
19.472	28.6899
19.556	28.7484
19.64	28.7144
19.724	28.5179
19.808	28.1746
19.892	27.7874
19.976	27.4477
20.06	27.1357
20.144	26.7898
20.228	26.463
20.312	26.3409
20.396	26.5486
20.48	26.9618
20.564	27.2708
20.648	27.2729
20.732	27.0693
20.816	26.9677
20.9	27.1841
20.984	27.6665
21.068	28.1891
21.152	28.5742
21.236	28.8172
21.32	29.0102
21.404	29.1882
21.488	29.2761
21.572	29.1787
21.656	28.8864
21.74	28.4853
21.824	28.0876
21.908	27.7414
21.992	27.4249
22.076	27.1184
22.16	26.8616
22.244	26.7457
22.328	26.8344
22.412	27.0925
22.496	27.3667
22.58	27.4859
22.664	27.3512
22.748	26.9932
22.832	26.5356
22.916	26.1024
23	25.7404
23.084	25.4053
23.168	25.0172
23.252	24.5443
23.336	24.0357
23.42	23.6733
23.504	23.6581
23.588	24.077
23.672	24.8462
23.756	25.7318
23.84	26.4466
23.924	26.7771
24.008	26.6455
24.092	26.094
24.176	25.2438
24.26	24.2455
24.344	23.2597
24.428	22.4068
24.512	21.7695
24.596	21.3203
24.68	20.817
24.764	19.8213
24.848	17.9048
24.932	14.8979
25.016	11.1196
25.1	7.325399
25.184	4.536849
25.268	3.579288
25.352	4.760806
25.436	7.812522
25.52	11.9878
25.604	16.4013
25.688	20.2052
25.772	22.8077
25.856	23.9402
25.94	23.6444
26.024	22.1635
26.108	19.8143
26.192	17.0385
26.276	14.3453
26.36	12.2601
26.444	11.2172
26.528	11.4425
26.612	12.8807
26.696	15.185
26.78	17.7818
26.864	20.068
26.948	21.5666
27.028	21.9832

File: LPE453_t09_cm-1.asc
PE IR       SPECTRUM    SPECTRUM    ASCII       PEDS        1.60
  -1
LP67D9~1.ASC
17/05/16
15:04:55.00
17/05/16
15:04:55.00
tln
$LPE453_t0009$<tbV0>[-7.8,-13.0,8.0,0.0,27,1,0]
370
64

2002,4.07
MIRTGS : RIGHTBACK : INTERNAL 2
MIR : ON : INTERNAL 2
OPTKBR

0.200000
8
8.000000
FILLER
RATIO
SPECTRUM
UNLOCKED 256

DOUBLE
64
COMBINED
1
0
0

1.000000
RATIO

1
0
TRUE
51149
0
LEFT NOT FITTED RIGHT NOT FITTED 0
NONE
NONE
15600
12
4.427000
51148
TRUE
1 0 8 72 0 0 0 0

15798

#HDR
-1
-1
#GR
CM-1
%T
2.38419e-05
0.0
5000
-1.000000
4631
8
38.1472
-1.706743
#DATA
5000	-0.096464
4984	0.118970
4968	0.667619
4952	0.421261
4936	0.447058
4920	-0.253796
4904	0.271224
4888	0.493097
4872	0.174999
4856	0.554227
4840	0.502204
4824	0.081753
4808	0.404334
4792	0.153255
4776	-0.186634
4760	0.303769
4744	-0.143504
4728	0.104641
4712	-0.193309
4696	0.049400
4680	0.293016
4664	0.169825
4648	0.642323
4632	-0.086355
4616	0.268793
4600	0.071167
4584	-1.084733
4568	0.355267
4552	-1.623296
4536	0.052809
4520	11.5178
4504	1.736140
4488	-0.873208
4472	-0.004220
4456	-0.865268
4440	-0.290083
4424	0.010251
4408	0.210595
4392	0.235104
4376	0.021290
4360	0.292205
4344	-0.009942
4328	0.334858
4312	0.130867
4296	-0.115108
4280	0.238871
4264	-0.344967
4248	0.407624
4232	0.114989
4216	0.109648
4200	-0.086903
4184	0.405287
4168	1.219272
4152	0.289869
4136	0.193810
4120	0.182533
4104	-0.051784
4088	0.061702
4072	0.217485
4056	0.072646
4040	0.138831
4024	0.023031
4008	0.210046
3992	0.214958
3976	0.034737
3960	-0.080800
3944	0.122022
3928	-0.008654
3912	0.247907
3896	0.087618
3880	-0.074338
3864	0.021028
3848	0.076198
3832	0.195884
3816	-0.042533
3800	0.071525
3784	0.157618
3768	0.062918
3752	0.196337
3736	0.085735
3720	0.037956
3704	0.182700
3688	0.087237
3672	-0.022578
3656	0.044631
3640	-0.022292
3624	0.100255
3608	0.049257
3592	0.051999
3576	0.272822
3560	-0.166583
3544	-0.099587
3528	0.045323
3512	0.041723
3496	-0.063586
3480	0.261735
3464	0.223612
3448	0.102186
3432	0.014257
3416	0.080585
3400	-0.149965
3384	0.112557
3368	0.037360
3352	-0.076961
3336	-0.004076
3320	0.174093
3304	0.032496
3288	0.096416
3272	-0.089526
3256	0.065088
3240	-0.018787
3224	0.095844
3208	0.246596
3192	-0.048613
3176	0.015664
3160	0.022864
3144	-0.046014
3128	0.285649
3112	0.035762
3096	0.056242
3080	-0.060606
3064	0.085926
3048	-0.020837
3032	-0.005841
3016	0.114059
3000	0.105357
2984	0.003004
2968	0.216531
2952	-0.001955
2936	0.146627
2920	-0.010204
2904	0.125575
2888	0.010061
2872	0.050902
2856	0.062179
2840	0.018620
2824	0.042605
2808	-0.027108
2792	0.042724
2776	-0.006723
2760	0.018882
2744	0.028133
2728	0.090885
2712	-0.043463
2696	0.069308
2680	0.040769
2664	-0.000643
2648	0.038409
2632	0.036978
2616	0.065708
2600	-0.061702
2584	0.047516
2568	-0.104951
2552	-0.058412
2536	-0.080633
2520	0.061941
2504	-0.083875
2488	0.081753
2472	0.109934
2456	0.012731
2440	0.010347
2424	-0.173830
2408	-0.036406
2392	0.075960
2376	0.033688
2360	0.228047
2344	0.190258
2328	0.452470
2312	0.534033
2296	0.871872
2280	1.201462
2264	1.564574
2248	2.406930
2232	3.045058
2216	4.123854
2200	5.307531
2184	6.762456
2168	8.333277
2152	10.203
2136	12.156
2120	14.3184
2104	16.2959
2088	18.511
2072	20.5964
2056	22.6922
2040	24.2073
2024	25.8349
2008	27.355
1992	28.6854
1976	29.9467
1960	31.0416
1944	32.0105
1928	32.8737
1912	33.6236
1896	34.351
1880	34.8243
1864	35.3562
1848	35.6868
1832	36.2492
1816	36.5595
1800	36.7104
1784	37.0586
1768	37.251
1752	37.4326
1736	37.4781
1720	37.384
1704	37.9359
1688	37.9308
1672	37.7833
1656	38.0188
1640	37.9681
1624	37.8754
1608	37.6175
1592	37.7081
1576	37.9074
1560	37.9469
1544	37.8748
1528	37.7596
1512	37.8849
1496	37.4909
1480	37.4362
1464	37.7219
1448	37.3014
1432	37.1243
1416	37.2372
1400	37.4295
1384	37.2596
1368	36.9306
1352	37.0072
1336	37.1898
1320	36.7178
1304	36.59
1288	36.6999
1272	36.9407
1256	36.4159
1240	36.1247
1224	36.6571
1208	36.6331
1192	36.1581
1176	36.0295
1160	36.4014
1144	36.124
1128	35.6903
1112	35.4673
1096	36.2046
1080	36.0596
1064	35.2213
1048	35.1353
1032	35.7659
1016	35.602
1000	34.7984
984	 34.7753
968	 35.3817
952	 35.0541
936	 34.4989
920	 34.428
904	 34.7168
888	 34.2268
872	 33.7667
856	 34.012
840	 34.5153
824	 33.6796
808	 32.9009
792	 33.4111
776	 33.3379
760	 33.0256
744	 31.9851
728	 32.5707
712	 33.1577
696	 32.0366
680	 31.5036
664	 31.7224
648	 31.8496
632	 30.1139
616	 30.2518
600	 30.3691
584	 30.9993
568	 29.3322
552	 29.1733
536	 28.4964
520	 28.5925
504	 28.0191
488	 27.0183
472	 28.686
456	 27.6578
440	 27.0962
424	 24.0546
408	 21.7835
392	 11.4767
376	 12.5228
370	 21.9832

File: LPE453_t10.asc
PE IR       SPECTRUM    SPECTRUM    ASCII       PEDS        1.60
  -1
LPC799~1.ASC
17/05/16
15:09:32.00
17/05/16
15:09:58.00
tln
$LPE453_t0010$<tbV0>[-10.4,-13.0,8.0,0.0,27,1,0]
27.028
64

2002,4.07
MIRTGS : RIGHTBACK : INTERNAL 2
MIR : ON : INTERNAL 2
OPTKBR

0.200000
8
8.000000
FILLER
RATIO
SPECTRUM
UNLOCKED 256

DOUBLE
64
COMBINED
1
0
0

0.002000
RATIO

1
0
TRUE
51149
0
LEFT NOT FITTED RIGHT NOT FITTED 0
NONE
NONE
15600
12
4.427000
51148
TRUE
1 0 8 72 0 0 0 0

15798

#HDR
-1
-1
#GR
µM
%T
2.38419e-05
0.0
2.000000
0.002000
12515
8
70.5062
-5.079082
#DATA
2.000000	 0.144243
2.084000	 0.242383
2.168000	 0.124940
2.252000	 0.865677
2.336000	 0.019193
2.420000	 0.088918
2.504000	 0.302428
2.588000	 -0.012234
2.672000	 0.106141
2.756000	 0.011160
2.840000	 -0.011990
2.924000	 -0.019573
3.008000	 0.057955
3.092000	 -0.067114
3.176000	 0.081658
3.260000	 0.076719
3.344000	 0.081776
3.428000	 -0.098242
3.512000	 -0.014047
3.596000	 -0.026517
3.680000	 -0.039061
3.764000	 0.052244
3.848000	 -0.030232
3.932000	 0.097603
4.016000	 -0.094753
4.100000	 -0.019621
4.184000	 0.204947
4.268000	 0.188180
4.352000	 0.669905
4.436000	 1.431029
4.520000	 3.274407
4.604000	 6.295579
4.688000	 10.3056
4.772000	 14.5529
4.856000	 18.797
4.940000	 22.3094
5.024000	 25.1456
5.108000	 27.2878
5.192000	 29.0411
5.276000	 30.3666
5.359999	 31.3542
5.444000	 32.1142
5.528000	 32.897
5.612000	 33.4371
5.696000	 33.7367
5.780000	 34.3362
5.864000	 34.343
5.948000	 34.7679
6.032000	 34.8488
6.116000	 34.9154
6.200000	 35.1256
6.284000	 34.8128
6.368000	 35.1281
6.452000	 35.1959
6.536000	 35.0212
6.620000	 35.3971
6.704000	 35.1326
6.788000	 35.0986
6.872000	 35.1108
6.956000	 34.9676
7.040000	 35.0593
7.124000	 35.0336
7.208000	 35.0939
7.292000	 34.7198
7.376000	 34.6739
7.460000	 34.8937
7.544000	 34.7432
7.628000	 34.5131
7.712000	 34.4095
7.796000	 34.5009
7.880000	 34.398
7.964000	 34.1439
8.048000	 34.0755
8.132000	 34.1805
8.216000	 34.104
8.300000	 34.0408
8.384000	 33.8187
8.468000	 33.6657
8.552000	 33.8523
8.635999	 33.7322
8.719999	 33.5577
8.804000	 33.2994
8.888000	 33.1858
8.972000	 33.3298
9.056000	 33.8322
9.140000	 33.5236
9.224000	 33.0373
9.308000	 32.8228
9.391999	 32.8022
9.475999	 32.952
9.560000	 32.7596
9.644000	 32.9209
9.728000	 32.6098
9.812000	 32.1373
9.896000	 32.0138
9.980000	 32.1689
10.064	32.3333
10.148	32.573
10.232	32.5506
10.316	32.315
10.4	31.8775
10.484	31.726
10.568	31.9032
10.652	31.7499
10.736	31.7951
10.82	31.964
10.904	31.8165
10.988	31.4906
11.072	31.2013
11.156	31.1129
11.24	31.0609
11.324	31.2036
11.408	31.1121
11.492	31.0201
11.576	31.3074
11.66	31.1187
11.744	30.9209
11.828	30.7007
11.912	30.4667
11.996	30.1808
12.08	30.1313
12.164	30.2579
12.248	30.3354
12.332	30.6131
12.416	30.6372
12.5	30.6593
12.584	30.7384
12.668	30.5703
12.752	30.0652
12.836	29.5517
12.92	29.3856
13.004	29.5284
13.088	29.6277
13.172	29.6305
13.256	29.6668
13.34	29.8987
13.424	29.642
13.508	29.3785
13.592	29.6508
13.676	29.7054
13.76	29.5852
13.844	29.3209
13.928	28.9211
14.012	28.6208
14.096	28.526
14.18	28.5072
14.264	28.3517
14.348	28.2228
14.432	28.3833
14.516	28.7603
14.6	28.9197
14.684	28.7372
14.768	28.583
14.852	28.5307
14.936	28.4301
15.02	28.3125
15.104	28.1489
15.188	27.8938
15.272	27.724
15.356	27.6472
15.44	27.4477
15.524	27.1584
15.608	27.0251
15.692	27.1412
15.776	27.3437
15.86	27.4554
15.944	27.4763
16.028	27.5157
16.112	27.5957
16.196	27.6563
16.28	27.665
16.364	27.5623
16.448	27.2964
16.532	26.9629
16.616	26.7011
16.7	26.5361
16.784	26.4168
16.868	26.2896
16.952	26.191
17.036	26.2566
17.12	26.5206
17.204	26.8067
17.288	26.9207
17.372	26.8395
17.456	26.6699
17.54	26.5313
17.624	26.4866
17.708	26.5277
17.792	26.5974
17.876	26.6071
17.96	26.4897
18.044	26.2735
18.128	26.0649
18.212	25.9012
18.296	25.6758
18.38	25.2837
18.464	24.8079
18.548	24.4741
18.632	24.4258
18.716	24.6124
18.8	24.8892
18.884	25.1536
18.968	25.3661
19.052	25.5281
19.136	25.6658
19.22	25.8084
19.304	25.9391
19.388	25.9883
19.472	25.9036
19.556	25.7264
19.64	25.5668
19.724	25.4914
19.808	25.4589
19.892	25.3784
19.976	25.2055
20.06	24.9675
20.144	24.6997
20.228	24.4088
20.312	24.1109
20.396	23.8776
20.48	23.8117
20.564	23.9392
20.648	24.1512
20.732	24.2644
20.816	24.1635
20.9	23.8848
20.984	23.5658
21.068	23.3435
21.152	23.2881
21.236	23.42
21.32	23.7404
21.404	24.21
21.488	24.7073
21.572	25.0451
21.656	25.0638
21.74	24.7369
21.824	24.1975
21.908	23.6535
21.992	23.2692
22.076	23.1125
22.16	23.173
22.244	23.4246
22.328	23.8379
22.412	24.3414
22.496	24.78
22.58	24.9777
22.664	24.8307
22.748	24.3789
22.832	23.7865
22.916	23.2802
23	23.0258
23.084	23.0623
23.168	23.276
23.252	23.4706
23.336	23.4613
23.42	23.17
23.504	22.682
23.588	22.1941
23.672	21.8802
23.756	21.7863
23.84	21.7887
23.924	21.6692
24.008	21.2679
24.092	20.6314
24.176	20.0852
24.26	20.0225
24.344	20.7301
24.428	22.2145
24.512	24.1851
24.596	26.1565
24.68	27.6926
24.764	28.6471
24.848	29.2187
24.932	29.8483
25.016	30.9373
25.1	32.5791
25.184	34.5544
25.268	36.4262
25.352	37.7394
25.436	38.2003
25.52	37.8783
25.604	37.2175
25.688	37.2172
25.772	39.0912
25.856	43.6522
25.94	50.7194
26.024	58.9143
26.108	66.0528
26.192	70.0787
26.276	69.8289
26.36	65.6184
26.444	58.8177
26.528	51.1932
26.612	44.2238
26.696	38.7485
26.78	34.8571
26.864	32.0694
26.948	29.6984
27.028	27.4046

File: LPE453_t10_cm-1.asc
PE IR       SPECTRUM    SPECTRUM    ASCII       PEDS        1.60
  -1
LPD755~1.ASC
17/05/16
15:09:32.00
17/05/16
15:09:32.00
tln
$LPE453_t0010$<tbV0>[-10.4,-13.0,8.0,0.0,27,1,0]
370
64

2002,4.07
MIRTGS : RIGHTBACK : INTERNAL 2
MIR : ON : INTERNAL 2
OPTKBR

0.200000
8
8.000000
FILLER
RATIO
SPECTRUM
UNLOCKED 256

DOUBLE
64
COMBINED
1
0
0

1.000000
RATIO

1
0
TRUE
51149
0
LEFT NOT FITTED RIGHT NOT FITTED 0
NONE
NONE
15600
12
4.427000
51148
TRUE
1 0 8 72 0 0 0 0

15798

#HDR
-1
-1
#GR
CM-1
%T
2.38419e-05
0.0
5000
-1.000000
4631
8
70.4176
-5.533123
#DATA
5000	0.144243
4984	0.025725
4968	0.722980
4952	0.019359
4936	0.353765
4920	-0.108551
4904	0.156784
4888	0.504899
4872	0.716233
4856	0.150489
4840	0.181508
4824	-0.180888
4808	0.084996
4792	0.261521
4776	-0.018334
4760	0.214934
4744	0.057387
4728	0.068068
4712	0.111365
4696	0.076603
4680	0.035738
4664	-0.091838
4648	0.516557
4632	0.579786
4616	-0.050258
4600	0.244927
4584	0.882601
4568	0.503706
4552	-0.413131
4536	0.543856
4520	-4.322266
4504	4.223012
4488	-0.950694
4472	0.962138
4456	0.387072
4440	0.892186
4424	0.346088
4408	0.431585
4392	0.405693
4376	0.331425
4360	0.120139
4344	0.269150
4328	-0.340962
4312	-0.270223
4296	0.125193
4280	0.047802
4264	0.189185
4248	0.412034
4232	-0.264573
4216	-0.219964
4200	0.134205
4184	0.755167
4168	0.886654
4152	0.086474
4136	-0.127673
4120	0.046730
4104	0.209999
4088	0.075435
4072	-0.034475
4056	0.128364
4040	0.024795
4024	0.085020
4008	0.149130
3992	0.309443
3976	-0.041270
3960	0.158953
3944	0.134611
3928	-0.014972
3912	0.162410
3896	0.054311
3880	-0.020718
3864	-0.012397
3848	0.272536
3832	0.215387
3816	0.055432
3800	0.072336
3784	0.089645
3768	0.037193
3752	0.048947
3736	0.235295
3720	0.078725
3704	0.072741
3688	0.124812
3672	0.119972
3656	0.047802
3640	0.066161
3624	0.030899
3608	0.015020
3592	0.208139
3576	0.083684
3560	-0.089788
3544	0.152206
3528	0.136566
3512	-0.152015
3496	0.064826
3480	-0.080204
3464	-0.118041
3448	0.139856
3432	0.050163
3416	-0.032758
3400	0.084328
3384	-0.080275
3368	0.036764
3352	0.026988
3336	0.110816
3320	0.012254
3304	0.097918
3288	0.133132
3272	-0.015974
3256	0.101733
3240	-0.149130
3224	0.215649
3208	0.093603
3192	0.189709
3176	0.103378
3160	0.119471
3144	0.234079
3128	0.004601
3112	0.000500
3096	0.029897
3080	0.085830
3064	0.037837
3048	0.096344
3032	0.075292
3016	-0.033330
3000	0.012516
2984	0.081086
2968	0.030112
2952	0.096774
2936	0.039529
2920	-0.036644
2904	0.015234
2888	-0.000047
2872	0.124120
2856	0.038862
2840	-0.058364
2824	0.109386
2808	0.025200
2792	0.078487
2776	0.002336
2760	-0.000786
2744	0.044751
2728	-0.077152
2712	0.064611
2696	0.053620
2680	0.040483
2664	0.082659
2648	-0.008940
2632	0.091958
2616	-0.031399
2600	-0.044298
2584	0.075840
2568	-0.002288
2552	0.054907
2536	0.075292
2520	0.113272
2504	0.179409
2488	-0.147366
2472	0.042176
2456	0.139808
2440	-0.018191
2424	0.119805
2408	0.045013
2392	0.214743
2376	0.133657
2360	0.078248
2344	0.178146
2328	0.296521
2312	0.405740
2296	0.680875
2280	0.809311
2264	1.188492
2248	1.587677
2232	2.251005
2216	3.070425
2200	4.196882
2184	5.300664
2168	6.597399
2152	8.212733
2136	9.921073
2120	11.7507
2104	13.496
2088	15.5481
2072	17.3254
2056	19.1222
2040	20.6723
2024	22.3365
2008	23.6115
1992	25.0799
1976	26.0363
1960	27.1373
1944	28.1457
1928	28.9668
1912	29.6067
1896	30.3266
1880	30.8051
1864	31.4134
1848	31.8355
1832	32.2665
1816	32.7017
1800	33.0656
1784	33.3913
1768	33.6319
1752	33.8401
1736	34.2036
1720	34.3765
1704	34.368
1688	34.5592
1672	34.7635
1656	34.9427
1640	34.7967
1624	34.9904
1608	34.8913
1592	34.8206
1576	35.2281
1560	35.4491
1544	35.229
1528	35.0731
1512	35.3814
1496	35.139
1480	35.0036
1464	35.1069
1448	35.0709
1432	34.8088
1416	35.0436
1400	35.0422
1384	35.0384
1368	34.6908
1352	34.7494
1336	34.9988
1320	34.7135
1304	34.4674
1288	34.3973
1272	34.4444
1256	34.1423
1240	34.0805
1224	34.1485
1208	34.1106
1192	33.8118
1176	33.7187
1160	33.7925
1144	33.518
1128	33.1444
1112	33.3868
1096	33.5865
1080	32.8829
1064	32.8206
1048	32.8192
1032	32.7899
1016	32.1933
1000	32.2815
984	 32.6068
968	 32.2354
952	 31.7972
936	 31.7719
920	 31.9172
904	 31.2255
888	 31.0904
872	 30.9736
856	 31.0481
840	 30.4841
824	 30.2418
808	 30.6544
792	 30.7075
776	 29.3916
760	 29.6384
744	 29.5458
728	 29.6257
712	 28.5592
696	 28.2301
680	 28.6818
664	 28.2477
648	 27.4734
632	 27.4216
616	 27.6684
600	 26.5926
584	 26.5328
568	 26.4878
552	 26.0913
536	 24.4625
520	 25.8267
504	 25.4372
488	 23.8188
472	 23.3191
456	 23.5335
440	 24.5118
424	 22.2095
408	 24.1323
392	 37.944
376	 45.4628
370	 27.4046

File: LPE453_t11.asc
PE IR       SPECTRUM    SPECTRUM    ASCII       PEDS        1.60
  -1
LPC79D~1.ASC
17/05/16
15:14:09.00
17/05/16
15:14:35.00
tln
$LPE453_t0011$<tbV0>[-13.0,-13.0,8.0,0.0,27,1,0]
27.028
64

2002,4.07
MIRTGS : RIGHTBACK : INTERNAL 2
MIR : ON : INTERNAL 2
OPTKBR

0.200000
8
8.000000
FILLER
RATIO
SPECTRUM
UNLOCKED 256

DOUBLE
64
COMBINED
1
0
0

0.002000
RATIO

1
0
TRUE
51149
0
LEFT NOT FITTED RIGHT NOT FITTED 0
NONE
NONE
15600
12
4.427000
51148
TRUE
1 0 8 72 0 0 0 0

15798

#HDR
-1
-1
#GR
µM
%T
2.38419e-05
0.0
2.000000
0.002000
12515
8
37.5073
-10.7721
#DATA
2.000000	 0.407242
2.084000	 0.016042
2.168000	 0.311468
2.252000	 -0.554665
2.336000	 -0.134270
2.420000	 -0.028442
2.504000	 0.186372
2.588000	 -0.044579
2.672000	 0.110160
2.756000	 0.050028
2.840000	 -0.026376
2.924000	 -0.005451
3.008000	 0.073616
3.092000	 -0.036840
3.176000	 0.115239
3.260000	 0.101456
3.344000	 0.049767
3.428000	 0.055003
3.512000	 -0.088854
3.596000	 0.009909
3.680000	 0.108346
3.764000	 -0.131356
3.848000	 0.075206
3.932000	 0.101201
4.016000	 0.149952
4.100000	 0.231736
4.184000	 0.038025
4.268000	 0.122523
4.352000	 0.244393
4.436000	 0.767030
4.520000	 1.622134
4.604000	 3.195386
4.688000	 5.339720
4.772000	 8.062621
4.856000	 10.2777
4.940000	 12.6069
5.024000	 14.4508
5.108000	 15.8791
5.192000	 16.6832
5.276000	 17.5052
5.359999	 18.0516
5.444000	 18.5446
5.528000	 19.0694
5.612000	 19.4218
5.696000	 19.5986
5.780000	 20
5.864000	 20.1015
5.948000	 20.2257
6.032000	 20.2779
6.116000	 20.4257
6.200000	 20.3493
6.284000	 20.736
6.368000	 20.7865
6.452000	 20.867
6.536000	 21.0769
6.620000	 21.2611
6.704000	 21.1648
6.788000	 21.3191
6.872000	 21.0362
6.956000	 21.2158
7.040000	 21.2637
7.124000	 21.3304
7.208000	 21.1479
7.292000	 20.9894
7.376000	 21.2474
7.460000	 21.3951
7.544000	 21.7273
7.628000	 21.9666
7.712000	 22.2091
7.796000	 22.1176
7.880000	 22.2901
7.964000	 22.6305
8.048000	 22.7093
8.132000	 22.337
8.216000	 22.6004
8.300000	 22.6584
8.384000	 22.6659
8.468000	 22.6729
8.552000	 22.5575
8.635999	 22.6647
8.719999	 22.8235
8.804000	 22.9792
8.888000	 22.8176
8.972000	 22.7592
9.056000	 22.4108
9.140000	 22.5058
9.224000	 22.7536
9.308000	 22.6573
9.391999	 22.5539
9.475999	 22.6863
9.560000	 22.6552
9.644000	 22.7652
9.728000	 22.8373
9.812000	 22.9149
9.896000	 22.765
9.980000	 22.7199
10.064	22.845
10.148	23.0053
10.232	23.097
10.316	22.8216
10.4	22.5395
10.484	22.4189
10.568	22.4248
10.652	22.5313
10.736	22.517
10.82	22.6328
10.904	22.6227
10.988	22.5771
11.072	22.346
11.156	21.9792
11.24	21.9878
11.324	22.0565
11.408	22.3108
11.492	22.2239
11.576	22.2868
11.66	22.482
11.744	22.3524
11.828	22.1104
11.912	21.8952
11.996	22.0796
12.08	22.133
12.164	21.9859
12.248	21.921
12.332	21.9945
12.416	21.9606
12.5	21.8823
12.584	21.7636
12.668	21.807
12.752	21.7237
12.836	21.5687
12.92	21.6373
13.004	21.7196
13.088	21.8072
13.172	22.049
13.256	22.1796
13.34	22.1388
13.424	21.5936
13.508	21.271
13.592	21.6439
13.676	21.7679
13.76	21.4198
13.844	21.2276
13.928	21.3362
14.012	21.3054
14.096	21.2226
14.18	21.2264
14.264	21.2162
14.348	20.9646
14.432	20.6756
14.516	20.743
14.6	20.8614
14.684	20.8928
14.768	21.0342
14.852	21.1371
14.936	21.0228
15.02	20.6702
15.104	20.3128
15.188	20.1963
15.272	20.2364
15.356	20.3622
15.44	20.5517
15.524	20.5942
15.608	20.5
15.692	20.6325
15.776	20.9934
15.86	21.1636
15.944	20.9925
16.028	20.688
16.112	20.4465
16.196	20.3194
16.28	20.2557
16.364	20.2015
16.448	20.1563
16.532	20.1478
16.616	20.1721
16.7	20.2065
16.784	20.2686
16.868	20.3801
16.952	20.4528
17.036	20.3607
17.12	20.1281
17.204	19.9359
17.288	19.9328
17.372	20.0428
17.456	20.0208
17.54	19.7521
17.624	19.4198
17.708	19.2623
17.792	19.2875
17.876	19.3308
17.96	19.3007
18.044	19.2376
18.128	19.2177
18.212	19.2864
18.296	19.4356
18.38	19.5777
18.464	19.6027
18.548	19.5009
18.632	19.3858
18.716	19.3764
18.8	19.4901
18.884	19.6487
18.968	19.7404
19.052	19.677
19.136	19.4586
19.22	19.2023
19.304	19.0596
19.388	19.0792
19.472	19.1713
19.556	19.2032
19.64	19.1198
19.724	18.9572
19.808	18.783
19.892	18.6458
19.976	18.5779
20.06	18.5951
20.144	18.6812
20.228	18.7738
20.312	18.7845
20.396	18.653
20.48	18.39
20.564	18.0835
20.648	17.8583
20.732	17.8121
20.816	17.9729
20.9	18.2867
20.984	18.6528
21.068	18.9701
21.152	19.1752
21.236	19.2417
21.32	19.1811
21.404	19.0299
21.488	18.8588
21.572	18.751
21.656	18.7644
21.74	18.8875
21.824	19.0285
21.908	19.0691
21.992	18.9459
22.076	18.6922
22.16	18.408
22.244	18.1623
22.328	17.939
22.412	17.6124
22.496	17.0572
22.58	16.2392
22.664	15.2466
22.748	14.269
22.832	13.4682
22.916	12.9291
23	12.6278
23.084	12.4897
23.168	12.4304
23.252	12.3941
23.336	12.3583
23.42	12.348
23.504	12.4032
23.588	12.6707
23.672	13.3897
23.756	14.7803
23.84	16.9801
23.924	19.9248
24.008	23.3221
24.092	26.7134
24.176	29.6244
24.26	31.7088
24.344	32.8052
24.428	32.9963
24.512	32.6019
24.596	32.027
24.68	31.631
24.764	31.5921
24.848	31.8451
24.932	31.9549
25.016	31.2366
25.1	29.0096
25.184	24.8625
25.268	18.9612
25.352	12.0321
25.436	5.237964
25.52	-0.210471
25.604	-3.436568
25.688	-3.947935
25.772	-1.840661
25.856	2.209161
25.94	7.028828
26.024	11.1226
26.108	13.1041
26.192	12.2096
26.276	8.542243
26.36	3.069045
26.444	-2.732494
26.528	-7.436645
26.612	-10.1602
26.696	-10.7208
26.78	-9.612358
26.864	-7.652484
26.948	-5.646537
27.028	-4.255723