Folder: Masteroppgave/Bakgrunnsmateriale/MATLAB/FTIR/ftir_data/LPE453/Mapping_121 (part 44)

File: LPE453_t101_cm-1.asc
PE IR       SPECTRUM    SPECTRUM    ASCII       PEDS        1.60
  -1
LP0478~1.ASC
17/05/16
22:39:33.00
17/05/16
22:39:33.00
tln
$LPE453_t0101$<tbV0>[10.4,10.4,8.0,0.0,27,1,0]
370
64

2002,4.07
MIRTGS : RIGHTBACK : INTERNAL 2
MIR : ON : INTERNAL 2
OPTKBR

0.200000
8
8.000000
FILLER
RATIO
SPECTRUM
UNLOCKED 256

DOUBLE
64
COMBINED
1
0
0

1.000000
RATIO

1
0
TRUE
51149
0
LEFT NOT FITTED RIGHT NOT FITTED 0
NONE
NONE
15600
12
4.427000
51148
TRUE
1 0 8 72 0 0 0 0

15798

#HDR
-1
-1
#GR
CM-1
%T
2.38419e-05
0.0
5000
-1.000000
4631
8
30.1195
-1.157712
#DATA
5000	0.232505
4984	0.348591
4968	-0.320482
4952	-0.416684
4936	-0.190854
4920	0.011992
4904	-0.177168
4888	0.012183
4872	0.293374
4856	0.353360
4840	0.577402
4824	0.071525
4808	0.056266
4792	-0.124955
4776	0.639748
4760	0.195050
4744	0.096321
4728	0.484299
4712	-0.261449
4696	-0.206351
4680	1.367402
4664	0.799536
4648	0.621843
4632	1.191115
4616	0.408577
4600	1.204204
4584	0.022697
4568	-0.608777
4552	-0.775408
4536	-0.796675
4520	-0.893902
4504	2.284622
4488	6.577563
4472	1.161646
4456	-0.659203
4440	0.088429
4424	-0.108265
4408	-0.189304
4392	-0.115442
4376	0.267171
4360	0.285553
4344	0.321817
4328	-0.195240
4312	0.268769
4296	0.119471
4280	-0.284719
4264	0.316047
4248	0.195622
4232	0.274276
4216	0.251960
4200	-0.021314
4184	0.175642
4168	-0.105571
4152	0.285291
4136	0.110721
4120	0.021100
4104	0.181508
4088	-0.110220
4072	0.250720
4056	0.027751
4040	-0.113081
4024	0.242781
4008	-0.003123
3992	0.305891
3976	0.028347
3960	0.038576
3944	0.102663
3928	-0.054621
3912	0.109004
3896	0.096797
3880	-0.007963
3864	0.060224
3848	0.055456
3832	0.078773
3816	0.086855
3800	-0.026106
3784	0.063753
3768	-0.006103
3752	0.014400
3736	-0.009894
3720	0.051283
3704	0.055742
3688	-0.069141
3672	0.016641
3656	0.120401
3640	0.247550
3624	0.096869
3608	0.201201
3592	0.024724
3576	0.019931
3560	0.147366
3544	0.068759
3528	-0.077128
3512	0.189900
3496	-0.009870
3480	-0.104570
3464	0.179934
3448	0.019192
3432	0.124979
3416	0.139164
3400	-0.122261
3384	0.120282
3368	-0.002074
3352	-0.085949
3336	-0.038743
3320	0.037431
3304	0.076818
3288	0.015306
3272	0.031137
3256	0.101494
3240	-0.057196
3224	0.018334
3208	-0.108647
3192	0.126910
3176	0.041437
3160	-0.010538
3144	0.143218
3128	-0.057101
3112	-0.006651
3096	0.027966
3080	0.152254
3064	-0.023579
3048	0.111269
3032	0.055932
3016	0.124120
3000	0.074100
2984	0.010538
2968	0.049638
2952	0.175881
2936	0.030875
2920	-0.098586
2904	0.099563
2888	0.002360
2872	0.033545
2856	0.129103
2840	-0.064158
2824	0.027585
2808	0.024461
2792	0.068354
2776	0.100350
2760	0.039291
2744	0.027441
2728	0.112867
2712	0.064587
2696	0.031805
2680	-0.013208
2664	0.018596
2648	0.068306
2632	-0.111722
2616	0.055432
2600	0.110459
2584	0.048685
2568	0.006747
2552	-0.029683
2536	0.084304
2520	0.058078
2504	0.099396
2488	-0.044989
2472	0.005698
2456	0.091099
2440	0.029993
2424	-0.073194
2408	-0.106382
2392	-0.029444
2376	0.014114
2360	0.028109
2344	-0.009608
2328	0.258684
2312	0.068521
2296	0.223255
2280	0.342488
2264	0.565075
2248	0.882458
2232	1.320791
2216	1.966333
2200	2.623009
2184	3.414273
2168	4.623079
2152	5.978918
2136	7.228851
2120	8.799958
2104	10.3961
2088	12.1089
2072	13.7551
2056	15.35
2040	16.9212
2024	18.1759
2008	19.6367
1992	20.8366
1976	21.9951
1960	22.9987
1944	23.8429
1928	24.6877
1912	25.3774
1896	26.0296
1880	26.6197
1864	27.2043
1848	27.5603
1832	27.919
1816	28.3008
1800	28.5366
1784	28.8501
1768	28.9778
1752	29.1258
1736	29.2932
1720	29.5399
1704	29.473
1688	29.6838
1672	29.8177
1656	29.7978
1640	29.8582
1624	29.8499
1608	29.907
1592	29.9094
1576	29.9304
1560	30.0927
1544	29.9706
1528	29.9554
1512	30.0766
1496	29.9312
1480	30.0497
1464	29.9121
1448	29.9734
1432	29.9422
1416	29.8768
1400	29.9883
1384	29.9767
1368	29.854
1352	29.928
1336	29.9184
1320	29.8621
1304	29.7568
1288	29.8131
1272	29.8013
1256	29.6369
1240	29.7453
1224	29.7563
1208	29.7049
1192	29.6862
1176	29.5981
1160	29.5084
1144	29.47
1128	29.3692
1112	29.4879
1096	29.2966
1080	29.3185
1064	29.2069
1048	29.1072
1032	28.833
1016	28.9504
1000	28.8036
984	 28.711
968	 28.3703
952	 28.5638
936	 28.3247
920	 28.1492
904	 28.0436
888	 27.7885
872	 27.5865
856	 27.4529
840	 27.4215
824	 26.7817
808	 26.79
792	 26.937
776	 26.3066
760	 25.9385
744	 25.8169
728	 25.8324
712	 25.2845
696	 24.9933
680	 24.7605
664	 24.6305
648	 23.9347
632	 23.6089
616	 23.2075
600	 22.9645
584	 22.6269
568	 22.741
552	 21.867
536	 21.1199
520	 21.1513
504	 20.9741
488	 19.1588
472	 19.1721
456	 18.6856
440	 17.9468
424	 16.689
408	 14.1101
392	 27.1836
376	 0.297713
370	 22.0201

File: LPE453_t102.asc
PE IR       SPECTRUM    SPECTRUM    ASCII       PEDS        1.60
  -1
LP9B76~1.ASC
17/05/16
22:44:10.00
17/05/16
22:44:36.00
tln
$LPE453_t0102$<tbV0>[7.8,10.4,8.0,0.0,27,1,0]
27.028
64

2002,4.07
MIRTGS : RIGHTBACK : INTERNAL 2
MIR : ON : INTERNAL 2
OPTKBR

0.200000
8
8.000000
FILLER
RATIO
SPECTRUM
UNLOCKED 256

DOUBLE
64
COMBINED
1
0
0

0.002000
RATIO

1
0
TRUE
51149
0
LEFT NOT FITTED RIGHT NOT FITTED 0
NONE
NONE
15600
12
4.427000
51148
TRUE
1 0 8 72 0 0 0 0

15798

#HDR
-1
-1
#GR
µM
%T
2.38419e-05
0.0
2.000000
0.002000
12515
8
35.2121
-11.6192
#DATA
2.000000	 0.204348
2.084000	 0.051867
2.168000	 0.222188
2.252000	 -0.451781
2.336000	 0.072805
2.420000	 -0.001731
2.504000	 0.105380
2.588000	 0.005325
2.672000	 0.102488
2.756000	 0.169000
2.840000	 0.111636
2.924000	 0.112108
3.008000	 0.133829
3.092000	 0.078493
3.176000	 0.059122
3.260000	 -0.041101
3.344000	 0.060392
3.428000	 -0.056225
3.512000	 0.190894
3.596000	 0.087799
3.680000	 -0.041445
3.764000	 0.100773
3.848000	 0.044867
3.932000	 -0.034983
4.016000	 -0.062810
4.100000	 0.035422
4.184000	 0.097702
4.268000	 0.412272
4.352000	 0.729824
4.436000	 1.914652
4.520000	 4.028741
4.604000	 7.487165
4.688000	 11.5624
4.772000	 16.009
4.856000	 20.1242
4.940000	 23.389
5.024000	 26.2258
5.108000	 28.3062
5.192000	 29.9055
5.276000	 31.1336
5.359999	 31.9638
5.444000	 32.6989
5.528000	 33.1042
5.612000	 33.4181
5.696000	 33.7187
5.780000	 33.9728
5.864000	 34.1512
5.948000	 34.2667
6.032000	 34.5041
6.116000	 34.4727
6.200000	 34.5289
6.284000	 34.6463
6.368000	 34.5143
6.452000	 34.6988
6.536000	 34.7994
6.620000	 34.7094
6.704000	 34.6875
6.788000	 34.8515
6.872000	 34.7493
6.956000	 34.7288
7.040000	 35.038
7.124000	 34.9701
7.208000	 35.003
7.292000	 34.816
7.376000	 34.8798
7.460000	 35.0211
7.544000	 35.0035
7.628000	 34.9064
7.712000	 34.8842
7.796000	 34.9582
7.880000	 35.0027
7.964000	 35.025
8.048000	 34.9076
8.132000	 35.018
8.216000	 35.0704
8.300000	 35.1702
8.384000	 35.0913
8.468000	 35.156
8.552000	 35.0617
8.635999	 34.9321
8.719999	 35.0103
8.804000	 35.0819
8.888000	 35.1017
8.972000	 34.9153
9.056000	 34.9461
9.140000	 35.1472
9.224000	 34.9244
9.308000	 34.7387
9.391999	 35.0544
9.475999	 35.1803
9.560000	 34.9745
9.644000	 34.6785
9.728000	 34.5319
9.812000	 34.6676
9.896000	 34.9702
9.980000	 34.8772
10.064	34.8586
10.148	34.7066
10.232	34.4007
10.316	34.4382
10.4	34.5637
10.484	34.5483
10.568	34.3822
10.652	34.5926
10.736	34.4977
10.82	34.3654
10.904	34.1193
10.988	34.1307
11.072	34.0249
11.156	33.899
11.24	33.9011
11.324	33.9809
11.408	34.0986
11.492	34.1816
11.576	34.1523
11.66	34.1612
11.744	33.8955
11.828	33.6217
11.912	33.5384
11.996	33.3139
12.08	33.196
12.164	33.3779
12.248	33.633
12.332	33.6928
12.416	33.6227
12.5	33.4314
12.584	33.4422
12.668	33.2569
12.752	33.1756
12.836	33.0944
12.92	32.8261
13.004	32.6206
13.088	32.6215
13.172	32.7709
13.256	32.8673
13.34	32.7519
13.424	32.6962
13.508	32.8048
13.592	32.8944
13.676	32.6601
13.76	32.4814
13.844	32.4222
13.928	32.2197
14.012	32.0442
14.096	31.8997
14.18	31.7961
14.264	31.7061
14.348	31.6029
14.432	31.5952
14.516	31.734
14.6	31.9389
14.684	31.9988
14.768	31.933
14.852	31.9313
14.936	31.9017
15.02	31.7336
15.104	31.6135
15.188	31.5724
15.272	31.3822
15.356	31.0958
15.44	30.9637
15.524	30.9132
15.608	30.7376
15.692	30.6025
15.776	30.7136
15.86	30.8136
15.944	30.7045
16.028	30.6695
16.112	30.8754
16.196	31.1021
16.28	31.1918
16.364	31.1737
16.448	31.0969
16.532	31.0309
16.616	30.9847
16.7	30.843
16.784	30.5503
16.868	30.1721
16.952	29.7843
17.036	29.4824
17.12	29.3657
17.204	29.3781
17.288	29.3427
17.372	29.2032
17.456	29.0807
17.54	29.0724
17.624	29.0992
17.708	29.0281
17.792	28.8664
17.876	28.7498
17.96	28.7423
18.044	28.782
18.128	28.8323
18.212	28.9409
18.296	29.1189
18.38	29.2984
18.464	29.4188
18.548	29.461
18.632	29.3773
18.716	29.1028
18.8	28.6718
18.884	28.2473
18.968	27.9889
19.052	27.9073
19.136	27.8788
19.22	27.7773
19.304	27.5857
19.388	27.3762
19.472	27.2145
19.556	27.1063
19.64	27.0169
19.724	26.9258
19.808	26.8502
19.892	26.823
19.976	26.8564
20.06	26.9257
20.144	26.9924
20.228	27.0372
20.312	27.0792
20.396	27.1431
20.48	27.2095
20.564	27.2118
20.648	27.0994
20.732	26.898
20.816	26.7014
20.9	26.5982
20.984	26.6122
21.068	26.7093
21.152	26.8497
21.236	27.0076
21.32	27.1415
21.404	27.1748
21.488	27.0321
21.572	26.7089
21.656	26.2883
21.74	25.8901
21.824	25.5913
21.908	25.3855
21.992	25.2276
22.076	25.0967
22.16	25.0068
22.244	24.972
22.328	24.9693
22.412	24.953
22.496	24.9027
22.58	24.8566
22.664	24.8837
22.748	25.0306
22.832	25.2847
22.916	25.5785
23	25.8344
23.084	26.0044
23.168	26.0631
23.252	25.9878
23.336	25.7458
23.42	25.3263
23.504	24.7728
23.588	24.2007
23.672	23.7568
23.756	23.5559
23.84	23.6101
23.924	23.8174
24.008	24.003
24.092	23.9888
24.176	23.6826
24.26	23.1292
24.344	22.4671
24.428	21.8449
24.512	21.4109
24.596	21.1894
24.68	21.0943
24.764	20.9977
24.848	20.7829
24.932	20.3843
25.016	19.824
25.1	19.2019
25.184	18.6551
25.268	18.3072
25.352	18.2464
25.436	18.5448
25.52	19.2562
25.604	20.4047
25.688	21.9378
25.772	23.6807
25.856	25.3195
25.94	26.3782
26.024	26.2784
26.108	24.5431
26.192	20.9275
26.276	15.5365
26.36	8.865270
26.444	1.795579
26.528	-4.587529
26.612	-9.256020
26.696	-11.4758
26.78	-11.03
26.864	-8.304523
26.948	-4.129088
27.028	0.264859

File: LPE453_t102_cm-1.asc
PE IR       SPECTRUM    SPECTRUM    ASCII       PEDS        1.60
  -1
LP0578~1.ASC
17/05/16
22:44:10.00
17/05/16
22:44:10.00
tln
$LPE453_t0102$<tbV0>[7.8,10.4,8.0,0.0,27,1,0]
370
64

2002,4.07
MIRTGS : RIGHTBACK : INTERNAL 2
MIR : ON : INTERNAL 2
OPTKBR

0.200000
8
8.000000
FILLER
RATIO
SPECTRUM
UNLOCKED 256

DOUBLE
64
COMBINED
1
0
0

1.000000
RATIO

1
0
TRUE
51149
0
LEFT NOT FITTED RIGHT NOT FITTED 0
NONE
NONE
15600
12
4.427000
51148
TRUE
1 0 8 72 0 0 0 0

15798

#HDR
-1
-1
#GR
CM-1
%T
2.38419e-05
0.0
5000
-1.000000
4631
8
35.2113
-11.5844
#DATA
5000	0.204348
4984	0.541925
4968	0.534391
4952	0.341391
4936	0.062942
4920	0.072550
4904	0.006175
4888	-0.051569
4872	0.452542
4856	0.253891
4840	0.352406
4824	-0.045180
4808	0.317645
4792	0.358057
4776	-0.256776
4760	0.006413
4744	-0.289487
4728	0.441646
4712	-0.335574
4696	0.873780
4680	0.042080
4664	1.849675
4648	-0.556683
4632	0.886297
4616	-0.152134
4600	1.972818
4584	-0.152325
4568	-0.509738
4552	-0.268387
4536	-0.508522
4520	-0.354671
4504	5.199122
4488	12.8776
4472	-0.858473
4456	-0.744891
4440	-0.431346
4424	0.382590
4408	0.273275
4392	0.546336
4376	0.342440
4360	0.495314
4344	0.408172
4328	0.303602
4312	0.406336
4296	0.262546
4280	0.081443
4264	-0.308322
4248	0.268530
4232	-0.224280
4216	0.027298
4200	0.251913
4184	0.443840
4168	0.391507
4152	0.135159
4136	-0.057601
4120	-0.170969
4104	0.175952
4088	-0.060009
4072	0.136661
4056	0.162196
4040	0.165104
4024	-0.017285
4008	0.015711
3992	0.134444
3976	0.077366
3960	0.201249
3944	0.168991
3928	0.150036
3912	0.227928
3896	0.242972
3880	0.230097
3864	0.005555
3848	0.201392
3832	0.009918
3816	-0.060820
3800	0.132632
3784	0.256490
3768	0.046873
3752	0.104999
3736	0.139331
3720	0.042343
3704	-0.057649
3688	0.057268
3672	0.151920
3656	0.037455
3640	0.111150
3624	0.032877
3608	0.018644
3592	0.116753
3576	0.062966
3560	0.217676
3544	-0.009202
3528	0.048828
3512	0.196647
3496	0.177907
3480	0.069952
3464	0.018167
3448	0.144863
3432	-0.084853
3416	0.099229
3400	-0.003004
3384	0.038456
3368	0.058341
3352	0.187683
3336	0.017476
3320	0.158429
3304	-0.135588
3288	0.190138
3272	0.002074
3256	0.049233
3240	0.155591
3224	0.062847
3208	0.030398
3192	-0.002241
3176	0.065112
3160	0.022816
3144	0.088310
3128	-0.003576
3112	0.013184
3096	0.013995
3080	-0.005030
3064	-0.017571
3048	-0.094509
3032	0.074100
3016	0.043845
3000	-0.041818
2984	0.117754
2968	-0.055766
2952	0.108742
2936	0.005841
2920	-0.058341
2904	0.048351
2888	0.085973
2872	-0.033831
2856	-0.019836
2840	0.234580
2824	0.038766
2808	0.051951
2792	0.075340
2776	0.000786
2760	-0.040149
2744	-0.026297
2728	0.053215
2712	-0.040841
2696	0.131893
2680	-0.042700
2664	0.107574
2648	0.025415
2632	0.029730
2616	-0.005340
2600	0.030994
2584	0.020885
2568	0.050640
2552	0.015449
2536	0.025868
2520	-0.024819
2504	-0.043582
2488	-0.023198
2472	0.055170
2456	0.090861
2440	0.027656
2424	0.137639
2408	0.048685
2392	0.066471
2376	0.202012
2360	0.334596
2344	0.401735
2328	0.442099
2312	0.551986
2296	0.755333
2280	1.350045
2264	1.606178
2248	2.215981
2232	3.012585
2216	3.816986
2200	4.904460
2184	6.301188
2168	7.873010
2152	9.389281
2136	11.2554
2120	13.1344
2104	15.1151
2088	16.8554
2072	18.714
2056	20.4572
2040	22.0343
2024	23.4168
2008	24.9232
1992	26.1242
1976	27.1508
1960	28.1854
1944	28.9905
1928	29.7931
1912	30.4629
1896	31.1148
1880	31.5151
1864	32.0224
1848	32.4002
1832	32.8234
1816	32.9719
1800	33.1814
1784	33.4064
1768	33.6938
1752	33.7532
1736	33.8586
1720	34.0169
1704	34.1393
1688	34.1373
1672	34.3995
1656	34.4994
1640	34.4867
1624	34.6291
1608	34.5316
1592	34.6432
1576	34.5553
1560	34.6922
1544	34.7864
1528	34.8115
1512	34.7199
1496	34.6839
1480	34.8455
1464	34.8651
1448	34.8202
1432	34.8376
1416	34.9683
1400	34.9935
1384	34.9847
1368	34.8206
1352	34.902
1336	35.0228
1320	34.9629
1304	34.86
1288	34.9306
1272	35.005
1256	35.0198
1240	34.8581
1224	35.0386
1208	35.1444
1192	35.0907
1176	35.1032
1160	34.8899
1144	34.9757
1128	35.119
1112	34.8869
1096	35.1488
1080	34.7354
1064	35.0726
1048	34.9936
1032	34.5859
1016	34.8761
1000	34.9132
984	 34.6665
968	 34.441
952	 34.4847
936	 34.5847
920	 34.2314
904	 34.0471
888	 33.9171
872	 34.1726
856	 34.1326
840	 33.5544
824	 33.2734
808	 33.6989
792	 33.3628
776	 32.9458
760	 32.7394
744	 32.7051
728	 32.5037
712	 31.9869
696	 31.589
680	 31.9846
664	 31.6577
648	 30.9686
632	 30.7956
616	 31.1596
600	 30.9179
584	 29.3647
568	 29.0983
552	 28.8228
536	 29.3179
520	 27.7569
504	 26.832
488	 27.2153
472	 26.9139
456	 25.3414
440	 24.9826
424	 24.2201
408	 21.4194
392	 19.1506
376	 -8.535623
370	 0.264859

File: LPE453_t103.asc
PE IR       SPECTRUM    SPECTRUM    ASCII       PEDS        1.60
  -1
LP9F76~1.ASC
17/05/16
22:48:46.00
17/05/16
22:49:12.00
tln
$LPE453_t0103$<tbV0>[5.2,10.4,8.0,0.0,27,1,0]
27.028
64

2002,4.07
MIRTGS : RIGHTBACK : INTERNAL 2
MIR : ON : INTERNAL 2
OPTKBR

0.200000
8
8.000000
FILLER
RATIO
SPECTRUM
UNLOCKED 256

DOUBLE
64
COMBINED
1
0
0

0.002000
RATIO

1
0
TRUE
51149
0
LEFT NOT FITTED RIGHT NOT FITTED 0
NONE
NONE
15600
12
4.427000
51148
TRUE
1 0 8 72 0 0 0 0

15798

#HDR
-1
-1
#GR
µM
%T
2.38419e-05
0.0
2.000000
0.002000
12515
8
40.0055
-2.489843
#DATA
2.000000	 0.216054
2.084000	 0.004745
2.168000	 0.226719
2.252000	 0.172216
2.336000	 0.328629
2.420000	 0.192297
2.504000	 0.182051
2.588000	 0.118339
2.672000	 0.105292
2.756000	 -0.053625
2.840000	 0.186167
2.924000	 -0.025197
3.008000	 0.098821
3.092000	 -0.026206
3.176000	 0.171261
3.260000	 0.047031
3.344000	 0.017939
3.428000	 0.074804
3.512000	 -0.077801
3.596000	 0.078530
3.680000	 0.166836
3.764000	 0.072661
3.848000	 0.090151
3.932000	 0.006879
4.016000	 0.057529
4.100000	 0.099418
4.184000	 0.224910
4.268000	 0.512357
4.352000	 1.450987
4.436000	 3.050148
4.520000	 5.980929
4.604000	 10.2229
4.688000	 15.3822
4.772000	 20.4754
4.856000	 25.2221
4.940000	 29.0316
5.024000	 32.0403
5.108000	 34.3409
5.192000	 35.7929
5.276000	 37.0233
5.359999	 37.8352
5.444000	 38.5414
5.528000	 38.758
5.612000	 39.2153
5.696000	 39.2365
5.780000	 39.3078
5.864000	 39.7522
5.948000	 39.5795
6.032000	 39.6909
6.116000	 39.8473
6.200000	 39.6424
6.284000	 39.7545
6.368000	 39.9087
6.452000	 39.8208
6.536000	 39.5082
6.620000	 39.8729
6.704000	 39.7414
6.788000	 39.576
6.872000	 39.5738
6.956000	 39.9628
7.040000	 39.7911
7.124000	 39.488
7.208000	 39.2872
7.292000	 39.7618
7.376000	 39.8093
7.460000	 39.4212
7.544000	 39.2821
7.628000	 39.5079
7.712000	 39.6913
7.796000	 39.4688
7.880000	 39.2844
7.964000	 38.9414
8.048000	 39.1987
8.132000	 39.4834
8.216000	 39.4437
8.300000	 39.2419
8.384000	 38.8857
8.468000	 38.766
8.552000	 39.0239
8.635999	 39.2963
8.719999	 39.1733
8.804000	 38.8934
8.888000	 38.5328
8.972000	 38.401
9.056000	 38.4659
9.140000	 39.0407
9.224000	 39.2415
9.308000	 39.0481
9.391999	 38.6897
9.475999	 38.2914
9.560000	 38.0023
9.644000	 38.2357
9.728000	 38.5016
9.812000	 38.6457
9.896000	 38.7113
9.980000	 38.5364
10.064	38.3282
10.148	37.9726
10.232	37.8226
10.316	37.7457
10.4	37.858
10.484	38.1624
10.568	38.3221
10.652	38.3903
10.736	38.2089
10.82	37.9231
10.904	37.6454
10.988	37.3182
11.072	37.1752
11.156	37.4263
11.24	37.4856
11.324	37.5667
11.408	37.8353
11.492	37.8743
11.576	37.7028
11.66	37.4108
11.744	36.9911
11.828	36.6325
11.912	36.3784
11.996	36.3762
12.08	36.407
12.164	36.6325
12.248	36.6999
12.332	36.8337
12.416	37.0943
12.5	37.2318
12.584	37.0039
12.668	36.6574
12.752	36.3437
12.836	36.1462
12.92	35.8726
13.004	35.5083
13.088	35.3466
13.172	35.3275
13.256	35.5094
13.34	35.6995
13.424	35.7436
13.508	35.7136
13.592	35.9794
13.676	36.2626
13.76	36.1919
13.844	35.957
13.928	35.6613
14.012	35.2413
14.096	34.9305
14.18	34.8216
14.264	34.7281
14.348	34.525
14.432	34.2505
14.516	34.1133
14.6	34.2655
14.684	34.549
14.768	34.8081
14.852	35.0684
14.936	35.2539
15.02	35.279
15.104	35.1548
15.188	34.9379
15.272	34.7951
15.356	34.7224
15.44	34.5887
15.524	34.4553
15.608	34.2768
15.692	33.9235
15.776	33.5376
15.86	33.2758
15.944	33.1031
16.028	32.9919
16.112	32.9437
16.196	32.9346
16.28	32.9518
16.364	33.0215
16.448	33.2431
16.532	33.6628
16.616	34.068
16.7	34.2014
16.784	34.1017
16.868	33.93
16.952	33.72
17.036	33.4847
17.12	33.2993
17.204	33.1767
17.288	33.0602
17.372	32.919
17.456	32.7584
17.54	32.5958
17.624	32.4508
17.708	32.3196
17.792	32.1742
17.876	31.9951
17.96	31.772
18.044	31.4904
18.128	31.1783
18.212	30.9447
18.296	30.9036
18.38	31.0601
18.464	31.3012
18.548	31.4944
18.632	31.5754
18.716	31.5733
18.8	31.57
18.884	31.6221
18.968	31.7112
19.052	31.7622
19.136	31.7132
19.22	31.559
19.304	31.3525
19.388	31.173
19.472	31.0918
19.556	31.1287
19.64	31.2281
19.724	31.3003
19.808	31.2925
19.892	31.2211
19.976	31.1214
20.06	30.9776
20.144	30.7235
20.228	30.3178
20.312	29.8145
20.396	29.3493
20.48	29.0484
20.564	28.9554
20.648	29.0175
20.732	29.1437
20.816	29.26
20.9	29.3371
20.984	29.3802
21.068	29.3996
21.152	29.3868
21.236	29.313
21.32	29.1513
21.404	28.9124
21.488	28.6692
21.572	28.5373
21.656	28.6136
21.74	28.9228
21.824	29.4001
21.908	29.9227
21.992	30.3671
22.076	30.646
22.16	30.7269
22.244	30.6389
22.328	30.4415
22.412	30.1974
22.496	29.9472
22.58	29.6988
22.664	29.4494
22.748	29.2122
22.832	29.0254
22.916	28.9446
23	28.9914
23.084	29.1349
23.168	29.3043
23.252	29.4194
23.336	29.4029
23.42	29.2421
23.504	28.9444
23.588	28.5325
23.672	28.0399
23.756	27.5123
23.84	27.0231
23.924	26.6638
24.008	26.5059
24.092	26.5754
24.176	26.8612
24.26	27.3463
24.344	28.0403
24.428	28.9472
24.512	29.9866
24.596	30.9362
24.68	31.425
24.764	31.0455
24.848	29.5371
24.932	26.8996
25.016	23.4714
25.1	19.8275
25.184	16.6474
25.268	14.4527
25.352	13.4682
25.436	13.5744
25.52	14.3813
25.604	15.4446
25.688	16.4272
25.772	17.225
25.856	17.9337
25.94	18.7175
26.024	19.6723
26.108	20.7156
26.192	21.6049
26.276	22.0114
26.36	21.6369
26.444	20.3729
26.528	18.3725
26.612	16.0128
26.696	13.7755
26.78	12.0854
26.864	11.2091
26.948	11.239
27.028	12.1032

File: LPE453_t103_cm-1.asc
PE IR       SPECTRUM    SPECTRUM    ASCII       PEDS        1.60
  -1
LP0678~1.ASC
17/05/16
22:48:46.00
17/05/16
22:48:46.00
tln
$LPE453_t0103$<tbV0>[5.2,10.4,8.0,0.0,27,1,0]
370
64

2002,4.07
MIRTGS : RIGHTBACK : INTERNAL 2
MIR : ON : INTERNAL 2
OPTKBR

0.200000
8
8.000000
FILLER
RATIO
SPECTRUM
UNLOCKED 256

DOUBLE
64
COMBINED
1
0
0

1.000000
RATIO

1
0
TRUE
51149
0
LEFT NOT FITTED RIGHT NOT FITTED 0
NONE
NONE
15600
12
4.427000
51148
TRUE
1 0 8 72 0 0 0 0

15798

#HDR
-1
-1
#GR
CM-1
%T
2.38419e-05
0.0
5000
-1.000000
4631
8
40.005
-2.487182
#DATA
5000	0.216054
4984	-0.232625
4968	-0.293898
4952	-0.105762
4936	0.327610
4920	-0.181317
4904	0.156903
4888	0.346636
4872	-0.145363
4856	0.383782
4840	0.157046
4824	0.093483
4808	0.020122
4792	0.113701
4776	-0.523781
4760	-0.191307
4744	0.124430
4728	-0.372838
4712	0.389981
4696	0.408411
4680	0.816369
4664	-0.026702
4648	0.342297
4632	0.407385
4616	1.196694
4600	-0.408220
4584	0.092649
4568	0.206446
4552	-0.185775
4536	0.660586
4520	-0.462722
4504	-2.473783
4488	12.0742
4472	-0.386810
4456	0.673556
4440	0.186896
4424	0.426077
4408	0.124812
4392	0.176286
4376	0.545334
4360	-0.050282
4344	0.196313
4328	0.161123
4312	0.665712
4296	0.047707
4280	0.356030
4264	0.231719
4248	0.029206
4232	0.062823
4216	0.311231
4200	0.088644
4184	0.220203
4168	0.041532
4152	0.158119
4136	0.184392
4120	-0.034618
4104	0.001096
4088	0.095772
4072	-0.074172
4056	0.172638
4040	-0.099611
4024	-0.074648
4008	0.046682
3992	0.158405
3976	0.162625
3960	0.179147
3944	0.162100
3928	0.101971
3912	0.192117
3896	0.178122
3880	-0.002884
3864	0.118398
3848	-0.044107
3832	0.170779
3816	0.018310
3800	0.064539
3784	0.011467
3768	-0.057649
3752	0.103855
3736	0.015711
3720	-0.156044
3704	0.190162
3688	0.084471
3672	0.191974
3656	0.009155
3640	0.069785
3624	-0.077271
3608	-0.036263
3592	-0.049448
3576	0.041413
3560	0.050997
3544	-0.013494
3528	0.091981
3512	0.093102
3496	-0.079488
3480	0.076818
3464	-0.063014
3448	-0.016379
3432	0.038647
3416	-0.118327
3400	-0.037217
3384	0.049138
3368	-0.104236
3352	-0.028657
3336	0.059127
3320	0.087261
3304	-0.075340
3288	0.037980
3272	0.008559
3256	0.086069
3240	-0.065970
3224	-0.015020
3208	0.153899
3192	-0.028371
3176	0.047397
3160	-0.066685
3144	0.194025
3128	0.080943
3112	0.065994
3096	-0.113224
3080	0.065517
3064	0.033831
3048	0.089788
3032	0.106406
3016	0.090622
3000	0.027132
2984	-0.008296
2968	0.153064
2952	-0.018930
2936	0.042033
2920	0.034308
2904	0.059914
2888	-0.027346
2872	-0.025844
2856	0.090217
2840	-0.028276
2824	-0.030589
2808	-0.016999
2792	0.044488
2776	0.077486
2760	0.104188
2744	0.063633
2728	0.033879
2712	0.028634
2696	0.023007
2680	-0.016832
2664	-0.033283
2648	0.124883
2632	0.042033
2616	0.034260
2600	0.097775
2584	-0.052976
2568	0.062465
2552	-0.040507
2536	-0.040292
2520	-0.010156
2504	0.057220
2488	0.035262
2472	0.057816
2456	0.010347
2440	0.092196
2424	0.228357
2408	0.108504
2392	0.233960
2376	0.346994
2360	0.446057
2344	0.513124
2328	0.780558
2312	1.052212
2296	1.499533
2280	1.960515
2264	2.634763
2248	3.443264
2232	4.443120
2216	5.703353
2200	7.118678
2184	8.893465
2168	10.701
2152	12.7251
2136	14.958
2120	17.1067
2104	19.3623
2088	21.489
2072	23.7137
2056	25.5808
2040	27.466
2024	29.0568
2008	30.5242
1992	31.9541
1976	33.0251
1960	34.2008
1944	34.9351
1928	35.7462
1912	36.334
1896	37.0038
1880	37.3265
1864	37.8699
1848	38.2462
1832	38.6159
1816	38.6439
1800	38.8902
1784	39.1746
1768	39.3894
1752	39.2428
1736	39.2224
1720	39.5312
1704	39.731
1688	39.6003
1672	39.5793
1656	39.7121
1640	39.8976
1624	39.9062
1608	39.5764
1592	39.7395
1576	39.8238
1560	39.8993
1544	39.6353
1528	39.5373
1512	39.8576
1496	39.8391
1480	39.7023
1464	39.4163
1448	39.6073
1432	39.9879
1416	39.7362
1400	39.4605
1384	39.4547
1368	39.7386
1352	39.7267
1336	39.3438
1320	39.2882
1304	39.6386
1288	39.5816
1272	39.3515
1256	38.9408
1240	39.2947
1224	39.5344
1208	39.3247
1192	38.8771
1176	38.8729
1160	39.2972
1144	39.1196
1128	38.6742
1112	38.3658
1096	38.9542
1080	39.1797
1064	38.6673
1048	38.0124
1032	38.4295
1016	38.6868
1000	38.4869
984	 37.9019
968	 37.7285
952	 38.2009
936	 38.3279
920	 37.7661
904	 37.1624
888	 37.4804
872	 37.8815
856	 37.3118
840	 36.3901
824	 36.549
808	 36.98
792	 36.8139
776	 36.0195
760	 35.3131
744	 35.7295
728	 36.2429
712	 35.0918
696	 34.4614
680	 34.619
664	 35.2371
648	 34.6028
632	 33.3765
616	 32.9389
600	 34.1856
584	 33.2936
568	 32.4806
552	 31.2214
536	 31.5802
520	 31.5341
504	 31.2693
488	 29.0229
472	 29.366
456	 30.0502
440	 29.2681
424	 28.5492
408	 29.9597
392	 14.2686
376	 16.4697
370	 12.1032