Folder: Masteroppgave/Bakgrunnsmateriale/MATLAB/FTIR/ftir_data/LPE453/Mapping_121

File: LPE453_e122.asc
PE IR       SPECTRUM    SPECTRUM    ASCII       PEDS        1.60
  -1
LPE453~2.ASC
17/05/16
14:22:06.00
17/05/16
14:22:32.00
tln
$LPE453_e0122$<ebV0>[-23.3,12.1,10.0,0.0,27,1,0]
27.028
64

2002,4.07
MIRTGS : RIGHTBACK : INTERNAL 2
MIR : ON : INTERNAL 2
OPTKBR

0.200000
8
8.000000
FILLER
SINGLE
SPECTRUM
UNLOCKED 256

DOUBLE

COMBINED
1
0
0

0.002000
BACKG

1
0
TRUE
51149
0
LEFT NOT FITTED RIGHT NOT FITTED 0
NONE
NONE
15600
12
4.427000
51148
TRUE
1 0 8 72 0 0 0 0

15798

#HDR
-1
-1
#GR
µM
EGY
2.38419e-05
0.0
2.000000
0.002000
12515
8
2.391579
0.011110
#DATA
2.000000	 0.749111
2.084000	 0.846539
2.168000	 0.899089
2.252000	 1.050860
2.336000	 1.104301
2.420000	 1.205327
2.504000	 1.352754
2.588000	 1.407044
2.672000	 1.493763
2.756000	 1.530952
2.840000	 1.581396
2.924000	 1.544016
3.008000	 1.636803
3.092000	 1.736610
3.176000	 1.763402
3.260000	 1.876968
3.344000	 1.977736
3.428000	 1.791926
3.512000	 1.961239
3.596000	 2.159354
3.680000	 2.200840
3.764000	 2.166783
3.848000	 2.169770
3.932000	 2.237379
4.016000	 2.270496
4.100000	 2.236915
4.184000	 2.194037
4.268000	 2.205107
4.352000	 2.281956
4.436000	 2.318068
4.520000	 2.308722
4.604000	 2.279198
4.688000	 2.276508
4.772000	 2.278828
4.856000	 2.319996
4.940000	 2.377743
5.024000	 2.389392
5.108000	 2.365139
5.192000	 2.339777
5.276000	 2.308211
5.359999	 2.313460
5.444000	 2.338088
5.528000	 2.361341
5.612000	 2.357514
5.696000	 2.329224
5.780000	 2.253022
5.864000	 2.208758
5.948000	 2.164441
6.032000	 2.119026
6.116000	 2.071582
6.200000	 1.945267
6.284000	 1.960502
6.368000	 1.917248
6.452000	 1.896976
6.536000	 2.032521
6.620000	 2.012922
6.704000	 1.639587
6.788000	 1.915351
6.872000	 1.735381
6.956000	 1.811374
7.040000	 1.803719
7.124000	 1.680449
7.208000	 1.738804
7.292000	 1.765054
7.376000	 1.769382
7.460000	 1.767306
7.544000	 1.799912
7.628000	 1.807807
7.712000	 1.807389
7.796000	 1.803523
7.880000	 1.732911
7.964000	 1.719219
8.048000	 1.789404
8.132000	 1.781497
8.216000	 1.743232
8.300000	 1.705293
8.384000	 1.703687
8.468000	 1.675826
8.552000	 1.636441
8.635999	 1.587358
8.719999	 1.568949
8.804000	 1.538234
8.888000	 1.491852
8.972000	 1.437549
9.056000	 1.401920
9.140000	 1.391157
9.224000	 1.397098
9.308000	 1.397224
9.391999	 1.406394
9.475999	 1.328417
9.560000	 1.297542
9.644000	 1.355420
9.728000	 1.338779
9.812000	 1.329363
9.896000	 1.350106
9.980000	 1.366325
10.064	1.366795
10.148	1.353808
10.232	1.339473
10.316	1.315860
10.4	1.289574
10.484	1.261667
10.568	1.241398
10.652	1.229286
10.736	1.212806
10.82	1.198220
10.904	1.179577
10.988	1.151708
11.072	1.133411
11.156	1.124581
11.24	1.105509
11.324	1.053793
11.408	1.007875
11.492	1.024415
11.576	1.060180
11.66	1.067998
11.744	1.062315
11.828	1.053383
11.912	1.034270
11.996	0.969981
12.08	0.861748
12.164	0.832178
12.248	0.893218
12.332	0.925776
12.416	0.927151
12.5	0.924754
12.584	0.931037
12.668	0.944804
12.752	0.955866
12.836	0.958243
12.92	0.954764
13.004	0.949616
13.088	0.946019
13.172	0.941247
13.256	0.936191
13.34	0.931218
13.424	0.923627
13.508	0.914135
13.592	0.904240
13.676	0.892605
13.76	0.879507
13.844	0.866879
13.928	0.854356
14.012	0.841681
14.096	0.828738
14.18	0.814502
14.264	0.799013
14.348	0.780008
14.432	0.752482
14.516	0.724396
14.6	0.713752
14.684	0.716081
14.768	0.715548
14.852	0.709023
14.936	0.700210
15.02	0.691959
15.104	0.684627
15.188	0.677077
15.272	0.668646
15.356	0.658864
15.44	0.648439
15.524	0.639094
15.608	0.631364
15.692	0.623141
15.776	0.613161
15.86	0.603195
15.944	0.594505
16.028	0.586349
16.112	0.577706
16.196	0.567472
16.28	0.554421
16.364	0.538528
16.448	0.522916
16.532	0.512689
16.616	0.509269
16.7	0.508999
16.784	0.507914
16.868	0.505844
16.952	0.503427
17.036	0.500407
17.12	0.496672
17.204	0.493373
17.288	0.491178
17.372	0.489611
17.456	0.487926
17.54	0.485398
17.624	0.481606
17.708	0.476724
17.792	0.471569
17.876	0.466558
17.96	0.461719
18.044	0.456936
18.128	0.452327
18.212	0.448060
18.296	0.444125
18.38	0.440415
18.464	0.436710
18.548	0.432726
18.632	0.428618
18.716	0.424450
18.8	0.419841
18.884	0.414243
18.968	0.407858
19.052	0.401593
19.136	0.396107
19.22	0.391303
19.304	0.386630
19.388	0.381626
19.472	0.376054
19.556	0.370058
19.64	0.363965
19.724	0.358239
19.808	0.353233
19.892	0.348656
19.976	0.343999
20.06	0.338614
20.144	0.332429
20.228	0.325505
20.312	0.317940
20.396	0.309631
20.48	0.300809
20.564	0.291885
20.648	0.283515
20.732	0.275978
20.816	0.268993
20.9	0.262325
20.984	0.255936
21.068	0.249962
21.152	0.244405
21.236	0.239029
21.32	0.233451
21.404	0.227519
21.488	0.221496
21.572	0.215528
21.656	0.209541
21.74	0.203328
21.824	0.196773
21.908	0.190180
21.992	0.184009
22.076	0.178468
22.16	0.173386
22.244	0.168372
22.328	0.163335
22.412	0.158671
22.496	0.154856
22.58	0.152227
22.664	0.150454
22.748	0.148737
22.832	0.146332
22.916	0.142850
23	0.138459
23.084	0.133677
23.168	0.128828
23.252	0.124073
23.336	0.119291
23.42	0.114127
23.504	0.108461
23.588	0.102261
23.672	0.095847
23.756	0.089569
23.84	0.083754
23.924	0.078502
24.008	0.073809
24.092	0.069656
24.176	0.065884
24.26	0.062487
24.344	0.059455
24.428	0.056587
24.512	0.053858
24.596	0.051090
24.68	0.048341
24.764	0.045570
24.848	0.042912
24.932	0.040385
25.016	0.038029
25.1	0.035921
25.184	0.033943
25.268	0.032091
25.352	0.030326
25.436	0.028567
25.52	0.026806
25.604	0.025014
25.688	0.023115
25.772	0.021151
25.856	0.019191
25.94	0.017261
26.024	0.015590
26.108	0.014279
26.192	0.013350
26.276	0.012835
26.36	0.012511
26.444	0.012344
26.528	0.012200
26.612	0.011968
26.696	0.011713
26.78	0.011456
26.864	0.011259
26.948	0.011139
27.028	0.011110

File: LPE453_e122_cm-1.asc
PE IR       SPECTRUM    SPECTRUM    ASCII       PEDS        1.60
  -1
LPE453~1.ASC
17/05/16
14:22:06.00
17/05/16
14:22:06.00
tln
$LPE453_e0122$<ebV0>[-23.3,12.1,10.0,0.0,27,1,0]
370
64

2002,4.07
MIRTGS : RIGHTBACK : INTERNAL 2
MIR : ON : INTERNAL 2
OPTKBR

0.200000
8
8.000000
FILLER
SINGLE
SPECTRUM
UNLOCKED 256

DOUBLE

COMBINED
1
0
0

1.000000
BACKG

1
0
TRUE
51149
0
LEFT NOT FITTED RIGHT NOT FITTED 0
NONE
NONE
15600
12
4.427000
51148
TRUE
1 0 8 72 0 0 0 0

15798

#HDR
-1
-1
#GR
CM-1
EGY
2.38419e-05
0.0
5000
-1.000000
4631
8
2.391576
0.011110
#DATA
5000	0.749111
4984	0.754094
4968	0.762820
4952	0.766229
4936	0.764298
4920	0.767207
4904	0.787210
4888	0.807261
4872	0.795912
4856	0.808191
4840	0.815391
4824	0.822734
4808	0.836610
4792	0.848555
4776	0.859546
4760	0.867128
4744	0.872445
4728	0.874352
4712	0.882005
4696	0.883746
4680	0.888037
4664	0.884914
4648	0.888991
4632	0.894737
4616	0.897717
4600	0.906014
4584	0.915622
4568	0.923824
4552	0.935125
4536	0.941944
4520	0.951886
4504	0.963139
4488	0.975298
4472	0.968217
4456	1.095533
4440	1.043343
4424	0.978589
4408	0.982546
4392	0.987410
4376	0.999283
4360	1.008057
4344	1.028490
4328	1.043844
4312	1.067256
4296	1.083898
4280	1.105403
4264	1.121735
4248	1.132297
4232	1.149129
4216	1.156353
4200	1.166963
4184	1.174592
4168	1.181268
4152	1.189851
4136	1.202034
4120	1.213955
4104	1.228427
4088	1.246714
4072	1.268982
4056	1.289057
4040	1.310229
4024	1.327371
4008	1.343226
3992	1.354765
3976	1.367259
3960	1.375031
3944	1.383996
3928	1.383948
3912	1.390337
3896	1.391792
3880	1.397204
3864	1.407027
3848	1.418614
3832	1.434063
3816	1.447200
3800	1.466202
3784	1.495194
3768	1.506471
3752	1.489162
3736	1.506590
3720	1.530170
3704	1.533794
3688	1.522302
3672	1.511788
3656	1.528620
3640	1.539421
3624	1.536369
3608	1.541113
3592	1.548337
3576	1.563048
3560	1.568245
3544	1.576805
3528	1.577687
3512	1.582837
3496	1.575970
3480	1.567697
3464	1.561999
3448	1.547765
3432	1.544928
3416	1.546859
3400	1.552295
3384	1.561713
3368	1.578307
3352	1.600790
3336	1.622056
3320	1.643896
3304	1.669740
3288	1.688408
3272	1.706075
3256	1.723146
3240	1.733255
3224	1.737904
3208	1.742315
3192	1.744723
3176	1.749110
3160	1.754403
3144	1.768803
3128	1.782536
3112	1.803636
3096	1.836085
3080	1.861190
3064	1.881670
3048	1.908564
3032	1.922798
3016	1.910066
3000	1.970195
2984	1.973700
2968	1.908826
2952	1.873660
2936	1.770758
2920	1.757001
2904	1.899242
2888	1.947021
2872	1.934218
2856	1.875615
2840	2.015590
2824	2.073192
2808	2.110815
2792	2.139639
2776	2.167344
2760	2.186155
2744	2.196407
2728	2.201533
2712	2.199411
2696	2.191066
2680	2.181839
2664	2.172470
2648	2.166628
2632	2.163982
2616	2.167773
2600	2.169561
2584	2.184200
2568	2.206730
2552	2.224898
2536	2.247548
2520	2.260065
2504	2.264881
2488	2.270817
2472	2.263665
2456	2.252006
2440	2.237844
2424	2.218675
2408	2.205944
2392	2.194523
2376	2.186131
2360	2.174067
2344	2.205038
2328	2.223181
2312	2.258825
2296	2.284431
2280	2.304196
2264	2.315449
2248	2.320504
2232	2.321290
2216	2.311682
2200	2.299261
2184	2.286791
2168	2.277946
2152	2.275085
2136	2.277731
2120	2.274203
2104	2.278923
2088	2.278137
2072	2.293515
2056	2.326011
2040	2.357387
2024	2.377939
2008	2.390456
1992	2.389812
1976	2.383017
1960	2.367043
1944	2.353906
1928	2.342343
1912	2.322816
1896	2.308487
1880	2.310228
1864	2.316808
1848	2.322697
1832	2.338385
1816	2.357292
1800	2.360320
1784	2.358055
1768	2.338695
1752	2.315044
1736	2.251315
1720	2.238821
1704	2.198362
1688	2.176570
1672	2.157354
1656	2.101707
1640	2.088546
1624	2.042269
1608	1.917934
1592	1.960229
1576	1.919150
1560	1.855254
1544	1.887583
1528	2.040553
1512	2.022051
1496	1.651644
1480	1.905679
1464	1.881003
1448	1.736664
1432	1.820898
1416	1.792359
1400	1.684212
1384	1.737856
1368	1.765871
1352	1.769185
1336	1.777172
1320	1.804709
1304	1.806640
1288	1.806855
1272	1.762938
1256	1.715421
1240	1.790189
1224	1.770067
1208	1.707983
1192	1.702642
1176	1.663184
1160	1.593661
1144	1.563119
1128	1.507115
1112	1.426315
1096	1.391816
1080	1.396512
1064	1.405739
1048	1.277852
1032	1.347684
1016	1.333856
1000	1.367712
984	 1.351904
968	 1.311683
952	 1.255607
936	 1.223087
920	 1.188659
904	 1.134777
888	 1.095414
872	 1.013851
856	 1.067185
840	 1.037049
824	 0.826740
808	 0.928235
792	 0.937533
776	 0.956606
760	 0.942158
744	 0.921797
728	 0.883221
712	 0.836706
696	 0.774359
680	 0.716614
664	 0.688409
648	 0.649404
632	 0.607466
616	 0.562024
600	 0.509023
584	 0.496530
568	 0.482559
552	 0.452971
536	 0.427412
520	 0.390720
504	 0.351381
488	 0.299549
472	 0.242209
456	 0.188517
440	 0.149202
424	 0.102496
408	 0.053930
392	 0.027012
376	 0.012016
370	 0.011110

File: LPE453_e123.asc
PE IR       SPECTRUM    SPECTRUM    ASCII       PEDS        1.60
  -1
LP8F73~1.ASC
17/05/16
16:11:26.00
17/05/16
16:11:52.00
tln
$LPE453_e0123$<ebV0>[-23.3,12.1,10.0,0.0,27,1,0]
27.028
64

2002,4.07
MIRTGS : RIGHTBACK : INTERNAL 2
MIR : ON : INTERNAL 2
OPTKBR

0.200000
8
8.000000
FILLER
SINGLE
SPECTRUM
UNLOCKED 256

DOUBLE

COMBINED
1
0
0

0.002000
BACKG

1
0
TRUE
51149
0
LEFT NOT FITTED RIGHT NOT FITTED 0
NONE
NONE
15600
12
4.427000
51148
TRUE
1 0 8 72 0 0 0 0

15798

#HDR
-1
-1
#GR
µM
EGY
2.38419e-05
0.0
2.000000
0.002000
12515
8
2.420977
0.006079
#DATA
2.000000	 0.765037
2.084000	 0.864435
2.168000	 0.930555
2.252000	 1.006981
2.336000	 1.125502
2.420000	 1.225929
2.504000	 1.384714
2.588000	 1.443323
2.672000	 1.536213
2.756000	 1.561350
2.840000	 1.608467
2.924000	 1.571868
3.008000	 1.666344
3.092000	 1.764296
3.176000	 1.790617
3.260000	 1.906800
3.344000	 2.010700
3.428000	 1.819972
3.512000	 1.989165
3.596000	 2.189636
3.680000	 2.230502
3.764000	 2.202209
3.848000	 2.201260
3.932000	 2.266239
4.016000	 2.301451
4.100000	 2.267188
4.184000	 2.225791
4.268000	 2.238605
4.352000	 2.312549
4.436000	 2.348282
4.520000	 2.336037
4.604000	 2.310260
4.688000	 2.299750
4.772000	 2.302606
4.856000	 2.345586
4.940000	 2.404740
5.024000	 2.420033
5.108000	 2.394201
5.192000	 2.367984
5.276000	 2.334112
5.359999	 2.339604
5.444000	 2.363725
5.528000	 2.387132
5.612000	 2.387963
5.696000	 2.360131
5.780000	 2.286563
5.864000	 2.245090
5.948000	 2.202505
6.032000	 2.155112
6.116000	 2.103502
6.200000	 1.973043
6.284000	 1.982243
6.368000	 1.947292
6.452000	 1.923332
6.536000	 2.062469
6.620000	 2.044422
6.704000	 1.662409
6.788000	 1.944606
6.872000	 1.759905
6.956000	 1.834998
7.040000	 1.827339
7.124000	 1.700839
7.208000	 1.759368
7.292000	 1.785590
7.376000	 1.788502
7.460000	 1.785252
7.544000	 1.817858
7.628000	 1.821801
7.712000	 1.823847
7.796000	 1.822104
7.880000	 1.745589
7.964000	 1.734181
8.048000	 1.807284
8.132000	 1.797536
8.216000	 1.759873
8.300000	 1.722121
8.384000	 1.715711
8.468000	 1.689759
8.552000	 1.649668
8.635999	 1.601743
8.719999	 1.583585
8.804000	 1.552423
8.888000	 1.505462
8.972000	 1.449945
9.056000	 1.411743
9.140000	 1.402477
9.224000	 1.408153
9.308000	 1.408901
9.391999	 1.417863
9.475999	 1.338552
9.560000	 1.305677
9.644000	 1.365648
9.728000	 1.347913
9.812000	 1.337961
9.896000	 1.360017
9.980000	 1.378245
10.064	1.377304
10.148	1.362741
10.232	1.345945
10.316	1.326094
10.4	1.299998
10.484	1.272501
10.568	1.251812
10.652	1.237483
10.736	1.222679
10.82	1.205904
10.904	1.186201
10.988	1.159809
11.072	1.143143
11.156	1.133847
11.24	1.114061
11.324	1.063244
11.408	1.015719
11.492	1.030790
11.576	1.067836
11.66	1.077287
11.744	1.071822
11.828	1.062073
11.912	1.041621
11.996	0.976253
12.08	0.866837
12.164	0.837728
12.248	0.900516
12.332	0.933784
12.416	0.934404
12.5	0.931453
12.584	0.938382
12.668	0.952674
12.752	0.963621
12.836	0.964624
12.92	0.960749
13.004	0.956291
13.088	0.952125
13.172	0.948617
13.256	0.944673
13.34	0.936197
13.424	0.927535
13.508	0.920495
13.592	0.910955
13.676	0.898190
13.76	0.885093
13.844	0.872416
13.928	0.860128
14.012	0.847823
14.096	0.835283
14.18	0.821473
14.264	0.805072
14.348	0.783726
14.432	0.754153
14.516	0.726660
14.6	0.718052
14.684	0.721421
14.768	0.720746
14.852	0.714959
14.936	0.707964
15.02	0.700410
15.104	0.692296
15.188	0.684282
15.272	0.675009
15.356	0.663816
15.44	0.652921
15.524	0.643159
15.608	0.633288
15.692	0.623484
15.776	0.614893
15.86	0.607222
15.944	0.599428
16.028	0.591256
16.112	0.582274
16.196	0.571498
16.28	0.558473
16.364	0.543637
16.448	0.529242
16.532	0.519767
16.616	0.516960
16.7	0.517235
16.784	0.516138
16.868	0.512416
16.952	0.507477
17.036	0.503124
17.12	0.500111
17.204	0.497642
17.288	0.494536
17.372	0.490610
17.456	0.486515
17.54	0.482681
17.624	0.478974
17.708	0.475273
17.792	0.471888
17.876	0.469102
17.96	0.466839
18.044	0.464357
18.128	0.460852
18.212	0.456178
18.296	0.450859
18.38	0.445440
18.464	0.440354
18.548	0.435465
18.632	0.430597
18.716	0.425557
18.8	0.420207
18.884	0.414639
18.968	0.408902
19.052	0.403388
19.136	0.398271
19.22	0.393641
19.304	0.389458
19.388	0.385398
19.472	0.381174
19.556	0.376323
19.64	0.370608
19.724	0.364149
19.808	0.357190
19.892	0.349978
19.976	0.342803
20.06	0.335787
20.144	0.328977
20.228	0.322230
20.312	0.315492
20.396	0.308649
20.48	0.301684
20.564	0.294548
20.648	0.287196
20.732	0.279889
20.816	0.272875
20.9	0.266457
20.984	0.260641
21.068	0.255190
21.152	0.249760
21.236	0.244187
21.32	0.238365
21.404	0.232424
21.488	0.226491
21.572	0.220625
21.656	0.214780
21.74	0.208743
21.824	0.202448
21.908	0.195969
21.992	0.189415
22.076	0.183059
22.16	0.177056
22.244	0.171558
22.328	0.166620
22.412	0.162139
22.496	0.157904
22.58	0.153679
22.664	0.149328
22.748	0.144710
22.832	0.139848
22.916	0.134872
23	0.129789
23.084	0.124660
23.168	0.119459
23.252	0.114314
23.336	0.109292
23.42	0.104502
23.504	0.099983
23.588	0.095739
23.672	0.091708
23.756	0.087840
23.84	0.084143
23.924	0.080441
24.008	0.076718
24.092	0.072918
24.176	0.069014
24.26	0.065045
24.344	0.061192
24.428	0.057620
24.512	0.054448
24.596	0.051662
24.68	0.049174
24.764	0.046775
24.848	0.044275
24.932	0.041729
25.016	0.039140
25.1	0.036725
25.184	0.034635
25.268	0.032865
25.352	0.031384
25.436	0.029963
25.52	0.028448
25.604	0.026739
25.688	0.024816
25.772	0.022821
25.856	0.020797
25.94	0.018949
26.024	0.017258
26.108	0.015764
26.192	0.014367
26.276	0.013068
26.36	0.011822
26.444	0.010699
26.528	0.009696
26.612	0.008831
26.696	0.008117
26.78	0.007534
26.864	0.007018
26.948	0.006520
27.028	0.006079

File: LPE453_e123_cm-1.asc
PE IR       SPECTRUM    SPECTRUM    ASCII       PEDS        1.60
  -1
LP06BB~1.ASC
17/05/16
16:11:26.00
17/05/16
16:11:26.00
tln
$LPE453_e0123$<ebV0>[-23.3,12.1,10.0,0.0,27,1,0]
370
64

2002,4.07
MIRTGS : RIGHTBACK : INTERNAL 2
MIR : ON : INTERNAL 2
OPTKBR

0.200000
8
8.000000
FILLER
SINGLE
SPECTRUM
UNLOCKED 256

DOUBLE

COMBINED
1
0
0

1.000000
BACKG

1
0
TRUE
51149
0
LEFT NOT FITTED RIGHT NOT FITTED 0
NONE
NONE
15600
12
4.427000
51148
TRUE
1 0 8 72 0 0 0 0

15798

#HDR
-1
-1
#GR
CM-1
EGY
2.38419e-05
0.0
5000
-1.000000
4631
8
2.420973
0.006079
#DATA
5000	0.765037
4984	0.772643
4968	0.776672
4952	0.784087
4936	0.792121
4920	0.798368
4904	0.805187
4888	0.807857
4872	0.820207
4856	0.826978
4840	0.836777
4824	0.848150
4808	0.858020
4792	0.867938
4776	0.874233
4760	0.883030
4744	0.887584
4728	0.895977
4712	0.898504
4696	0.903367
4680	0.901436
4664	0.905227
4648	0.906515
4632	0.916266
4616	0.925993
4600	0.930547
4584	0.938653
4568	0.952410
4552	0.957155
4536	0.989651
4520	1.001262
4504	0.976419
4488	0.980496
4472	0.992083
4456	1.007318
4440	1.007151
4424	1.009869
4408	1.013970
4392	1.024031
4376	1.030302
4360	1.043701
4344	1.056742
4328	1.074171
4312	1.093029
4296	1.113557
4280	1.126432
4264	1.146221
4248	1.160287
4232	1.170730
4216	1.178216
4200	1.188421
4184	1.192355
4168	1.205158
4152	1.213383
4136	1.222419
4120	1.238799
4104	1.252722
4088	1.271438
4072	1.291823
4056	1.313424
4040	1.332950
4024	1.352739
4008	1.370215
3992	1.385951
3976	1.396536
3960	1.403522
3944	1.410388
3928	1.413726
3912	1.422071
3896	1.425313
3880	1.432585
3864	1.443314
3848	1.450395
3832	1.470422
3816	1.479816
3800	1.501035
3784	1.525163
3768	1.535630
3752	1.529192
3736	1.545357
3720	1.560091
3704	1.562714
3688	1.554608
3672	1.551175
3656	1.560997
3640	1.567864
3624	1.565980
3608	1.572942
3592	1.583743
3576	1.590824
3560	1.600384
3544	1.606607
3528	1.608228
3512	1.609063
3496	1.606464
3480	1.596784
3464	1.588940
3448	1.581859
3432	1.568222
3416	1.574754
3400	1.580905
3384	1.593327
3368	1.605558
3352	1.630067
3336	1.651477
3320	1.673531
3304	1.696801
3288	1.713991
3272	1.732826
3256	1.749610
3240	1.760005
3224	1.768064
3208	1.768827
3192	1.774764
3176	1.777219
3160	1.785302
3144	1.795005
3128	1.808190
3112	1.831698
3096	1.860380
3080	1.891446
3064	1.911449
3048	1.937818
3032	1.953315
3016	1.940417
3000	2.000784
2984	2.004599
2968	1.935458
2952	1.901531
2936	1.796674
2920	1.784706
2904	1.927018
2888	1.976132
2872	1.961469
2856	1.906132
2840	2.044558
2824	2.101778
2808	2.138018
2792	2.168464
2776	2.198266
2760	2.216362
2744	2.229785
2728	2.233624
2712	2.227282
2696	2.222800
2680	2.217078
2664	2.205157
2648	2.200484
2632	2.194833
2616	2.199625
2600	2.201294
2584	2.215600
2568	2.237057
2552	2.257156
2536	2.277350
2520	2.290081
2504	2.298259
2488	2.299952
2472	2.293920
2456	2.280354
2440	2.267980
2424	2.249813
2408	2.235412
2392	2.226305
2376	2.217793
2360	2.210092
2344	2.238440
2328	2.256393
2312	2.287530
2296	2.314448
2280	2.328205
2264	2.345848
2248	2.349781
2232	2.349972
2216	2.338457
2200	2.329325
2184	2.316570
2168	2.308988
2152	2.304530
2136	2.300572
2120	2.304744
2104	2.306199
2088	2.302908
2072	2.319383
2056	2.352333
2040	2.386021
2024	2.404880
2008	2.415394
1992	2.420496
1976	2.408480
1960	2.395224
1944	2.383089
1928	2.370667
1912	2.351832
1896	2.334499
1880	2.338790
1864	2.341818
1848	2.351999
1832	2.365851
1816	2.381443
1800	2.389216
1784	2.388215
1768	2.375078
1752	2.348732
1736	2.287244
1720	2.270722
1704	2.238225
1688	2.213740
1672	2.192330
1656	2.143025
1640	2.118802
1624	2.069783
1608	1.940441
1592	1.981782
1576	1.950836
1560	1.898026
1544	1.920390
1528	2.071690
1512	2.052211
1496	1.673197
1480	1.928591
1464	1.904892
1448	1.754474
1432	1.839184
1416	1.814222
1400	1.705551
1384	1.757407
1368	1.787018
1352	1.787757
1336	1.794314
1320	1.821517
1304	1.822829
1288	1.823925
1272	1.777195
1256	1.730251
1240	1.808500
1224	1.786088
1208	1.725721
1192	1.714682
1176	1.675605
1160	1.607847
1144	1.576161
1128	1.519966
1112	1.437783
1096	1.402974
1080	1.406955
1064	1.416873
1048	1.286578
1032	1.358270
1016	1.344299
1000	1.379704
984	 1.359534
968	 1.322007
952	 1.266527
936	 1.232314
920	 1.195430
904	 1.144504
888	 1.104211
872	 1.020693
856	 1.076507
840	 1.044535
824	 0.831794
808	 0.935935
792	 0.945210
776	 0.962471
760	 0.949144
744	 0.926089
728	 0.888776
712	 0.842952
696	 0.777435
680	 0.721979
664	 0.696563
648	 0.653886
632	 0.610589
616	 0.565934
600	 0.517082
584	 0.500011
568	 0.479793
552	 0.461435
536	 0.429153
520	 0.393080
504	 0.354361
488	 0.300693
472	 0.247502
456	 0.194263
440	 0.145864
424	 0.095891
408	 0.054526
392	 0.028634
376	 0.008988
370	 0.006079