Folder: Masteroppgave/Bakgrunnsmateriale/MATLAB/FTIR/ftir_data/LPE453/Mapping_121 (part 18)

File: LPE453_t36_cm-1.asc
PE IR       SPECTRUM    SPECTRUM    ASCII       PEDS        1.60
  -1
LPE85A~1.ASC
17/05/16
17:17:50.00
17/05/16
17:17:50.00
tln
$LPE453_t0036$<tbV0>[7.8,-5.2,8.0,0.0,27,1,0]
370
64

2002,4.07
MIRTGS : RIGHTBACK : INTERNAL 2
MIR : ON : INTERNAL 2
OPTKBR

0.200000
8
8.000000
FILLER
RATIO
SPECTRUM
UNLOCKED 256

DOUBLE
64
COMBINED
1
0
0

1.000000
RATIO

1
0
TRUE
51149
0
LEFT NOT FITTED RIGHT NOT FITTED 0
NONE
NONE
15600
12
4.427000
51148
TRUE
1 0 8 72 0 0 0 0

15798

#HDR
-1
-1
#GR
CM-1
%T
2.38419e-05
0.0
5000
-1.000000
4631
8
32.3275
-10.628
#DATA
5000	0.272011
4984	0.051069
4968	0.018191
4952	0.178122
4936	0.156521
4920	-0.230598
4904	-0.194597
4888	0.440955
4872	0.083994
4856	-0.035524
4840	0.398135
4824	-0.129914
4808	0.181007
4792	0.321888
4776	-0.137209
4760	0.268459
4744	0.037312
4728	0.076055
4712	0.303673
4696	0.008153
4680	0.785493
4664	0.406718
4648	0.668478
4632	0.545811
4616	0.645494
4600	0.560021
4584	0.109791
4568	-0.763940
4552	-1.174569
4536	-1.660895
4520	18.8865
4504	0.336813
4488	-0.151491
4472	-0.863957
4456	-1.121139
4440	-0.699734
4424	0.003504
4408	0.463533
4392	0.710368
4376	0.605225
4360	0.459146
4344	0.304841
4328	0.382590
4312	-0.005078
4296	-0.038909
4280	0.084304
4264	0.136184
4248	0.392723
4232	0.258970
4216	0.156021
4200	0.358080
4184	0.135517
4168	-0.194430
4152	0.050640
4136	0.048899
4120	0.220441
4104	-0.076699
4088	-0.167417
4072	0.279402
4056	0.015974
4040	0.029563
4024	0.119709
4008	0.151443
3992	0.162553
3976	0.136280
3960	0.248289
3944	0.282907
3928	0.292015
3912	0.017285
3896	0.086426
3880	0.124144
3864	-0.014901
3848	0.135159
3832	0.203776
3816	-0.150108
3800	0.164270
3784	0.207138
3768	0.177693
3752	0.189018
3736	0.048899
3720	0.089597
3704	0.064349
3688	0.114011
3672	0.208520
3656	-0.037217
3640	0.001668
3624	0.094676
3608	-0.020623
3592	0.063800
3576	0.021600
3560	0.035381
3544	0.008916
3528	-0.004243
3512	-0.000977
3496	0.113105
3480	0.237870
3464	0.178122
3448	0.042390
3432	0.060415
3416	0.138807
3400	0.021982
3384	0.094294
3368	0.047349
3352	-0.045251
3336	0.056219
3320	0.134396
3304	0.089335
3288	0.028514
3272	-0.059866
3256	0.004410
3240	0.105619
3224	0.042152
3208	0.025272
3192	0.100350
3176	-0.049233
3160	0.161695
3144	0.218749
3128	-0.014209
3112	0.105953
3096	-0.006079
3080	-0.055003
3064	0.025343
3048	-0.075244
3032	0.027251
3016	0.062227
3000	0.149941
2984	0.091981
2968	0.109052
2952	0.167441
2936	-0.002169
2920	0.125885
2904	0.169897
2888	0.018358
2872	0.111389
2856	0.166630
2840	0.115489
2824	0.051283
2808	-0.005912
2792	-0.028252
2776	-0.005698
2760	0.096821
2744	-0.097298
2728	0.031113
2712	-0.041103
2696	0.063514
2680	0.068664
2664	0.014424
2648	-0.029110
2632	-0.051403
2616	0.038027
2600	0.078701
2584	0.017333
2568	0.006484
2552	0.067090
2536	-0.008654
2520	-0.010132
2504	0.143742
2488	0.159072
2472	0.005125
2456	-0.021028
2440	0.085949
2424	-0.022935
2408	0.071501
2392	0.043249
2376	-0.017070
2360	0.071382
2344	0.029659
2328	0.014853
2312	-0.010681
2296	-0.038933
2280	-0.062322
2264	0.089240
2248	0.083184
2232	0.200223
2216	0.278139
2200	0.673699
2184	1.027607
2168	1.542639
2152	2.097964
2136	2.868676
2120	3.942418
2104	4.907298
2088	6.095600
2072	7.352519
2056	8.769178
2040	10.166
2024	11.485
2008	12.5963
1992	13.7627
1976	14.9797
1960	15.9224
1944	16.8411
1928	17.442
1912	18.2659
1896	18.9031
1880	19.4045
1864	19.9029
1848	20.3464
1832	20.5863
1816	20.9742
1800	21.2441
1784	21.4925
1768	21.5706
1752	21.7014
1736	21.8689
1720	21.9039
1704	22.1693
1688	22.2358
1672	22.1118
1656	22.1888
1640	22.273
1624	22.0916
1608	22.2245
1592	22.2245
1576	22.093
1560	22.0648
1544	22.0707
1528	22.1745
1512	22.07
1496	22.0737
1480	21.977
1464	21.9466
1448	21.8049
1432	21.7758
1416	21.714
1400	21.6414
1384	21.7116
1368	21.6676
1352	21.417
1336	21.6043
1320	21.6352
1304	21.3842
1288	21.3075
1272	21.1444
1256	21.3083
1240	21.2215
1224	21.1808
1208	21.0138
1192	20.9285
1176	20.8826
1160	20.7506
1144	20.6498
1128	20.435
1112	20.5084
1096	20.3883
1080	20.3419
1064	20.0142
1048	19.9935
1032	19.6283
1016	19.5881
1000	19.3717
984	 19.2643
968	 19.093
952	 18.7649
936	 18.6053
920	 18.4871
904	 18.2458
888	 17.8947
872	 17.7262
856	 17.3964
840	 17.101
824	 17.2291
808	 16.9569
792	 16.5078
776	 16.0856
760	 15.8886
744	 15.2448
728	 15.2292
712	 14.8026
696	 14.5271
680	 14.155
664	 13.6174
648	 13.5937
632	 13.2292
616	 13.1408
600	 12.0134
584	 12.3903
568	 12.1255
552	 10.7892
536	 11.7058
520	 11.1125
504	 10.4978
488	 9.955167
472	 9.334301
456	 10.9834
440	 8.491420
424	 8.485102
408	 8.903908
392	 -10.341
376	 -1.504659
370	 7.444787

File: LPE453_t37.asc
PE IR       SPECTRUM    SPECTRUM    ASCII       PEDS        1.60
  -1
LPDF95~1.ASC
17/05/16
17:22:26.00
17/05/16
17:22:52.00
tln
$LPE453_t0037$<tbV0>[5.2,-5.2,8.0,0.0,27,1,0]
27.028
64

2002,4.07
MIRTGS : RIGHTBACK : INTERNAL 2
MIR : ON : INTERNAL 2
OPTKBR

0.200000
8
8.000000
FILLER
RATIO
SPECTRUM
UNLOCKED 256

DOUBLE
64
COMBINED
1
0
0

0.002000
RATIO

1
0
TRUE
51149
0
LEFT NOT FITTED RIGHT NOT FITTED 0
NONE
NONE
15600
12
4.427000
51148
TRUE
1 0 8 72 0 0 0 0

15798

#HDR
-1
-1
#GR
µM
%T
2.38419e-05
0.0
2.000000
0.002000
12515
8
24.9512
-45.4029
#DATA
2.000000	 -0.066399
2.084000	 0.291677
2.168000	 0.594729
2.252000	 -0.495412
2.336000	 0.034515
2.420000	 -0.030326
2.504000	 0.181255
2.588000	 0.098846
2.672000	 0.099133
2.756000	 0.195432
2.840000	 0.043368
2.924000	 0.047017
3.008000	 0.129383
3.092000	 0.034243
3.176000	 0.192031
3.260000	 0.078214
3.344000	 0.096544
3.428000	 0.004977
3.512000	 -0.042147
3.596000	 0.082419
3.680000	 -0.042718
3.764000	 0.018605
3.848000	 0.078702
3.932000	 0.065910
4.016000	 0.070714
4.100000	 0.099397
4.184000	 -0.050180
4.268000	 -0.068217
4.352000	 -0.063667
4.436000	 0.095205
4.520000	 0.455692
4.604000	 1.540661
4.688000	 3.737525
4.772000	 6.271330
4.856000	 9.404359
4.940000	 12.694
5.024000	 15.325
5.108000	 17.515
5.192000	 19.1675
5.276000	 20.5372
5.359999	 21.4828
5.444000	 22.1919
5.528000	 22.8951
5.612000	 23.2271
5.696000	 23.2849
5.780000	 23.5764
5.864000	 23.8153
5.948000	 23.8291
6.032000	 23.8741
6.116000	 24.0609
6.200000	 23.9176
6.284000	 23.9806
6.368000	 23.6878
6.452000	 23.9226
6.536000	 23.843
6.620000	 23.9994
6.704000	 23.6361
6.788000	 23.5709
6.872000	 23.5203
6.956000	 23.1955
7.040000	 23.3735
7.124000	 23.4471
7.208000	 23.1302
7.292000	 23.3265
7.376000	 23.0549
7.460000	 23.044
7.544000	 23.1521
7.628000	 22.9339
7.712000	 23.0303
7.796000	 22.9312
7.880000	 22.7003
7.964000	 22.7657
8.048000	 22.6509
8.132000	 22.4453
8.216000	 22.5227
8.300000	 22.3315
8.384000	 22.3282
8.468000	 22.4374
8.552000	 22.2945
8.635999	 21.9278
8.719999	 22.1244
8.804000	 22.0498
8.888000	 21.7778
8.972000	 21.7728
9.056000	 21.7443
9.140000	 21.6279
9.224000	 21.6251
9.308000	 21.5408
9.391999	 21.6223
9.475999	 21.5523
9.560000	 21.32
9.644000	 20.9535
9.728000	 21.0525
9.812000	 20.9916
9.896000	 20.5517
9.980000	 20.5501
10.064	20.6217
10.148	20.7116
10.232	20.4916
10.316	20.0576
10.4	20.0954
10.484	20.1415
10.568	20.0006
10.652	19.8087
10.736	19.6011
10.82	19.5481
10.904	19.6226
10.988	19.7323
11.072	19.5563
11.156	19.2826
11.24	19.1712
11.324	19.0963
11.408	19.3074
11.492	19.2487
11.576	18.9296
11.66	18.7727
11.744	18.5451
11.828	18.3893
11.912	18.3565
11.996	18.3622
12.08	18.3682
12.164	18.1714
12.248	17.9845
12.332	17.8375
12.416	17.8625
12.5	17.9878
12.584	17.8015
12.668	17.53
12.752	17.4008
12.836	17.3764
12.92	17.3395
13.004	17.2488
13.088	17.2687
13.172	17.4408
13.256	17.4153
13.34	17.2038
13.424	17.0424
13.508	16.8505
13.592	16.5431
13.676	16.3785
13.76	16.4266
13.844	16.3735
13.928	16.1791
14.012	16.0265
14.096	15.9953
14.18	15.9197
14.264	15.7786
14.348	15.8757
14.432	16.155
14.516	16.208
14.6	15.9662
14.684	15.7666
14.768	15.7536
14.852	15.6974
14.936	15.4919
15.02	15.2988
15.104	15.1718
15.188	15.0393
15.272	14.9025
15.356	14.8587
15.44	14.8868
15.524	14.8594
15.608	14.8182
15.692	14.7978
15.776	14.689
15.86	14.5076
15.944	14.3546
16.028	14.2133
16.112	14.0605
16.196	13.9682
16.28	13.9512
16.364	13.8592
16.448	13.6053
16.532	13.4138
16.616	13.4921
16.7	13.6663
16.784	13.6846
16.868	13.5662
16.952	13.4579
17.036	13.3852
17.12	13.2673
17.204	13.0836
17.288	12.9496
17.372	12.9644
17.456	13.0442
17.54	13.0233
17.624	12.8538
17.708	12.6092
17.792	12.3617
17.876	12.1551
17.96	12.0439
18.044	12.0601
18.128	12.1541
18.212	12.2394
18.296	12.2841
18.38	12.313
18.464	12.3213
18.548	12.2546
18.632	12.0918
18.716	11.8892
18.8	11.7364
18.884	11.6958
18.968	11.7861
19.052	11.9638
19.136	12.1141
19.22	12.1053
19.304	11.8967
19.388	11.5715
19.472	11.2552
19.556	11.0288
19.64	10.9163
19.724	10.9078
19.808	10.9578
19.892	10.9692
19.976	10.8347
20.06	10.5241
20.144	10.1271
20.228	9.798742
20.312	9.658998
20.396	9.730125
20.48	9.948377
20.564	10.2133
20.648	10.4539
20.732	10.6432
20.816	10.7811
20.9	10.8651
20.984	10.8733
21.068	10.7848
21.152	10.6139
21.236	10.4253
21.32	10.3161
21.404	10.3593
21.488	10.5466
21.572	10.769
21.656	10.8483
21.74	10.6264
21.824	10.0584
21.908	9.264101
21.992	8.483066
22.076	7.959641
22.16	7.822072
22.244	8.010495
22.328	8.336987
22.412	8.602229
22.496	8.689828
22.58	8.599628
22.664	8.391074
22.748	8.129009
22.832	7.866626
22.916	7.663959
23	7.597273
23.084	7.737401
23.168	8.107159
23.252	8.640872
23.336	9.193132
23.42	9.630987
23.504	9.879419
23.588	9.953687
23.672	9.922393
23.756	9.842439
23.84	9.698304
23.924	9.421396
24.008	8.932970
24.092	8.201705
24.176	7.309506
24.26	6.442894
24.344	5.836017
24.428	5.652123
24.512	5.949581
24.596	6.609737
24.68	7.357239
24.764	7.851212
24.848	7.769823
24.932	6.940505
25.016	5.432322
25.1	3.439797
25.184	1.329203
25.268	-0.481323
25.352	-1.663420
25.436	-1.949765
25.52	-1.189884
25.604	0.627805
25.688	3.315810
25.772	6.463605
25.856	9.515479
25.94	11.8196
26.024	12.8216
26.108	12.3042
26.192	10.3032
26.276	7.051040
26.36	2.974516
26.444	-1.487386
26.528	-6.076493
26.612	-10.6564
26.696	-15.4744
26.78	-21.1311
26.864	-28.1339
26.948	-36.5635
27.028	-45.4029

File: LPE453_t37_cm-1.asc
PE IR       SPECTRUM    SPECTRUM    ASCII       PEDS        1.60
  -1
LPE8DA~1.ASC
17/05/16
17:22:26.00
17/05/16
17:22:26.00
tln
$LPE453_t0037$<tbV0>[5.2,-5.2,8.0,0.0,27,1,0]
370
64

2002,4.07
MIRTGS : RIGHTBACK : INTERNAL 2
MIR : ON : INTERNAL 2
OPTKBR

0.200000
8
8.000000
FILLER
RATIO
SPECTRUM
UNLOCKED 256

DOUBLE
64
COMBINED
1
0
0

1.000000
RATIO

1
0
TRUE
51149
0
LEFT NOT FITTED RIGHT NOT FITTED 0
NONE
NONE
15600
12
4.427000
51148
TRUE
1 0 8 72 0 0 0 0

15798

#HDR
-1
-1
#GR
CM-1
%T
2.38419e-05
0.0
5000
-1.000000
4631
8
27.3683
-45.4029
#DATA
5000	-0.066399
4984	0.164222
4968	0.351762
4952	0.401544
4936	0.163292
4920	0.206637
4904	-0.140023
4888	0.594067
4872	0.578880
4856	0.387644
4840	0.330638
4824	0.440835
4808	0.218009
4792	0.496268
4776	0.434875
4760	0.003480
4744	0.055384
4728	0.103640
4712	0.503063
4696	0.447773
4680	0.503182
4664	0.550031
4648	0.818443
4632	0.693368
4616	0.528597
4600	0.303125
4584	-0.136232
4568	-0.654363
4552	-0.610828
4536	-0.970196
4520	12.3224
4504	-1.785492
4488	-2.019834
4472	-0.506448
4456	-0.875210
4440	-0.469470
4424	0.128602
4408	0.276207
4392	0.502586
4376	0.398349
4360	0.499176
4344	0.433230
4328	0.442051
4312	-0.055408
4296	-0.260686
4280	0.040698
4264	0.389289
4248	0.204896
4232	0.313544
4216	0.275611
4200	0.069665
4184	0.572681
4168	0.100803
4152	0.207924
4136	-0.071549
4120	0.132298
4104	-0.075984
4088	0.053334
4072	0.180816
4056	0.057291
4040	0.369572
4024	0.070667
4008	0.193929
3992	0.175023
3976	-0.080275
3960	0.203657
3944	0.007867
3928	0.093626
3912	-0.035357
3896	-0.008940
3880	0.169801
3864	0.098705
3848	0.070261
3832	0.168657
3816	-0.105857
3800	0.104475
3784	0.239682
3768	0.121355
3752	-0.103878
3736	0.010800
3720	0.225448
3704	0.007033
3688	0.091600
3672	0.288486
3656	0.149559
3640	-0.158095
3624	0.218915
3608	-0.033521
3592	0.027418
3576	0.021719
3560	-0.107550
3544	0.085425
3528	0.125265
3512	0.028133
3496	-0.088548
3480	0.019097
3464	0.332999
3448	-0.085616
3432	-0.016713
3416	0.046539
3400	0.156140
3384	0.015115
3368	0.098586
3352	0.010061
3336	0.007438
3320	0.162982
3304	0.043892
3288	-0.062274
3272	0.149989
3256	-0.074863
3240	0.030231
3224	0.030589
3208	0.123381
3192	0.098013
3176	-0.015974
3160	-0.136923
3144	0.198483
3128	0.215744
3112	-0.068354
3096	-0.052928
3080	0.084471
3064	0.121212
3048	0.060272
3032	-0.018000
3016	0.013542
3000	0.042581
2984	0.067830
2968	-0.059390
2952	0.030326
2936	0.087118
2920	0.046038
2904	-0.029158
2888	0.028157
2872	0.050592
2856	-0.034761
2840	0.017642
2824	0.085377
2808	-0.046682
2792	0.151562
2776	-0.029516
2760	0.059127
2744	-0.023674
2728	0.034213
2712	-0.039649
2696	-0.051307
2680	-0.005340
2664	0.072026
2648	-0.010871
2632	-0.020051
2616	0.113344
2600	0.089526
2584	-0.046157
2568	0.040626
2552	0.014305
2536	0.072479
2520	-0.023770
2504	0.056576
2488	0.064301
2472	0.082039
2456	0.226807
2440	0.080132
2424	0.069427
2408	-0.096940
2392	-0.062394
2376	-0.100755
2360	0.035595
2344	-0.077438
2328	-0.005960
2312	0.006055
2296	-0.089597
2280	-0.025343
2264	-0.061154
2248	0.134468
2232	0.213599
2216	0.393438
2200	0.813317
2184	1.124048
2168	1.732921
2152	2.569866
2136	3.551268
2120	4.506731
2104	5.682873
2088	6.890702
2072	8.437323
2056	9.699320
2040	11.2882
2024	12.7207
2008	14.0537
1992	15.203
1976	16.3111
1960	17.403
1944	18.2842
1928	19.0536
1912	19.8575
1896	20.5151
1880	21.1431
1864	21.538
1848	21.9861
1832	22.2997
1816	22.8089
1800	22.8981
1784	23.19
1768	23.2747
1752	23.3329
1736	23.6921
1720	23.5666
1704	23.8343
1688	23.7883
1672	23.8594
1656	23.8475
1640	23.9606
1624	23.9918
1608	23.8789
1592	23.9744
1576	23.7363
1560	23.9931
1544	23.8465
1528	23.8477
1512	24.024
1496	23.5817
1480	23.7584
1464	23.4988
1448	23.4133
1432	23.1786
1416	23.3753
1400	23.3975
1384	23.1272
1368	23.3526
1352	23.0102
1336	23.1636
1320	23.0518
1304	23.0116
1288	22.9269
1272	22.7233
1256	22.7618
1240	22.5977
1224	22.4683
1208	22.3996
1192	22.3416
1176	22.4152
1160	21.9872
1144	22.1488
1128	21.876
1112	21.7746
1096	21.6109
1080	21.5676
1064	21.641
1048	21.4086
1032	21.0075
1016	20.751
1000	20.5351
984	 20.7126
968	 20.044
952	 20.1391
936	 19.7722
920	 19.6044
904	 19.5833
888	 19.1417
872	 19.3227
856	 18.7157
840	 18.3568
824	 18.2578
808	 17.81
792	 17.6532
776	 17.3602
760	 17.4176
744	 17.0141
728	 16.4089
712	 16.0037
696	 15.9395
680	 15.7503
664	 15.2336
648	 14.8854
632	 14.5888
616	 13.9572
600	 13.6065
584	 13.261
568	 12.9007
552	 12.1394
536	 12.0322
520	 12.0891
504	 10.9738
488	 9.984827
472	 10.5332
456	 9.048962
440	 8.195710
424	 9.953141
408	 5.936622
392	 -1.334357
376	 -9.764528
370	 -45.4029

File: LPE453_t38.asc
PE IR       SPECTRUM    SPECTRUM    ASCII       PEDS        1.60
  -1
LPEF99~1.ASC
17/05/16
17:27:03.00
17/05/16
17:27:29.00
tln
$LPE453_t0038$<tbV0>[2.6,-5.2,8.0,0.0,27,1,0]
27.028
64

2002,4.07
MIRTGS : RIGHTBACK : INTERNAL 2
MIR : ON : INTERNAL 2
OPTKBR

0.200000
8
8.000000
FILLER
RATIO
SPECTRUM
UNLOCKED 256

DOUBLE
64
COMBINED
1
0
0

0.002000
RATIO

1
0
TRUE
51149
0
LEFT NOT FITTED RIGHT NOT FITTED 0
NONE
NONE
15600
12
4.427000
51148
TRUE
1 0 8 72 0 0 0 0

15798

#HDR
-1
-1
#GR
µM
%T
2.38419e-05
0.0
2.000000
0.002000
12515
8
24.7067
-32.1822
#DATA
2.000000	 0.246620
2.084000	 0.351230
2.168000	 0.609025
2.252000	 -0.109067
2.336000	 0.182632
2.420000	 0.207294
2.504000	 0.111880
2.588000	 -0.051673
2.672000	 0.122992
2.756000	 -0.086419
2.840000	 -0.057241
2.924000	 0.002399
3.008000	 0.168138
3.092000	 0.105133
3.176000	 -0.069067
3.260000	 0.017606
3.344000	 -0.061466
3.428000	 -0.014600
3.512000	 0.100160
3.596000	 0.009344
3.680000	 0.091149
3.764000	 0.139774
3.848000	 0.038499
3.932000	 0.120669
4.016000	 0.057603
4.100000	 0.031532
4.184000	 -0.118347
4.268000	 0.015232
4.352000	 0.074160
4.436000	 0.126641
4.520000	 0.495831
4.604000	 1.715231
4.688000	 3.687753
4.772000	 6.666195
4.856000	 9.908656
4.940000	 13.0325
5.024000	 15.7862
5.108000	 17.9621
5.192000	 19.7458
5.276000	 21.096
5.359999	 22.069
5.444000	 22.8672
5.528000	 23.3446
5.612000	 23.8056
5.696000	 24.0773
5.780000	 24.161
5.864000	 24.1889
5.948000	 24.386
6.032000	 24.5259
6.116000	 24.5747
6.200000	 24.5668
6.284000	 24.3811
6.368000	 24.5477
6.452000	 24.399
6.536000	 24.5094
6.620000	 24.4472
6.704000	 24.4658
6.788000	 24.2885
6.872000	 24.3871
6.956000	 24.056
7.040000	 24.2052
7.124000	 24.0356
7.208000	 24.1616
7.292000	 23.9595
7.376000	 23.9735
7.460000	 23.9735
7.544000	 23.803
7.628000	 23.8801
7.712000	 23.7097
7.796000	 23.6837
7.880000	 23.689
7.964000	 23.4768
8.048000	 23.4424
8.132000	 23.4227
8.216000	 23.3049
8.300000	 23.17
8.384000	 23.3162
8.468000	 23.0838
8.552000	 23.0083
8.635999	 23.0385
8.719999	 22.9983
8.804000	 22.9447
8.888000	 22.7116
8.972000	 22.7658
9.056000	 22.6184
9.140000	 22.4992
9.224000	 22.5897
9.308000	 22.5313
9.391999	 22.2729
9.475999	 22.2004
9.560000	 22.2177
9.644000	 22.0652
9.728000	 21.9332
9.812000	 21.8562
9.896000	 21.7395
9.980000	 21.8063
10.064	21.4807
10.148	21.359
10.232	21.3535
10.316	21.3525
10.4	21.3976
10.484	21.2856
10.568	21.0047
10.652	20.9665
10.736	20.8946
10.82	20.7727
10.904	20.7685
10.988	20.552
11.072	20.3497
11.156	20.1959
11.24	20.1774
11.324	20.178
11.408	19.9151
11.492	19.8775
11.576	19.6344
11.66	19.4986
11.744	19.4678
11.828	19.4194
11.912	19.5857
11.996	19.5424
12.08	19.4208
12.164	19.0872
12.248	18.8614
12.332	18.8186
12.416	18.6526
12.5	18.4943
12.584	18.5365
12.668	18.4121
12.752	18.2661
12.836	18.2248
12.92	18.3056
13.004	18.3324
13.088	18.1512
13.172	17.9684
13.256	17.9603
13.34	17.96
13.424	17.5774
13.508	17.3564
13.592	17.3071
13.676	17.2947
13.76	17.5318
13.844	17.6211
13.928	17.2992
14.012	16.9786
14.096	16.854
14.18	16.7462
14.264	16.6568
14.348	16.7042
14.432	16.7058
14.516	16.4899
14.6	16.3235
14.684	16.314
14.768	16.2678
14.852	16.0861
14.936	15.7934
15.02	15.5145
15.104	15.4212
15.188	15.5475
15.272	15.7166
15.356	15.8199
15.44	15.83
15.524	15.6654
15.608	15.4424
15.692	15.3314
15.776	15.2296
15.86	15.104
15.944	15.0816
16.028	15.1096
16.112	15.0626
16.196	14.9643
16.28	14.9175
16.364	14.9915
16.448	15.0989
16.532	15.0327
16.616	14.7166
16.7	14.3077
16.784	14.0416
16.868	14.0171
16.952	14.0883
17.036	14.0714
17.12	13.9885
17.204	13.9181
17.288	13.8183
17.372	13.6696
17.456	13.5764
17.54	13.5925
17.624	13.6181
17.708	13.579
17.792	13.527
17.876	13.4916
17.96	13.3829
18.044	13.1319
18.128	12.8234
18.212	12.6129
18.296	12.5722
18.38	12.655
18.464	12.7626
18.548	12.8243
18.632	12.837
18.716	12.8275
18.8	12.7845
18.884	12.6639
18.968	12.4669
19.052	12.2596
19.136	12.0871
19.22	11.9252
19.304	11.7492
19.388	11.6122
19.472	11.5942
19.556	11.7049
19.64	11.8667
19.724	11.9899
19.808	12.0392
19.892	12.0216
19.976	11.9543
20.06	11.8635
20.144	11.798
20.228	11.8055
20.312	11.8734
20.396	11.9067
20.48	11.7847
20.564	11.469
20.648	11.0602
20.732	10.749
20.816	10.6916
20.9	10.8961
20.984	11.2254
21.068	11.4878
21.152	11.5574
21.236	11.4349
21.32	11.221
21.404	11.0302
21.488	10.925
21.572	10.9078
21.656	10.9619
21.74	11.0803
21.824	11.2544
21.908	11.434
21.992	11.5106
22.076	11.3637
22.16	10.9556
22.244	10.4017
22.328	9.917774
22.412	9.694962
22.496	9.761578
22.58	9.974285
22.664	10.1209
22.748	10.0439
22.832	9.733885
22.916	9.301642
23	8.897438
23.084	8.623433
23.168	8.519051
23.252	8.579850
23.336	8.787974
23.42	9.108392
23.504	9.480787
23.588	9.816335
23.672	10.0134
23.756	9.975009
23.84	9.634709
23.924	8.991480
24.008	8.128738
24.092	7.206395
24.176	6.405026
24.26	5.915219
24.344	5.834871
24.428	6.095617
24.512	6.526645
24.596	6.926108
24.68	7.153527
24.764	7.195261
24.848	7.177650
24.932	7.268904
25.016	7.545683
25.1	7.914746
25.184	8.185392
25.268	8.201455
25.352	7.941030
25.436	7.583665
25.52	7.370802
25.604	7.387343
25.688	7.478026
25.772	7.201708
25.856	5.958400
25.94	3.053640
26.024	-1.982292
26.108	-9.018873
26.192	-17.1483
26.276	-24.8537
26.36	-30.2774
26.444	-32.182
26.528	-30.4432
26.612	-26.1571
26.696	-21.0297
26.78	-16.7131
26.864	-14.0564
26.948	-13.1176
27.028	-13.6626

File: LPE453_t38_cm-1.asc
PE IR       SPECTRUM    SPECTRUM    ASCII       PEDS        1.60
  -1
LPE859~1.ASC
17/05/16
17:27:03.00
17/05/16
17:27:03.00
tln
$LPE453_t0038$<tbV0>[2.6,-5.2,8.0,0.0,27,1,0]
370
64

2002,4.07
MIRTGS : RIGHTBACK : INTERNAL 2
MIR : ON : INTERNAL 2
OPTKBR

0.200000
8
8.000000
FILLER
RATIO
SPECTRUM
UNLOCKED 256

DOUBLE
64
COMBINED
1
0
0

1.000000
RATIO

1
0
TRUE
51149
0
LEFT NOT FITTED RIGHT NOT FITTED 0
NONE
NONE
15600
12
4.427000
51148
TRUE
1 0 8 72 0 0 0 0

15798

#HDR
-1
-1
#GR
CM-1
%T
2.38419e-05
0.0
5000
-1.000000
4631
8
24.7062
-32.1574
#DATA
5000	0.246620
4984	-0.152301
4968	0.543904
4952	0.099778
4936	0.043010
4920	0.055670
4904	-0.177049
4888	0.056791
4872	0.376415
4856	0.339651
4840	0.170278
4824	0.347089
4808	-0.060391
4792	0.077033
4776	-0.291824
4760	0.297474
4744	-0.158667
4728	0.631737
4712	0.184249
4696	0.284695
4680	0.475716
4664	0.604605
4648	0.617098
4632	0.193953
4616	0.567746
4600	0.434851
4584	-0.412869
4568	-0.376677
4552	-0.733661
4536	-1.126337
4520	8.268857
4504	3.229093
4488	0.549888
4472	0.164604
4456	0.197339
4440	-0.095081
4424	0.227665
4408	0.269460
4392	0.024819
4376	0.501108
4360	0.143575
4344	0.192189
4328	0.310778
4312	0.001835
4296	0.236582
4280	0.173139
4264	0.234532
4248	0.261783
4232	0.198316
4216	0.257277
4200	0.029969
4184	0.109744
4168	0.682878
4152	0.081849
4136	0.069379
4120	0.165414
4104	0.207829
4088	-0.054526
4072	0.165200
4056	0.095367
4040	0.002956
4024	0.078964
4008	0.199937
3992	0.135254
3976	0.259113
3960	0.086951
3944	0.024914
3928	0.049591
3912	0.072765
3896	0.016331
3880	-0.272893
3864	-0.051665
3848	0.212001
3832	0.178050
3816	-0.081992
3800	0.188589
3784	0.045204
3768	0.109791
3752	0.215482
3736	0.041723
3720	0.130701
3704	0.100970
3688	-0.027728
3672	0.009083
3656	0.191044
3640	-0.018358
3624	-0.094056
3608	0.012469
3592	-0.031399
3576	0.211811
3560	0.006747
3544	-0.033092
3528	0.043129
3512	0.063204
3496	0.040411
3480	-0.025558
3464	0.038623
3448	0.107049
3432	0.041723
3416	-0.070285
3400	0.034046
3384	0.181078
3368	0.072884
3352	0.176358
3336	-0.140762
3320	0.094556
3304	-0.058722
3288	-0.027370
3272	0.085377
3256	0.079059
3240	0.084948
3224	-0.226068
3208	0.027585
3192	0.069236
3176	-0.000143
3160	0.099539
3144	-0.010013
3128	0.447916
3112	-0.127172
3096	-0.050449
3080	0.129270
3064	0.122046
3048	0.014901
3032	0.092339
3016	0.087380
3000	-0.146031
2984	-0.066399
2968	0.203394
2952	0.061750
2936	0.092673
2920	0.043582
2904	0.109362
2888	0.109362
2872	0.040411
2856	0.086736
2840	-0.005841
2824	0.061583
2808	0.030469
2792	0.015449
2776	-0.013899
2760	0.057482
2744	0.041055
2728	0.038862
2712	0.030994
2696	0.056862
2680	0.016927
2664	0.024509
2648	0.044131
2632	0.069427
2616	0.088524
2600	0.044488
2584	0.032210
2568	-0.026655
2552	0.048828
2536	0.029468
2520	-0.002861
2504	0.108408
2488	-0.020003
2472	-0.023937
2456	0.077557
2440	0.029802
2424	0.218439
2408	0.002336
2392	-0.143647
2376	0.053787
2360	0.107550
2344	0.021743
2328	-0.027966
2312	-0.033378
2296	0.068163
2280	-0.047636
2264	0.152873
2248	0.019431
2232	0.255942
2216	0.432109
2200	0.835895
2184	1.332950
2168	1.847171
2152	2.730512
2136	3.552412
2120	4.630899
2104	5.963373
2088	7.285022
2072	8.706808
2056	10.2069
2040	11.6887
2024	13.0593
2008	14.4433
1992	15.6598
1976	16.7756
1960	17.8207
1944	18.7725
1928	19.6772
1912	20.3814
1896	21.0639
1880	21.5271
1864	22.1191
1848	22.5629
1832	22.9275
1816	23.1988
1800	23.5558
1784	23.7899
1768	23.8387
1752	24.0158
1736	24.1076
1720	24.4331
1704	24.1879
1688	24.405
1672	24.4815
1656	24.555
1640	24.6915
1624	24.4991
1608	24.632
1592	24.3829
1576	24.4895
1560	24.4226
1544	24.4911
1528	24.4997
1512	24.4794
1496	24.4856
1480	24.3076
1464	24.4532
1448	24.1679
1432	24.2947
1416	24.1472
1400	23.9795
1384	24.1766
1368	23.9408
1352	23.913
1336	23.8728
1320	23.7396
1304	23.8449
1288	23.6031
1272	23.7027
1256	23.4771
1240	23.4203
1224	23.3738
1208	23.187
1192	23.323
1176	22.9884
1160	23.0614
1144	22.9961
1128	22.7429
1112	22.7359
1096	22.4984
1080	22.6284
1064	22.262
1048	22.2442
1032	21.9471
1016	21.795
1000	21.7594
984	 21.3391
968	 21.3487
952	 21.2188
936	 20.9719
920	 20.7685
904	 20.3672
888	 20.2073
872	 19.8996
856	 19.4818
840	 19.5696
824	 19.2239
808	 18.7573
792	 18.4988
776	 18.2568
760	 17.9946
744	 17.5036
728	 17.4519
712	 16.9146
696	 16.7216
680	 16.3123
664	 15.4384
648	 15.8359
632	 15.1532
616	 14.9306
600	 14.465
584	 13.9854
568	 13.6177
552	 12.8648
536	 12.8359
520	 11.9033
504	 12.0393
488	 11.7514
472	 11.5259
456	 11.4693
440	 10.0869
424	 9.806036
408	 6.515312
392	 7.383322
376	 -27.0912
370	 -13.6626