Folder: Masteroppgave/Bakgrunnsmateriale/MATLAB/FTIR/ftir_data/LPE453/Mapping_121 (part 43)

File: LPE453_t99.asc
PE IR       SPECTRUM    SPECTRUM    ASCII       PEDS        1.60
  -1
LPE7BD~1.ASC
17/05/16
22:29:43.00
17/05/16
22:30:09.00
tln
$LPE453_t0099$<tbV0>[-13.0,7.8,8.0,0.0,27,1,0]
27.028
64

2002,4.07
MIRTGS : RIGHTBACK : INTERNAL 2
MIR : ON : INTERNAL 2
OPTKBR

0.200000
8
8.000000
FILLER
RATIO
SPECTRUM
UNLOCKED 256

DOUBLE
64
COMBINED
1
0
0

0.002000
RATIO

1
0
TRUE
51149
0
LEFT NOT FITTED RIGHT NOT FITTED 0
NONE
NONE
15600
12
4.427000
51148
TRUE
1 0 8 72 0 0 0 0

15798

#HDR
-1
-1
#GR
µM
%T
2.38419e-05
0.0
2.000000
0.002000
12515
8
34.873
-10.1551
#DATA
2.000000	 0.485372
2.084000	 0.828479
2.168000	 1.187463
2.252000	 -1.298300
2.336000	 -0.122751
2.420000	 0.315567
2.504000	 0.235465
2.588000	 -0.112917
2.672000	 0.094022
2.756000	 -0.004922
2.840000	 0.144762
2.924000	 -0.015974
3.008000	 0.137902
3.092000	 0.017207
3.176000	 0.070021
3.260000	 0.119086
3.344000	 -0.107005
3.428000	 -0.036353
3.512000	 0.102125
3.596000	 0.067267
3.680000	 0.124525
3.764000	 0.044652
3.848000	 0.098199
3.932000	 0.087343
4.016000	 0.011562
4.100000	 0.080024
4.184000	 -0.024437
4.268000	 0.202404
4.352000	 0.439097
4.436000	 1.352391
4.520000	 3.040758
4.604000	 5.814908
4.688000	 9.618066
4.772000	 13.9371
4.856000	 17.9509
4.940000	 21.4587
5.024000	 24.3138
5.108000	 26.6084
5.192000	 28.2989
5.276000	 29.7221
5.359999	 30.7399
5.444000	 31.4267
5.528000	 32.1188
5.612000	 32.5569
5.696000	 33.032
5.780000	 33.3322
5.864000	 33.577
5.948000	 33.84
6.032000	 33.9934
6.116000	 34.0662
6.200000	 34.2231
6.284000	 34.3296
6.368000	 34.4457
6.452000	 34.6409
6.536000	 34.5232
6.620000	 34.7278
6.704000	 34.6857
6.788000	 34.6587
6.872000	 34.8218
6.956000	 34.7442
7.040000	 34.7205
7.124000	 34.8131
7.208000	 34.7803
7.292000	 34.7324
7.376000	 34.7023
7.460000	 34.6075
7.544000	 34.7544
7.628000	 34.7327
7.712000	 34.6686
7.796000	 34.5955
7.880000	 34.6979
7.964000	 34.4989
8.048000	 34.3835
8.132000	 34.4536
8.216000	 34.412
8.300000	 34.3883
8.384000	 34.2339
8.468000	 34.1411
8.552000	 33.9858
8.635999	 34.242
8.719999	 34.2318
8.804000	 34.0475
8.888000	 33.9295
8.972000	 33.7093
9.056000	 33.8625
9.140000	 33.6478
9.224000	 33.7085
9.308000	 33.5129
9.391999	 33.3465
9.475999	 33.1489
9.560000	 33.1025
9.644000	 33.2305
9.728000	 33.0676
9.812000	 32.9547
9.896000	 32.8455
9.980000	 32.6455
10.064	32.5373
10.148	32.6302
10.232	32.7909
10.316	32.5522
10.4	32.369
10.484	32.0864
10.568	32.0646
10.652	31.9753
10.736	31.8121
10.82	31.7855
10.904	31.7435
10.988	31.656
11.072	31.5962
11.156	31.2353
11.24	31.1164
11.324	30.9901
11.408	30.907
11.492	30.8175
11.576	30.9149
11.66	30.962
11.744	30.9682
11.828	30.7788
11.912	30.4705
11.996	30.2631
12.08	30.099
12.164	29.8288
12.248	29.8714
12.332	30.0799
12.416	30.043
12.5	29.9866
12.584	30.0501
12.668	30.0204
12.752	29.8894
12.836	29.7402
12.92	29.5622
13.004	29.2603
13.088	29.0327
13.172	28.8044
13.256	28.7044
13.34	29.0136
13.424	29.2029
13.508	28.9434
13.592	28.7373
13.676	28.7101
13.76	28.7534
13.844	28.6072
13.928	28.2755
14.012	28.0671
14.096	27.8797
14.18	27.7371
14.264	27.7419
14.348	27.7316
14.432	27.7385
14.516	27.8696
14.6	27.9491
14.684	27.8962
14.768	27.911
14.852	27.9981
14.936	27.9958
15.02	27.8712
15.104	27.5285
15.188	27.0654
15.272	26.799
15.356	26.7161
15.44	26.6721
15.524	26.7003
15.608	26.8016
15.692	26.9067
15.776	27.003
15.86	27.0703
15.944	27.0152
16.028	26.8208
16.112	26.6194
16.196	26.5393
16.28	26.5776
16.364	26.6199
16.448	26.5538
16.532	26.3906
16.616	26.2427
16.7	26.1607
16.784	26.0809
16.868	25.9457
16.952	25.7805
17.036	25.6435
17.12	25.5624
17.204	25.5002
17.288	25.375
17.372	25.1798
17.456	25.0659
17.54	25.1969
17.624	25.5164
17.708	25.7867
17.792	25.859
17.876	25.7891
17.96	25.6866
18.044	25.5775
18.128	25.4414
18.212	25.2803
18.296	25.1015
18.38	24.8956
18.464	24.6617
18.548	24.4331
18.632	24.271
18.716	24.2293
18.8	24.3074
18.884	24.4309
18.968	24.4926
19.052	24.4466
19.136	24.3389
19.22	24.2432
19.304	24.1786
19.388	24.1176
19.472	24.0608
19.556	24.0638
19.64	24.1711
19.724	24.3343
19.808	24.4341
19.892	24.3859
19.976	24.2249
20.06	24.0728
20.144	24.0246
20.228	24.0612
20.312	24.0577
20.396	23.8803
20.48	23.4882
20.564	22.9713
20.648	22.5033
20.732	22.241
20.816	22.2409
20.9	22.4433
20.984	22.7182
21.068	22.9368
21.152	23.0222
21.236	22.9585
21.32	22.7789
21.404	22.5522
21.488	22.3572
21.572	22.2528
21.656	22.2464
21.74	22.2883
21.824	22.3081
21.908	22.2754
21.992	22.2266
22.076	22.2397
22.16	22.3746
22.244	22.5975
22.328	22.8074
22.412	22.9038
22.496	22.85
22.58	22.7025
22.664	22.5585
22.748	22.4879
22.832	22.4977
22.916	22.5321
23	22.5095
23.084	22.3733
23.168	22.1124
23.252	21.7771
23.336	21.4825
23.42	21.3853
23.504	21.622
23.588	22.2224
23.672	23.0669
23.756	23.8825
23.84	24.3508
23.924	24.2177
24.008	23.4083
24.092	22.0607
24.176	20.4497
24.26	18.879
24.344	17.5947
24.428	16.7222
24.512	16.3504
24.596	16.5141
24.68	17.1708
24.764	18.1687
24.848	19.2403
24.932	20.0723
25.016	20.433
25.1	20.241
25.184	19.5797
25.268	18.6557
25.352	17.7065
25.436	16.8967
25.52	16.273
25.604	15.7987
25.688	15.3672
25.772	14.8298
25.856	14.0263
25.94	12.7884
26.024	10.9691
26.108	8.510907
26.192	5.517141
26.276	2.270064
26.36	-0.766562
26.444	-3.174943
26.528	-4.751810
26.612	-5.633024
26.696	-6.170922
26.78	-6.780154
26.864	-7.724125
26.948	-8.975060
27.028	-10.1551

File: LPE453_t99_cm-1.asc
PE IR       SPECTRUM    SPECTRUM    ASCII       PEDS        1.60
  -1
LPEBDC~1.ASC
17/05/16
22:29:43.00
17/05/16
22:29:43.00
tln
$LPE453_t0099$<tbV0>[-13.0,7.8,8.0,0.0,27,1,0]
370
64

2002,4.07
MIRTGS : RIGHTBACK : INTERNAL 2
MIR : ON : INTERNAL 2
OPTKBR

0.200000
8
8.000000
FILLER
RATIO
SPECTRUM
UNLOCKED 256

DOUBLE
64
COMBINED
1
0
0

1.000000
RATIO

1
0
TRUE
51149
0
LEFT NOT FITTED RIGHT NOT FITTED 0
NONE
NONE
15600
12
4.427000
51148
TRUE
1 0 8 72 0 0 0 0

15798

#HDR
-1
-1
#GR
CM-1
%T
2.38419e-05
0.0
5000
-1.000000
4631
8
34.8726
-10.1551
#DATA
5000	0.485372
4984	0.253129
4968	0.139355
4952	0.140094
4936	0.307369
4920	-0.034189
4904	0.433802
4888	0.206470
4872	0.127553
4856	0.309753
4840	0.120401
4824	0.647234
4808	0.369691
4792	0.722265
4776	0.398135
4760	-0.079202
4744	0.533390
4728	0.454545
4712	-0.142741
4696	-0.530266
4680	0.776576
4664	0.182676
4648	0.941634
4632	3.661632
4616	0.982761
4600	0.554656
4584	-0.085234
4568	-0.826478
4552	-1.456785
4536	-1.502847
4520	-1.759457
4504	11.8797
4488	13.5709
4472	-0.236392
4456	-1.779532
4440	-1.366734
4424	-0.623154
4408	0.143861
4392	0.336122
4376	0.863361
4360	0.510001
4344	0.153970
4328	0.313568
4312	0.022816
4296	0.109386
4280	-0.071692
4264	0.142574
4248	0.157117
4232	0.140213
4216	0.249743
4200	0.258898
4184	0.064253
4168	0.482845
4152	0.386166
4136	0.297260
4120	0.210046
4104	0.057864
4088	-0.055575
4072	-0.101947
4056	0.116133
4040	0.087976
4024	-0.050473
4008	0.259280
3992	0.161027
3976	0.158762
3960	0.084424
3944	0.229811
3928	0.125646
3912	0.245475
3896	0.089788
3880	0.156736
3864	-0.112724
3848	-0.122785
3832	0.198507
3816	0.017428
3800	-0.057578
3784	0.147986
3768	0.027179
3752	-0.069022
3736	0.010871
3720	0.019574
3704	-0.036430
3688	0.085735
3672	-0.080227
3656	0.061464
3640	0.046825
3624	0.041818
3608	-0.213813
3592	0.085616
3576	0.165319
3560	0.007581
3544	-0.001454
3528	0.122737
3512	0.052762
3496	-0.000810
3480	0.190758
3464	0.061297
3448	0.008988
3432	0.076436
3416	0.113487
3400	0.122809
3384	-0.083136
3368	0.027942
3352	0.228667
3336	0.048398
3320	0.086045
3304	-0.151324
3288	0.076818
3272	-0.018978
3256	0.009012
3240	0.022196
3224	0.006079
3208	-0.018715
3192	-0.010895
3176	0.054907
3160	0.125384
3144	0.157856
3128	0.176978
3112	0.197052
3096	0.120329
3080	0.171709
3064	0.148725
3048	0.088810
3032	-0.225162
3016	-0.018954
3000	-0.056171
2984	0.006461
2968	0.116014
2952	0.115776
2936	0.034427
2920	-0.016593
2904	0.020027
2888	0.100469
2872	0.116682
2856	0.085568
2840	-0.044918
2824	-0.073170
2808	0.095367
2792	-0.022935
2776	0.042724
2760	0.094294
2744	0.044012
2728	0.013065
2712	0.096869
2696	0.074243
2680	0.038814
2664	0.077271
2648	-0.002527
2632	-0.036525
2616	0.099349
2600	0.103807
2584	0.016951
2568	-0.052547
2552	0.099086
2536	0.052309
2520	0.109076
2504	-0.015950
2488	0.038838
2472	0.104331
2456	-0.005793
2440	0.081181
2424	0.047588
2408	0.028252
2392	-0.048732
2376	0.061273
2360	0.172805
2344	0.209093
2328	0.267148
2312	0.330281
2296	0.461077
2280	0.727248
2264	1.085019
2248	1.512670
2232	2.070569
2216	2.836847
2200	3.752350
2184	4.766440
2168	6.149029
2152	7.673025
2136	9.303355
2120	11.2346
2104	12.9558
2088	14.7703
2072	16.647
2056	18.2971
2040	20.0311
2024	21.4832
2008	22.933
1992	24.2029
1976	25.4188
1960	26.4851
1944	27.4029
1928	28.1727
1912	29.0377
1896	29.694
1880	30.1505
1864	30.8061
1848	31.1753
1832	31.5691
1816	31.9386
1800	32.3443
1784	32.5365
1768	32.7723
1752	33.0843
1736	33.22
1720	33.5283
1704	33.5922
1688	33.7539
1672	33.778
1656	34.006
1640	34.0113
1624	34.1558
1608	34.2445
1592	34.3132
1576	34.4371
1560	34.5854
1544	34.5794
1528	34.5273
1512	34.699
1496	34.7342
1480	34.7249
1464	34.5721
1448	34.8618
1432	34.6748
1416	34.699
1400	34.7969
1384	34.797
1368	34.6824
1352	34.7144
1336	34.7337
1320	34.7062
1304	34.7463
1288	34.588
1272	34.6674
1256	34.5035
1240	34.3205
1224	34.4297
1208	34.4241
1192	34.2211
1176	34.0892
1160	34.1993
1144	34.173
1128	34.0087
1112	33.7412
1096	33.6574
1080	33.7054
1064	33.3231
1048	33.1081
1032	33.1653
1016	32.928
1000	32.6015
984	 32.6879
968	 32.536
952	 32.0701
936	 31.9268
920	 31.8045
904	 31.6163
888	 31.0956
872	 30.8251
856	 30.9698
840	 30.4941
824	 29.9175
808	 30.0814
792	 30.055
776	 29.6501
760	 28.845
744	 29.1749
728	 28.7457
712	 27.9997
696	 27.7241
680	 27.8863
664	 27.739
648	 26.6742
632	 27.0495
616	 26.5471
600	 26.1878
584	 25.56
568	 25.4419
552	 25.4628
536	 24.2447
520	 24.2336
504	 24.4337
488	 23.42
472	 23.0131
456	 22.2616
440	 22.4968
424	 22.1951
408	 16.3533
392	 16.337
376	 -5.499315
370	 -10.1551

File: LPE453_t100.asc
PE IR       SPECTRUM    SPECTRUM    ASCII       PEDS        1.60
  -1
LP9376~1.ASC
17/05/16
22:34:57.00
17/05/16
22:35:23.00
tln
$LPE453_t0100$<tbV0>[13.0,10.4,8.0,0.0,27,1,0]
27.028
64

2002,4.07
MIRTGS : RIGHTBACK : INTERNAL 2
MIR : ON : INTERNAL 2
OPTKBR

0.200000
8
8.000000
FILLER
RATIO
SPECTRUM
UNLOCKED 256

DOUBLE
64
COMBINED
1
0
0

0.002000
RATIO

1
0
TRUE
51149
0
LEFT NOT FITTED RIGHT NOT FITTED 0
NONE
NONE
15600
12
4.427000
51148
TRUE
1 0 8 72 0 0 0 0

15798

#HDR
-1
-1
#GR
µM
%T
2.38419e-05
0.0
2.000000
0.002000
12515
8
24.5732
-10.2397
#DATA
2.000000	 0.186824
2.084000	 0.273853
2.168000	 1.667853
2.252000	 0.151690
2.336000	 -0.084842
2.420000	 0.118789
2.504000	 0.159229
2.588000	 0.042278
2.672000	 0.121545
2.756000	 0.054296
2.840000	 -0.062597
2.924000	 -0.021169
3.008000	 -0.011020
3.092000	 0.106806
3.176000	 0.051823
3.260000	 0.022016
3.344000	 -0.069313
3.428000	 0.024062
3.512000	 0.016052
3.596000	 0.035111
3.680000	 0.056894
3.764000	 0.122148
3.848000	 -0.021065
3.932000	 0.034305
4.016000	 -0.041299
4.100000	 0.087207
4.184000	 0.083960
4.268000	 -0.009616
4.352000	 0.082556
4.436000	 0.154347
4.520000	 0.891520
4.604000	 2.062532
4.688000	 4.256828
4.772000	 7.211225
4.856000	 10.182
4.940000	 13.0258
5.024000	 15.555
5.108000	 17.5193
5.192000	 19.0666
5.276000	 20.2888
5.359999	 21.2548
5.444000	 22.0201
5.528000	 22.5732
5.612000	 23.04
5.696000	 23.3602
5.780000	 23.7
5.864000	 23.8349
5.948000	 24.0973
6.032000	 24.1467
6.116000	 24.2786
6.200000	 24.4396
6.284000	 24.3969
6.368000	 24.4137
6.452000	 24.525
6.536000	 24.4373
6.620000	 24.496
6.704000	 24.3538
6.788000	 24.4367
6.872000	 24.401
6.956000	 24.298
7.040000	 24.3515
7.124000	 24.388
7.208000	 24.1544
7.292000	 24.2045
7.376000	 24.2528
7.460000	 24.125
7.544000	 24.1568
7.628000	 24.0375
7.712000	 24.0676
7.796000	 23.913
7.880000	 23.8452
7.964000	 23.7136
8.048000	 23.7566
8.132000	 23.601
8.216000	 23.71
8.300000	 23.7083
8.384000	 23.5904
8.468000	 23.5442
8.552000	 23.5446
8.635999	 23.5088
8.719999	 23.2931
8.804000	 23.1899
8.888000	 23.2926
8.972000	 23.2247
9.056000	 23.1711
9.140000	 23.174
9.224000	 23.1467
9.308000	 23.072
9.391999	 22.8479
9.475999	 22.9628
9.560000	 22.7496
9.644000	 22.7523
9.728000	 22.7886
9.812000	 22.4958
9.896000	 22.4747
9.980000	 22.426
10.064	22.4298
10.148	22.3188
10.232	22.2466
10.316	22.027
10.4	22.0186
10.484	22.1325
10.568	22.1022
10.652	21.8112
10.736	21.7434
10.82	21.5935
10.904	21.6725
10.988	21.6497
11.072	21.3736
11.156	21.3539
11.24	21.3113
11.324	21.341
11.408	21.0519
11.492	21.0076
11.576	21.0949
11.66	20.9647
11.744	20.7639
11.828	20.495
11.912	20.6354
11.996	20.677
12.08	20.3543
12.164	20.1487
12.248	20.1463
12.332	20.1022
12.416	20.0314
12.5	20.0725
12.584	20.0708
12.668	19.8228
12.752	19.5229
12.836	19.5226
12.92	19.5789
13.004	19.4115
13.088	19.3049
13.172	19.3432
13.256	19.3342
13.34	19.3766
13.424	19.4411
13.508	19.3187
13.592	19.0992
13.676	18.8736
13.76	18.7876
13.844	18.7593
13.928	18.6731
14.012	18.667
14.096	18.6533
14.18	18.644
14.264	18.6679
14.348	18.6385
14.432	18.3798
14.516	18.1125
14.6	18.0904
14.684	18.0302
14.768	17.9206
14.852	17.9253
14.936	17.9006
15.02	17.7342
15.104	17.5457
15.188	17.4608
15.272	17.4388
15.356	17.3808
15.44	17.2574
15.524	17.1183
15.608	17.0187
15.692	16.999
15.776	17.0696
15.86	17.0846
15.944	16.9022
16.028	16.6717
16.112	16.6149
16.196	16.7172
16.28	16.7829
16.364	16.6425
16.448	16.366
16.532	16.1773
16.616	16.1335
16.7	16.1404
16.784	16.1711
16.868	16.1925
16.952	16.1083
17.036	15.8992
17.12	15.6478
17.204	15.4363
17.288	15.318
17.372	15.314
17.456	15.3796
17.54	15.4261
17.624	15.4117
17.708	15.3816
17.792	15.3942
17.876	15.4063
17.96	15.2808
18.044	14.9577
18.128	14.5738
18.212	14.3375
18.296	14.2999
18.38	14.3357
18.464	14.3446
18.548	14.3637
18.632	14.4391
18.716	14.4952
18.8	14.4249
18.884	14.2594
18.968	14.1412
19.052	14.1254
19.136	14.099
19.22	13.9334
19.304	13.673
19.388	13.5024
19.472	13.5501
19.556	13.7733
19.64	14.0281
19.724	14.199
19.808	14.2438
19.892	14.1571
19.976	13.9346
20.06	13.5821
20.144	13.1473
20.228	12.7167
20.312	12.3822
20.396	12.2008
20.48	12.1852
20.564	12.311
20.648	12.5263
20.732	12.7553
20.816	12.9222
20.9	12.9827
20.984	12.9569
21.068	12.9181
21.152	12.9394
21.236	13.0361
21.32	13.1518
21.404	13.2071
21.488	13.1639
21.572	13.0581
21.656	12.963
21.74	12.9255
21.824	12.9205
21.908	12.8628
21.992	12.6887
22.076	12.4176
22.16	12.1401
22.244	11.9622
22.328	11.9166
22.412	11.959
22.496	12.0046
22.58	12.0014
22.664	11.9565
22.748	11.9226
22.832	11.9442
22.916	12.0235
23	12.1159
23.084	12.1539
23.168	12.0577
23.252	11.7578
23.336	11.2039
23.42	10.3975
23.504	9.391505
23.588	8.309000
23.672	7.313156
23.756	6.554126
23.84	6.114780
23.924	5.994926
24.008	6.119842
24.092	6.370792
24.176	6.638748
24.26	6.843955
24.344	6.924575
24.428	6.851244
24.512	6.649479
24.596	6.378459
24.68	6.093023
24.764	5.807311
24.848	5.464456
24.932	4.949528
25.016	4.151308
25.1	3.015883
25.184	1.579898
25.268	-0.004867
25.352	-1.502981
25.436	-2.579732
25.52	-2.901288
25.604	-2.251157
25.688	-0.626567
25.772	1.696205
25.856	4.232948
25.94	6.370978
26.024	7.544737
26.108	7.459044
26.192	6.111466
26.276	3.748017
26.36	0.778728
26.444	-2.315701
26.528	-5.111293
26.612	-7.287517
26.696	-8.722036
26.78	-9.504173
26.864	-9.869948
26.948	-10.0738
27.028	-10.2397

File: LPE453_t100_cm-1.asc
PE IR       SPECTRUM    SPECTRUM    ASCII       PEDS        1.60
  -1
LP0378~1.ASC
17/05/16
22:34:57.00
17/05/16
22:34:57.00
tln
$LPE453_t0100$<tbV0>[13.0,10.4,8.0,0.0,27,1,0]
370
64

2002,4.07
MIRTGS : RIGHTBACK : INTERNAL 2
MIR : ON : INTERNAL 2
OPTKBR

0.200000
8
8.000000
FILLER
RATIO
SPECTRUM
UNLOCKED 256

DOUBLE
64
COMBINED
1
0
0

1.000000
RATIO

1
0
TRUE
51149
0
LEFT NOT FITTED RIGHT NOT FITTED 0
NONE
NONE
15600
12
4.427000
51148
TRUE
1 0 8 72 0 0 0 0

15798

#HDR
-1
-1
#GR
CM-1
%T
2.38419e-05
0.0
5000
-1.000000
4631
8
24.573
-10.2397
#DATA
5000	0.186824
4984	0.265049
4968	-0.101089
4952	0.113272
4936	0.197005
4920	0.019788
4904	0.025725
4888	-0.029087
4872	0.487470
4856	-0.094962
4840	0.057196
4824	0.286889
4808	0.182151
4792	0.244450
4776	0.105834
4760	0.015234
4744	0.462055
4728	0.191736
4712	-0.250172
4696	0.034999
4680	-0.068283
4664	0.192952
4648	0.265383
4632	0.027036
4616	1.168894
4600	0.174498
4584	0.579452
4568	-0.469708
4552	-0.185418
4536	-0.529313
4520	0.365686
4504	5.193424
4488	-2.153897
4472	-0.778484
4456	0.360083
4440	0.182580
4424	-0.180888
4408	0.079846
4392	-0.146198
4376	0.805711
4360	-0.159358
4344	0.471591
4328	0.502395
4312	0.431609
4296	0.238108
4280	-0.136685
4264	0.214719
4248	-0.173139
4232	0.228977
4216	0.081253
4200	0.266194
4184	-0.000381
4168	0.135302
4152	0.076699
4136	0.080108
4120	0.097703
4104	-0.055551
4088	0.175142
4072	-0.000739
4056	0.020599
4040	-0.112962
4024	0.341558
4008	0.198245
3992	0.153803
3976	-0.085949
3960	0.001430
3944	0.198197
3928	0.123858
3912	0.235843
3896	0.238728
3880	0.201034
3864	0.042653
3848	-0.012445
3832	-0.010371
3816	0.097346
3800	0.104951
3784	-0.009465
3768	0.019145
3752	0.128316
3736	-0.026202
3720	-0.037932
3704	0.020360
3688	0.059676
3672	0.003576
3656	-0.017690
3640	0.111055
3624	0.011849
3608	0.042366
3592	0.082707
3576	0.078225
3560	-0.104570
3544	0.073242
3528	-0.060510
3512	0.068378
3496	-0.089669
3480	-0.023794
3464	0.070238
3448	0.014972
3432	0.061655
3416	0.015425
3400	0.219106
3384	0.115942
3368	-0.021266
3352	0.057911
3336	0.026440
3320	0.038599
3304	-0.128579
3288	0.101470
3272	0.034189
3256	0.168323
3240	0.090193
3224	-0.098848
3208	0.105524
3192	0.016164
3176	0.047945
3160	0.132894
3144	0.028109
3128	0.044989
3112	0.137948
3096	-0.015974
3080	-0.030040
3064	0.080132
3048	0.043034
3032	0.112509
3016	-0.044107
3000	0.036382
2984	0.016307
2968	0.046086
2952	0.026392
2936	-0.023078
2920	0.062441
2904	-0.007557
2888	0.016570
2872	-0.010490
2856	-0.110888
2840	0.065422
2824	0.016331
2808	-0.006031
2792	0.088906
2776	0.034379
2760	0.090599
2744	0.052022
2728	0.057077
2712	0.039219
2696	-0.149774
2680	0.038337
2664	0.072312
2648	0.009131
2632	-0.072956
2616	-0.010728
2600	0.009965
2584	0.061988
2568	0.081634
2552	-0.013899
2536	0.079178
2520	-0.067019
2504	0.125002
2488	-0.028657
2472	0.052046
2456	-0.054121
2440	0.075268
2424	0.191617
2408	0.053215
2392	0.107431
2376	0.007891
2360	-0.064730
2344	-0.003194
2328	0.005578
2312	-0.002741
2296	0.122761
2280	0.023746
2264	0.115728
2248	0.274872
2232	0.457191
2216	0.770735
2200	1.190543
2184	1.649975
2168	2.222323
2152	3.102445
2136	4.106259
2120	5.136919
2104	6.453680
2088	7.770371
2072	9.218311
2056	10.4664
2040	11.8118
2024	13.0492
2008	14.2185
1992	15.4501
1976	16.4847
1960	17.3847
1944	18.246
1928	18.9878
1912	19.6824
1896	20.2783
1880	20.8654
1864	21.2957
1848	21.8257
1832	22.1708
1816	22.5281
1800	22.771
1784	22.9964
1768	23.2256
1752	23.4637
1736	23.5944
1720	23.8334
1704	23.8352
1688	24.0414
1672	24.0877
1656	24.1827
1640	24.3065
1624	24.4245
1608	24.4405
1592	24.3889
1576	24.3768
1560	24.4678
1544	24.4752
1528	24.4471
1512	24.4779
1496	24.4201
1480	24.4897
1464	24.4634
1448	24.4913
1432	24.2693
1416	24.2747
1400	24.3581
1384	24.2058
1368	24.2041
1352	24.2449
1336	24.1001
1320	24.0721
1304	24.0272
1288	23.9609
1272	23.8601
1256	23.7179
1240	23.7457
1224	23.5759
1208	23.7351
1192	23.5876
1176	23.4736
1160	23.509
1144	23.2852
1128	23.2808
1112	23.1763
1096	23.1867
1080	23.1155
1064	22.8396
1048	22.7494
1032	22.7635
1016	22.4681
1000	22.4493
984	 22.3166
968	 22.0182
952	 22.1481
936	 21.7612
920	 21.6362
904	 21.4011
888	 21.3299
872	 20.986
856	 20.9159
840	 20.6163
824	 20.1791
808	 20.058
792	 19.9754
776	 19.5828
760	 19.3369
744	 19.4323
728	 18.794
712	 18.6666
696	 18.6002
680	 17.9958
664	 17.6354
648	 17.2707
632	 17.099
616	 16.7649
600	 16.1353
584	 15.6384
568	 15.4189
552	 14.6237
536	 14.4638
520	 13.9024
504	 14.2252
488	 12.1951
472	 12.9719
456	 12.8297
440	 11.9269
424	 8.347988
408	 6.655788
392	 -2.912521
376	 -6.925296
370	 -10.2397

File: LPE453_t101.asc
PE IR       SPECTRUM    SPECTRUM    ASCII       PEDS        1.60
  -1
LP9776~1.ASC
17/05/16
22:39:33.00
17/05/16
22:39:59.00
tln
$LPE453_t0101$<tbV0>[10.4,10.4,8.0,0.0,27,1,0]
27.028
64

2002,4.07
MIRTGS : RIGHTBACK : INTERNAL 2
MIR : ON : INTERNAL 2
OPTKBR

0.200000
8
8.000000
FILLER
RATIO
SPECTRUM
UNLOCKED 256

DOUBLE
64
COMBINED
1
0
0

0.002000
RATIO

1
0
TRUE
51149
0
LEFT NOT FITTED RIGHT NOT FITTED 0
NONE
NONE
15600
12
4.427000
51148
TRUE
1 0 8 72 0 0 0 0

15798

#HDR
-1
-1
#GR
µM
%T
2.38419e-05
0.0
2.000000
0.002000
12515
8
30.1195
-1.159362
#DATA
2.000000	 0.232505
2.084000	 -0.193637
2.168000	 0.200462
2.252000	 0.118439
2.336000	 -0.277647
2.420000	 0.217652
2.504000	 0.355046
2.588000	 0.060236
2.672000	 0.002762
2.756000	 0.135873
2.840000	 0.014897
2.924000	 -0.001295
3.008000	 0.037318
3.092000	 -0.079046
3.176000	 0.165395
3.260000	 0.013202
3.344000	 0.043015
3.428000	 -0.151258
3.512000	 0.071271
3.596000	 0.032361
3.680000	 0.137029
3.764000	 0.072924
3.848000	 0.105498
3.932000	 0.025239
4.016000	 -0.093706
4.100000	 0.026528
4.184000	 0.009015
4.268000	 -0.001943
4.352000	 0.223615
4.436000	 0.758543
4.520000	 2.097324
4.604000	 4.353947
4.688000	 7.501038
4.772000	 11.2961
4.856000	 15.0253
4.940000	 18.1496
5.024000	 20.9424
5.108000	 23.1337
5.192000	 24.7863
5.276000	 26.0525
5.359999	 27.1401
5.444000	 27.8511
5.528000	 28.4012
5.612000	 28.8699
5.696000	 29.1344
5.780000	 29.3549
5.864000	 29.4624
5.948000	 29.7826
6.032000	 29.7938
6.116000	 29.8819
6.200000	 29.9042
6.284000	 29.9183
6.368000	 30.034
6.452000	 29.9439
6.536000	 29.9636
6.620000	 30.0747
6.704000	 29.9319
6.788000	 29.9764
6.872000	 29.9441
6.956000	 29.8515
7.040000	 29.8758
7.124000	 29.898
7.208000	 30.0367
7.292000	 29.9046
7.376000	 29.8819
7.460000	 29.9409
7.544000	 29.905
7.628000	 29.7802
7.712000	 29.8546
7.796000	 29.778
7.880000	 29.7767
7.964000	 29.6344
8.048000	 29.7507
8.132000	 29.6223
8.216000	 29.8284
8.300000	 29.6677
8.384000	 29.6788
8.468000	 29.6751
8.552000	 29.5145
8.635999	 29.5275
8.719999	 29.4526
8.804000	 29.3904
8.888000	 29.4472
8.972000	 29.4784
9.056000	 29.484
9.140000	 29.2819
9.224000	 29.3228
9.308000	 29.2111
9.391999	 29.2055
9.475999	 29.1968
9.560000	 29.1357
9.644000	 28.9781
9.728000	 28.7661
9.812000	 28.8945
9.896000	 29.0885
9.980000	 28.866
10.064	28.7575
10.148	28.7118
10.232	28.5915
10.316	28.3681
10.4	28.5107
10.484	28.6117
10.568	28.441
10.652	28.4422
10.736	28.1711
10.82	28.1387
10.904	28.1476
10.988	28.1425
11.072	28.0224
11.156	27.8616
11.24	27.8069
11.324	27.6997
11.408	27.677
11.492	27.5714
11.576	27.6002
11.66	27.4657
11.744	27.5208
11.828	27.5386
11.912	27.4022
11.996	27.1514
12.08	26.9544
12.164	26.7392
12.248	26.7691
12.332	26.7979
12.416	26.7559
12.5	26.8106
12.584	26.9272
12.668	26.9162
12.752	26.6998
12.836	26.4135
12.92	26.2576
13.004	26.2116
13.088	26.1411
13.172	25.8995
13.256	25.7946
13.34	25.7562
13.424	25.7949
13.508	25.8652
13.592	25.8595
13.676	25.8981
13.76	25.778
13.844	25.5276
13.928	25.3201
14.012	25.279
14.096	25.2689
14.18	25.1369
14.264	24.9748
14.348	24.9795
14.432	24.9542
14.516	24.6639
14.6	24.5232
14.684	24.7032
14.768	24.8741
14.852	24.8822
14.936	24.8004
15.02	24.7079
15.104	24.4987
15.188	24.1744
15.272	23.9824
15.356	23.96
15.44	23.9292
15.524	23.8533
15.608	23.7541
15.692	23.6145
15.776	23.5529
15.86	23.6925
15.944	23.8766
16.028	23.8528
16.112	23.6076
16.196	23.3152
16.28	23.1035
16.364	22.9734
16.448	22.8772
16.532	22.8172
16.616	22.8638
16.7	23.0534
16.784	23.2719
16.868	23.312
16.952	23.103
17.036	22.8074
17.12	22.6304
17.204	22.5971
17.288	22.5978
17.372	22.5908
17.456	22.6268
17.54	22.7053
17.624	22.741
17.708	22.6815
17.792	22.5431
17.876	22.3418
17.96	22.1056
18.044	21.9241
18.128	21.8654
18.212	21.8762
18.296	21.8487
18.38	21.7426
18.464	21.582
18.548	21.386
18.632	21.1765
18.716	21.0095
18.8	20.9287
18.884	20.9088
18.968	20.8935
19.052	20.8847
19.136	20.9506
19.22	21.1244
19.304	21.3266
19.388	21.4311
19.472	21.3958
19.556	21.2913
19.64	21.2052
19.724	21.1395
19.808	21.0355
19.892	20.8608
19.976	20.6411
20.06	20.4056
20.144	20.1517
20.228	19.8754
20.312	19.6009
20.396	19.3636
20.48	19.1806
20.564	19.0461
20.648	18.9689
20.732	18.9743
20.816	19.073
20.9	19.2227
20.984	19.3383
21.068	19.3473
21.152	19.2389
21.236	19.0715
21.32	18.9382
21.404	18.9183
21.488	19.0253
21.572	19.202
21.656	19.3393
21.74	19.3297
21.824	19.1285
21.908	18.7849
21.992	18.4124
22.076	18.1249
22.16	17.9765
22.244	17.9427
22.328	17.9494
22.412	17.9319
22.496	17.8719
22.58	17.8129
22.664	17.8342
22.748	18.0047
22.832	18.3353
22.916	18.7634
23	19.1644
23.084	19.403
23.168	19.3748
23.252	19.0615
23.336	18.532
23.42	17.8887
23.504	17.2459
23.588	16.669
23.672	16.1608
23.756	15.6961
23.84	15.2459
23.924	14.8036
24.008	14.4087
24.092	14.1338
24.176	14.017
24.26	14.0489
24.344	14.1503
24.428	14.2021
24.512	14.1051
24.596	13.8195
24.68	13.4345
24.764	13.1844
24.848	13.3617
24.932	14.2039
25.016	15.7619
25.1	17.9214
25.184	20.4154
25.268	22.9075
25.352	25.0874
25.436	26.619
25.52	27.1907
25.604	26.5744
25.688	24.7234
25.772	21.8515
25.856	18.3726
25.94	14.8237
26.024	11.6595
26.108	9.053521
26.192	6.947856
26.276	5.163514
26.36	3.467373
26.444	1.853916
26.528	0.643760
26.612	0.346514
26.696	1.543296
26.78	4.614495
26.864	9.531129
26.948	15.7663
27.028	22.0201