Folder: Masteroppgave/Bakgrunnsmateriale/MATLAB/FTIR/ftir_data/LPE453/Mapping_121 (part 38)

File: LPE453_t86_cm-1.asc
PE IR       SPECTRUM    SPECTRUM    ASCII       PEDS        1.60
  -1
LP6B5A~1.ASC
17/05/16
21:23:18.00
17/05/16
21:23:18.00
tln
$LPE453_t0086$<tbV0>[-7.8,5.2,8.0,0.0,27,1,0]
370
64

2002,4.07
MIRTGS : RIGHTBACK : INTERNAL 2
MIR : ON : INTERNAL 2
OPTKBR

0.200000
8
8.000000
FILLER
RATIO
SPECTRUM
UNLOCKED 256

DOUBLE
64
COMBINED
1
0
0

1.000000
RATIO

1
0
TRUE
51149
0
LEFT NOT FITTED RIGHT NOT FITTED 0
NONE
NONE
15600
12
4.427000
51148
TRUE
1 0 8 72 0 0 0 0

15798

#HDR
-1
-1
#GR
CM-1
%T
2.38419e-05
0.0
5000
-1.000000
4631
8
37.0356
-1.789474
#DATA
5000	0.585174
4984	0.074505
4968	0.198292
4952	-0.034189
4936	-0.353693
4920	0.419616
4904	0.442814
4888	0.094079
4872	0.265955
4856	0.043702
4840	0.067162
4824	0.330829
4808	-0.249290
4792	0.497674
4776	0.042271
4760	-0.010442
4744	-0.049400
4728	0.575804
4712	0.040054
4696	0.686931
4680	-0.756573
4664	-0.899410
4648	0.174927
4632	-0.338149
4616	-0.060558
4600	1.071357
4584	0.831627
4568	-0.493860
4552	0.056433
4536	0.540256
4520	-0.347137
4504	-0.183725
4488	13.4031
4472	-1.751828
4456	-0.276494
4440	0.059938
4424	0.247764
4408	-0.744152
4392	-0.140428
4376	-0.077271
4360	0.569987
4344	0.484228
4328	0.267338
4312	0.259900
4296	-0.187611
4280	-0.049352
4264	-0.093960
4248	-0.072789
4232	-0.005364
4216	-0.188350
4200	0.109958
4184	0.352120
4168	0.250720
4152	0.084805
4136	0.039243
4120	0.233983
4104	0.174140
4088	0.172615
4072	-0.011658
4056	0.155258
4040	0.061130
4024	-0.000524
4008	0.218772
3992	-0.152850
3976	0.131297
3960	0.051069
3944	0.088834
3928	0.073194
3912	-0.071930
3896	0.028252
3880	0.151991
3864	-0.114035
3848	0.263023
3832	0.083136
3816	0.051307
3800	0.112724
3784	0.133657
3768	0.128412
3752	-0.040578
3736	0.119423
3720	0.095510
3704	0.063490
3688	-0.003862
3672	0.134682
3656	-0.119304
3640	0.010061
3624	-0.047254
3608	0.003695
3592	0.024151
3576	0.082445
3560	-0.107026
3544	-0.054097
3528	-0.000095
3512	-0.014972
3496	0.052976
3480	0.101947
3464	-0.037264
3448	0.059437
3432	0.108957
3416	0.020003
3400	-0.015497
3384	-0.057721
3368	-0.006985
3352	0.049781
3336	0.112271
3320	0.035262
3304	0.029134
3288	-0.076842
3272	0.043964
3256	-0.021004
3240	0.112414
3224	-0.053000
3208	0.032329
3192	0.243139
3176	0.084352
3160	0.043559
3144	-0.049829
3128	0.116467
3112	0.268650
3096	-0.073266
3080	-0.010228
3064	-0.107049
3048	-0.082373
3032	-0.079607
3016	0.082349
3000	0.007224
2984	-0.013256
2968	0.092554
2952	0.097894
2936	0.015830
2920	-0.001144
2904	0.056123
2888	0.143742
2872	0.039649
2856	0.105977
2840	0.173830
2824	-0.003814
2808	0.028419
2792	0.033497
2776	-0.043153
2760	0.024104
2744	0.041913
2728	0.028800
2712	-0.137972
2696	0.084805
2680	0.030922
2664	0.045800
2648	0.013470
2632	0.018191
2616	0.145244
2600	0.075840
2584	0.106883
2568	-0.017595
2552	0.051188
2536	0.012636
2520	-0.013566
2504	0.087118
2488	0.128555
2472	-0.095987
2456	0.019907
2440	0.015878
2424	0.021171
2408	-0.081753
2392	0.123620
2376	0.074076
2360	0.262188
2344	0.197291
2328	0.319290
2312	0.622391
2296	0.839471
2280	1.106071
2264	1.602578
2248	2.243518
2232	3.001546
2216	3.907608
2200	5.274415
2184	6.523799
2168	8.436012
2152	10.347
2136	12.4031
2120	14.3419
2104	16.6776
2088	18.8241
2072	20.9909
2056	22.7178
2040	24.6183
2024	26.1615
2008	27.6334
1992	29.0318
1976	30.1493
1960	31.0948
1944	32.0339
1928	32.864
1912	33.5968
1896	34.0418
1880	34.5598
1864	35.0303
1848	35.263
1832	35.5823
1816	35.89
1800	36.1073
1784	36.2204
1768	36.3583
1752	36.6022
1736	36.5256
1720	36.5038
1704	36.7835
1688	36.778
1672	36.5391
1656	36.7931
1640	36.9539
1624	36.819
1608	36.7052
1592	36.8396
1576	36.8289
1560	36.7105
1544	36.5445
1528	36.7748
1512	36.8784
1496	36.4565
1480	36.5318
1464	36.7224
1448	36.5645
1432	36.2623
1416	36.5332
1400	36.702
1384	36.308
1368	36.1169
1352	36.3954
1336	36.2605
1320	36.0585
1304	36.1367
1288	36.3753
1272	36.198
1256	35.759
1240	35.9698
1224	36.1604
1208	35.9172
1192	35.4923
1176	35.908
1160	35.9513
1144	35.3847
1128	35.3137
1112	35.6566
1096	35.5329
1080	35.1395
1064	34.9872
1048	35.6026
1032	35.0514
1016	34.763
1000	34.6267
984	 35.252
968	 34.5951
952	 34.0655
936	 34.3796
920	 34.5255
904	 33.859
888	 33.3789
872	 33.8208
856	 33.9747
840	 33.0981
824	 32.9772
808	 33.2573
792	 32.7691
776	 32.0911
760	 32.1461
744	 32.3241
728	 31.7262
712	 30.9203
696	 31.4821
680	 31.292
664	 30.356
648	 29.7466
632	 30.2114
616	 29.6
600	 28.9444
584	 28.7173
568	 28.2485
552	 27.9786
536	 26.5705
520	 26.6172
504	 27.2663
488	 25.9143
472	 24.763
456	 24.7948
440	 23.2271
424	 22.0015
408	 16.7506
392	 24.5555
376	 12.105
370	 23.175

File: LPE453_t87.asc
PE IR       SPECTRUM    SPECTRUM    ASCII       PEDS        1.60
  -1
LPD3B5~1.ASC
17/05/16
21:27:55.00
17/05/16
21:28:21.00
tln
$LPE453_t0087$<tbV0>[-10.4,5.2,8.0,0.0,27,1,0]
27.028
64

2002,4.07
MIRTGS : RIGHTBACK : INTERNAL 2
MIR : ON : INTERNAL 2
OPTKBR

0.200000
8
8.000000
FILLER
RATIO
SPECTRUM
UNLOCKED 256

DOUBLE
64
COMBINED
1
0
0

0.002000
RATIO

1
0
TRUE
51149
0
LEFT NOT FITTED RIGHT NOT FITTED 0
NONE
NONE
15600
12
4.427000
51148
TRUE
1 0 8 72 0 0 0 0

15798

#HDR
-1
-1
#GR
µM
%T
2.38419e-05
0.0
2.000000
0.002000
12515
8
51.8504
-7.415131
#DATA
2.000000	 -0.188159
2.084000	 0.123807
2.168000	 0.665384
2.252000	 -0.485687
2.336000	 -0.005960
2.420000	 0.133266
2.504000	 0.080492
2.588000	 0.170175
2.672000	 0.065452
2.756000	 0.025987
2.840000	 0.053990
2.924000	 0.026977
3.008000	 0.084959
3.092000	 0.035045
3.176000	 0.009210
3.260000	 0.014004
3.344000	 0.141577
3.428000	 0.175122
3.512000	 -0.066135
3.596000	 0.223235
3.680000	 0.004683
3.764000	 0.068131
3.848000	 0.062200
3.932000	 0.026268
4.016000	 -0.119934
4.100000	 0.037951
4.184000	 0.034620
4.268000	 0.155377
4.352000	 0.527426
4.436000	 1.453401
4.520000	 3.517594
4.604000	 6.559287
4.688000	 10.8726
4.772000	 15.3746
4.856000	 19.5647
4.940000	 23.3077
5.024000	 26.3031
5.108000	 28.3413
5.192000	 30.0206
5.276000	 31.2434
5.359999	 32.0289
5.444000	 32.6549
5.528000	 33.0216
5.612000	 33.423
5.696000	 33.5461
5.780000	 33.5683
5.864000	 33.7082
5.948000	 33.8153
6.032000	 33.9269
6.116000	 33.8399
6.200000	 33.9488
6.284000	 33.925
6.368000	 33.7735
6.452000	 34.0389
6.536000	 33.7618
6.620000	 33.8001
6.704000	 33.8321
6.788000	 33.5939
6.872000	 33.615
6.956000	 33.6576
7.040000	 33.6822
7.124000	 33.3192
7.208000	 33.5826
7.292000	 33.5773
7.376000	 33.2508
7.460000	 33.3805
7.544000	 33.5027
7.628000	 33.462
7.712000	 33.0916
7.796000	 33.1949
7.880000	 33.4417
7.964000	 33.4891
8.048000	 33.2177
8.132000	 33.0142
8.216000	 33.2178
8.300000	 33.5041
8.384000	 33.2418
8.468000	 32.984
8.552000	 32.7067
8.635999	 33.1408
8.719999	 33.2276
8.804000	 32.9788
8.888000	 32.6776
8.972000	 32.5299
9.056000	 33.0134
9.140000	 33.0067
9.224000	 33.0872
9.308000	 32.9296
9.391999	 32.546
9.475999	 32.4917
9.560000	 32.634
9.644000	 32.858
9.728000	 32.907
9.812000	 32.661
9.896000	 32.1518
9.980000	 32.0305
10.064	32.0953
10.148	32.2292
10.232	32.5982
10.316	32.5805
10.4	32.4735
10.484	32.0868
10.568	31.7197
10.652	31.6933
10.736	31.7406
10.82	32.0052
10.904	32.2281
10.988	32.2627
11.072	32.1499
11.156	31.571
11.24	31.2632
11.324	31.2242
11.408	31.2541
11.492	31.2547
11.576	31.4321
11.66	31.5167
11.744	31.8188
11.828	31.6924
11.912	31.352
11.996	31.0431
12.08	30.7462
12.164	30.6177
12.248	30.6466
12.332	30.6416
12.416	30.6611
12.5	30.9446
12.584	31.2564
12.668	31.1325
12.752	30.8687
12.836	30.6509
12.92	30.3325
13.004	30.0629
13.088	29.8094
13.172	29.6853
13.256	29.8528
13.34	29.9796
13.424	29.9835
13.508	30.2731
13.592	30.6219
13.676	30.5797
13.76	30.3003
13.844	29.9769
13.928	29.6301
14.012	29.3026
14.096	29.1365
14.18	29.1616
14.264	29.263
14.348	29.3553
14.432	29.3407
14.516	29.2703
14.6	29.2464
14.684	29.2566
14.768	29.3419
14.852	29.4177
14.936	29.4015
15.02	29.3343
15.104	29.2028
15.188	28.9944
15.272	28.7219
15.356	28.4479
15.44	28.2777
15.524	28.2209
15.608	28.2092
15.692	28.1854
15.776	28.1244
15.86	28.079
15.944	28.1735
16.028	28.3781
16.112	28.4961
16.196	28.5244
16.28	28.5943
16.364	28.5648
16.448	28.2443
16.532	27.8114
16.616	27.5581
16.7	27.5092
16.784	27.5192
16.868	27.4819
16.952	27.3922
17.036	27.2981
17.12	27.2205
17.204	27.173
17.288	27.2134
17.372	27.3447
17.456	27.4276
17.54	27.3388
17.624	27.1546
17.708	27.0432
17.792	27.0449
17.876	27.0729
17.96	27.0816
18.044	27.1177
18.128	27.2115
18.212	27.2976
18.296	27.2732
18.38	27.0947
18.464	26.7937
18.548	26.433
18.632	26.077
18.716	25.7928
18.8	25.6389
18.884	25.6273
18.968	25.7147
19.052	25.8381
19.136	25.9403
19.22	25.969
19.304	25.89
19.388	25.7241
19.472	25.5494
19.556	25.4506
19.64	25.4531
19.724	25.5138
19.808	25.5747
19.892	25.6119
19.976	25.632
20.06	25.6362
20.144	25.6178
20.228	25.5876
20.312	25.5772
20.396	25.5958
20.48	25.5852
20.564	25.447
20.648	25.1262
20.732	24.6742
20.816	24.2228
20.9	23.8975
20.984	23.7472
21.068	23.7378
21.152	23.7938
21.236	23.8477
21.32	23.8609
21.404	23.8287
21.488	23.7798
21.572	23.7602
21.656	23.8026
21.74	23.8997
21.824	24.0106
21.908	24.0932
21.992	24.125
22.076	24.1066
22.16	24.0614
22.244	24.0386
22.328	24.0974
22.412	24.274
22.496	24.5563
22.58	24.882
22.664	25.1663
22.748	25.3342
22.832	25.3505
22.916	25.2212
23	24.9753
23.084	24.6614
23.168	24.3408
23.252	24.0702
23.336	23.8992
23.42	23.8281
23.504	23.8182
23.588	23.8149
23.672	23.7801
23.756	23.7159
23.84	23.6762
23.924	23.7101
24.008	23.828
24.092	24.0001
24.176	24.1722
24.26	24.3158
24.344	24.4804
24.428	24.7744
24.512	25.2856
24.596	26.0485
24.68	27.0347
24.764	28.161
24.848	29.3319
24.932	30.4559
25.016	31.4686
25.1	32.3845
25.184	33.0883
25.268	33.3413
25.352	32.916
25.436	31.685
25.52	29.6824
25.604	27.0669
25.688	24.2065
25.772	21.537
25.856	19.4263
25.94	18.3316
26.024	18.7636
26.108	21.0799
26.192	25.2703
26.276	30.7706
26.36	36.3184
26.444	40.5628
26.528	42.6552
26.612	42.5818
26.696	41.2437
26.78	40.1417
26.864	40.9098
26.948	44.777
27.028	51.8504

File: LPE453_t87_cm-1.asc
PE IR       SPECTRUM    SPECTRUM    ASCII       PEDS        1.60
  -1
LP6BDB~1.ASC
17/05/16
21:27:55.00
17/05/16
21:27:55.00
tln
$LPE453_t0087$<tbV0>[-10.4,5.2,8.0,0.0,27,1,0]
370
64

2002,4.07
MIRTGS : RIGHTBACK : INTERNAL 2
MIR : ON : INTERNAL 2
OPTKBR

0.200000
8
8.000000
FILLER
RATIO
SPECTRUM
UNLOCKED 256

DOUBLE
64
COMBINED
1
0
0

1.000000
RATIO

1
0
TRUE
51149
0
LEFT NOT FITTED RIGHT NOT FITTED 0
NONE
NONE
15600
12
4.427000
51148
TRUE
1 0 8 72 0 0 0 0

15798

#HDR
-1
-1
#GR
CM-1
%T
2.38419e-05
0.0
5000
-1.000000
4631
8
51.8504
-7.566308
#DATA
5000	-0.188159
4984	0.013279
4968	-0.136709
4952	0.348329
4936	0.507450
4920	0.156354
4904	-0.043749
4888	0.033903
4872	0.311899
4856	0.007200
4840	-0.280666
4824	0.181603
4808	0.241065
4792	0.210642
4776	0.118422
4760	-0.509691
4744	0.232982
4728	0.188279
4712	1.106667
4696	0.168633
4680	0.073599
4664	0.430011
4648	1.111507
4632	0.053834
4616	1.520395
4600	0.812935
4584	1.658415
4568	1.462769
4552	0.394988
4536	0.620937
4520	-0.918483
4504	-1.414489
4488	6.319332
4472	-1.104617
4456	0.394773
4440	-0.483870
4424	0.206255
4408	-0.140571
4392	0.114774
4376	0.508904
4360	0.238513
4344	0.054383
4328	0.490784
4312	0.499296
4296	-0.035429
4280	0.034904
4264	-0.141668
4248	0.097084
4232	0.180506
4216	0.191807
4200	0.075435
4184	-0.154733
4168	0.270485
4152	-0.019121
4136	0.163912
4120	-0.008249
4104	0.084185
4088	0.256466
4072	0.028991
4056	-0.125694
4040	0.011634
4024	0.041341
4008	0.130558
3992	0.033593
3976	0.015783
3960	0.167989
3944	0.077795
3928	0.074028
3912	0.093317
3896	0.056862
3880	-0.097870
3864	0.170326
3848	0.023865
3832	0.165724
3816	-0.037455
3800	-0.040054
3784	0.181746
3768	0.030589
3752	0.136828
3736	0.047397
3720	0.146317
3704	0.002121
3688	-0.071525
3672	-0.019836
3656	0.160598
3640	0.147414
3624	0.100874
3608	0.053811
3592	0.142550
3576	0.030183
3560	0.112605
3544	0.254058
3528	0.134682
3512	0.117802
3496	0.060820
3480	-0.020098
3464	0.100207
3448	0.072813
3432	0.145244
3416	0.041675
3400	0.139689
3384	-0.000739
3368	-0.048279
3352	-0.082969
3336	0.114607
3320	-0.029087
3304	-0.010228
3288	0.219273
3272	0.000500
3256	0.064039
3240	0.045895
3224	0.030899
3208	0.008416
3192	0.111532
3176	0.027322
3160	0.055718
3144	0.033903
3128	0.026035
3112	0.094032
3096	0.023126
3080	0.128650
3064	0.029993
3048	0.020432
3032	-0.022792
3016	-0.025558
3000	0.118231
2984	0.188231
2968	0.027966
2952	0.058197
2936	0.156569
2920	0.090050
2904	0.053715
2888	-0.023674
2872	-0.119423
2856	-0.014519
2840	-0.086736
2824	0.012946
2808	0.022196
2792	0.037121
2776	0.183415
2760	0.091218
2744	0.041532
2728	-0.127005
2712	0.046277
2696	0.003957
2680	0.070524
2664	0.133609
2648	0.073337
2632	0.095176
2616	-0.001525
2600	0.036907
2584	-0.041222
2568	0.040984
2552	-0.026965
2536	0.034856
2520	0.053000
2504	0.127911
2488	-0.084352
2472	-0.008368
2456	0.089192
2440	0.032782
2424	0.294613
2408	0.135207
2392	-0.004863
2376	0.045037
2360	0.116229
2344	0.154829
2328	0.308966
2312	0.416374
2296	0.564432
2280	0.827288
2264	1.234912
2248	1.676297
2232	2.445650
2216	3.288078
2200	4.274106
2184	5.470705
2168	6.951069
2152	8.743453
2136	10.5885
2120	12.2015
2104	14.3557
2088	16.2658
2072	18.0844
2056	19.9743
2040	21.848
2024	23.337
2008	24.83
1992	26.1846
1976	27.2439
1960	28.2521
1944	29.2197
1928	29.9252
1912	30.5771
1896	31.2198
1880	31.626
1864	32.0702
1848	32.449
1832	32.8288
1816	32.9579
1800	33.1733
1784	33.4039
1768	33.5963
1752	33.5415
1736	33.5771
1720	33.8283
1704	33.6998
1688	33.8413
1672	33.9
1656	33.9166
1640	33.8297
1624	33.9427
1608	33.9864
1592	33.9223
1576	33.7656
1560	34.0483
1544	33.984
1528	33.7557
1512	33.7876
1496	33.7436
1480	33.5885
1464	33.5745
1448	33.5553
1432	33.6458
1416	33.6327
1400	33.3336
1384	33.7203
1368	33.5287
1352	33.253
1336	33.5082
1320	33.5574
1304	33.3176
1288	33.031
1272	33.4099
1256	33.4918
1240	33.1921
1224	33.0756
1208	33.4836
1192	33.2268
1176	32.8657
1160	33.0355
1144	33.1919
1128	32.8346
1112	32.6476
1096	33.0258
1080	33.0415
1064	32.5295
1048	32.568
1032	32.8742
1016	32.4064
1000	32.0571
984	 32.3148
968	 32.5788
952	 31.9789
936	 31.6619
920	 32.12
904	 32.1842
888	 31.2289
872	 31.2236
856	 31.5789
840	 31.375
824	 30.6459
808	 30.6359
792	 31.2384
776	 30.4666
760	 29.6833
744	 30.0111
728	 30.3877
712	 29.2114
696	 29.3638
680	 29.2713
664	 29.2812
648	 28.2881
632	 28.0888
616	 28.551
600	 27.5129
584	 27.2178
568	 27.1937
552	 27.1961
536	 25.9828
520	 25.9651
504	 25.5921
488	 25.5755
472	 23.8193
456	 24.1069
440	 25.3065
424	 23.8155
408	 25.269
392	 29.9511
376	 42.7246
370	 51.8504

File: LPE453_t88.asc
PE IR       SPECTRUM    SPECTRUM    ASCII       PEDS        1.60
  -1
LPE3B9~1.ASC
17/05/16
21:32:31.00
17/05/16
21:32:57.00
tln
$LPE453_t0088$<tbV0>[-13.0,5.2,8.0,0.0,27,1,0]
27.028
64

2002,4.07
MIRTGS : RIGHTBACK : INTERNAL 2
MIR : ON : INTERNAL 2
OPTKBR

0.200000
8
8.000000
FILLER
RATIO
SPECTRUM
UNLOCKED 256

DOUBLE
64
COMBINED
1
0
0

0.002000
RATIO

1
0
TRUE
51149
0
LEFT NOT FITTED RIGHT NOT FITTED 0
NONE
NONE
15600
12
4.427000
51148
TRUE
1 0 8 72 0 0 0 0

15798

#HDR
-1
-1
#GR
µM
%T
2.38419e-05
0.0
2.000000
0.002000
12515
8
33.0478
-4.199703
#DATA
2.000000	 -0.499010
2.084000	 0.262633
2.168000	 0.917453
2.252000	 -0.233178
2.336000	 -0.072125
2.420000	 -0.229268
2.504000	 -0.038029
2.588000	 0.097309
2.672000	 0.032896
2.756000	 -0.033704
2.840000	 -0.001814
2.924000	 -0.011982
3.008000	 -0.052884
3.092000	 -0.001004
3.176000	 0.027626
3.260000	 -0.008559
3.344000	 0.005505
3.428000	 -0.071493
3.512000	 0.083326
3.596000	 -0.011950
3.680000	 0.021362
3.764000	 0.012920
3.848000	 0.038653
3.932000	 0.162225
4.016000	 -0.013181
4.100000	 -0.045164
4.184000	 0.006413
4.268000	 0.054275
4.352000	 0.216469
4.436000	 0.928314
4.520000	 2.406070
4.604000	 4.871087
4.688000	 8.406208
4.772000	 12.357
4.856000	 16.2878
4.940000	 19.9391
5.024000	 22.6776
5.108000	 24.9695
5.192000	 26.8119
5.276000	 28.0688
5.359999	 29.2155
5.444000	 29.9364
5.528000	 30.5268
5.612000	 31.0449
5.696000	 31.5079
5.780000	 31.8647
5.864000	 32.0851
5.948000	 32.2
6.032000	 32.3176
6.116000	 32.4956
6.200000	 32.3678
6.284000	 32.6697
6.368000	 32.727
6.452000	 32.8129
6.536000	 32.8868
6.620000	 32.9595
6.704000	 32.8533
6.788000	 32.9168
6.872000	 32.8928
6.956000	 32.9854
7.040000	 33.0468
7.124000	 32.9037
7.208000	 32.8413
7.292000	 32.9113
7.376000	 32.8818
7.460000	 32.7825
7.544000	 32.8887
7.628000	 32.91
7.712000	 32.7829
7.796000	 32.8566
7.880000	 32.884
7.964000	 32.6719
8.048000	 32.7414
8.132000	 32.5417
8.216000	 32.6406
8.300000	 32.5984
8.384000	 32.4543
8.468000	 32.4368
8.552000	 32.5005
8.635999	 32.2904
8.719999	 32.1142
8.804000	 32.0927
8.888000	 31.935
8.972000	 32.0353
9.056000	 31.8173
9.140000	 31.7646
9.224000	 31.5741
9.308000	 31.5656
9.391999	 31.6616
9.475999	 31.5002
9.560000	 31.4448
9.644000	 31.2813
9.728000	 31.0539
9.812000	 31.1491
9.896000	 31.1603
9.980000	 30.9859
10.064	30.8043
10.148	30.5428
10.232	30.3655
10.316	30.5229
10.4	30.6702
10.484	30.2652
10.568	30.1412
10.652	30.0673
10.736	29.9136
10.82	29.6115
10.904	29.4232
10.988	29.6779
11.072	29.6911
11.156	29.4135
11.24	29.3768
11.324	29.2024
11.408	28.9286
11.492	28.8579
11.576	28.8726
11.66	29.0142
11.744	29.0816
11.828	29.0477
11.912	28.7342
11.996	28.374
12.08	28.3086
12.164	28.5639
12.248	28.2635
12.332	28.149
12.416	28.2515
12.5	28.0469
12.584	27.8601
12.668	27.8324
12.752	27.7912
12.836	27.5956
12.92	27.4119
13.004	27.1871
13.088	26.9572
13.172	26.8265
13.256	26.9287
13.34	27.0924
13.424	26.9536
13.508	26.9257
13.592	26.8975
13.676	26.6417
13.76	26.5539
13.844	26.5471
13.928	26.4433
14.012	26.2357
14.096	25.9983
14.18	25.9827
14.264	26.0284
14.348	25.7575
14.432	25.5891
14.516	25.7398
14.6	25.8446
14.684	25.7899
14.768	25.6798
14.852	25.5829
14.936	25.5149
15.02	25.3916
15.104	25.1861
15.188	24.949
15.272	24.7244
15.356	24.629
15.44	24.6205
15.524	24.52
15.608	24.4435
15.692	24.598
15.776	24.8823
15.86	25.0844
15.944	25.0904
16.028	24.9249
16.112	24.7263
16.196	24.5534
16.28	24.3479
16.364	24.1407
16.448	24.0447
16.532	24.0242
16.616	23.9042
16.7	23.635
16.784	23.401
16.868	23.4017
16.952	23.6137
17.036	23.8851
17.12	24.1582
17.204	24.433
17.288	24.6042
17.372	24.5454
17.456	24.2786
17.54	23.9179
17.624	23.5463
17.708	23.1983
17.792	22.8872
17.876	22.6182
17.96	22.4161
18.044	22.3326
18.128	22.4065
18.212	22.6173
18.296	22.8754
18.38	23.0528
18.464	23.0735
18.548	22.977
18.632	22.8414
18.716	22.6944
18.8	22.5335
18.884	22.3893
18.968	22.3132
19.052	22.3152
19.136	22.3589
19.22	22.4148
19.304	22.4871
19.388	22.5672
19.472	22.6084
19.556	22.5662
19.64	22.4494
19.724	22.2972
19.808	22.119
19.892	21.884
19.976	21.5713
20.06	21.209
20.144	20.855
20.228	20.5504
20.312	20.3169
20.396	20.1824
20.48	20.1873
20.564	20.3422
20.648	20.5891
20.732	20.8069
20.816	20.8812
20.9	20.7781
20.984	20.5639
21.068	20.3687
21.152	20.3095
21.236	20.4262
21.32	20.6497
21.404	20.8472
21.488	20.9222
21.572	20.8663
21.656	20.7395
21.74	20.5981
21.824	20.4436
21.908	20.245
21.992	20.0006
22.076	19.7655
22.16	19.6267
22.244	19.6342
22.328	19.7687
22.412	19.9716
22.496	20.1843
22.58	20.3605
22.664	20.438
22.748	20.3166
22.832	19.8999
22.916	19.1578
23	18.1909
23.084	17.2125
23.168	16.4887
23.252	16.1988
23.336	16.3837
23.42	16.9151
23.504	17.5859
23.588	18.2012
23.672	18.6447
23.756	18.89
23.84	18.9616
23.924	18.8838
24.008	18.6631
24.092	18.3065
24.176	17.8454
24.26	17.3749
24.344	17.0332
24.428	16.9343
24.512	17.1444
24.596	17.6351
24.68	18.3206
24.764	19.1111
24.848	19.9535
24.932	20.8272
25.016	21.7244
25.1	22.6464
25.184	23.5001
25.268	24.1287
25.352	24.4181
25.436	24.2907
25.52	23.7341
25.604	22.7903
25.688	21.5575
25.772	20.1506
25.856	18.6544
25.94	17.0925
26.024	15.4563
26.108	13.7466
26.192	12.0447
26.276	10.4588
26.36	9.044798
26.444	7.786200
26.528	6.669540
26.612	5.674987
26.696	4.997608
26.78	5.037328
26.864	6.419521
26.948	9.761020
27.028	15.0275

File: LPE453_t88_cm-1.asc
PE IR       SPECTRUM    SPECTRUM    ASCII       PEDS        1.60
  -1
LP6B59~1.ASC
17/05/16
21:32:31.00
17/05/16
21:32:31.00
tln
$LPE453_t0088$<tbV0>[-13.0,5.2,8.0,0.0,27,1,0]
370
64

2002,4.07
MIRTGS : RIGHTBACK : INTERNAL 2
MIR : ON : INTERNAL 2
OPTKBR

0.200000
8
8.000000
FILLER
RATIO
SPECTRUM
UNLOCKED 256

DOUBLE
64
COMBINED
1
0
0

1.000000
RATIO

1
0
TRUE
51149
0
LEFT NOT FITTED RIGHT NOT FITTED 0
NONE
NONE
15600
12
4.427000
51148
TRUE
1 0 8 72 0 0 0 0

15798

#HDR
-1
-1
#GR
CM-1
%T
2.38419e-05
0.0
5000
-1.000000
4631
8
33.0479
-4.677271
#DATA
5000	-0.499010
4984	-0.073361
4968	0.511002
4952	0.389099
4936	0.185799
4920	0.105547
4904	0.061488
4888	-0.296807
4872	0.406742
4856	0.320482
4840	0.088620
4824	0.081682
4808	0.370526
4792	0.379681
4776	0.344133
4760	0.362324
4744	0.277471
4728	0.227475
4712	-0.340676
4696	0.351476
4680	0.941610
4664	1.525449
4648	0.693273
4632	1.323199
4616	-0.173187
4600	0.076508
4584	1.469755
4568	0.693774
4552	0.210428
4536	1.096296
4520	-1.371264
4504	-2.261638
4488	9.944725
4472	0.130152
4456	-0.564837
4440	-0.244450
4424	-0.228166
4408	0.037264
4392	0.328326
4376	0.244736
4360	0.070309
4344	0.310087
4328	0.027632
4312	-0.007867
4296	-0.210285
4280	-0.024819
4264	-0.214004
4248	0.005722
4232	0.047111
4216	0.121712
4200	-0.069785
4184	0.142312
4168	0.313186
4152	-0.010919
4136	-0.090599
4120	0.078129
4104	0.049638
4088	0.101637
4072	0.254702
4056	0.115871
4040	-0.082421
4024	0.143408
4008	0.184869
3992	0.056624
3976	0.155282
3960	0.013446
3944	0.095987
3928	0.086474
3912	-0.120115
3896	0.135207
3880	0.090122
3864	0.097060
3848	0.049543
3832	0.061845
3816	0.002884
3800	0.003194
3784	-0.071239
3768	-0.157070
3752	-0.017857
3736	0.206327
3720	0.105953
3704	-0.039362
3688	0.083112
3672	0.161337
3656	0.030684
3640	0.001811
3624	-0.015401
3608	0.021886
3592	0.038599
3576	0.075483
3560	0.119471
3544	0.067663
3528	0.018978
3512	-0.068545
3496	-0.001025
3480	0.003862
3464	0.146508
3448	0.027990
3432	0.158214
3416	0.016808
3400	-0.046563
3384	0.163555
3368	-0.065970
3352	0.042629
3336	0.078320
3320	-0.025629
3304	0.120806
3288	0.042819
3272	0.025367
3256	-0.073575
3240	0.005412
3224	0.058031
3208	-0.013232
3192	0.102758
3176	-0.011587
3160	0.125622
3144	0.021886
3128	-0.012493
3112	0.050902
3096	0.067639
3080	0.083613
3064	0.031757
3048	0.070405
3032	-0.047993
3016	0.119137
3000	-0.004529
2984	0.069093
2968	0.075888
2952	0.119924
2936	0.040054
2920	-0.048637
2904	0.056529
2888	-0.000762
2872	0.106430
2856	-0.019288
2840	0.030684
2824	0.010275
2808	0.129795
2792	0.046730
2776	-0.027966
2760	0.030636
2744	0.097131
2728	0.084328
2712	-0.024437
2696	0.086545
2680	-0.001668
2664	0.046420
2648	0.078463
2632	-0.038528
2616	0.004935
2600	0.048780
2584	0.147128
2568	0.020241
2552	0.058317
2536	-0.009703
2520	0.059843
2504	0.095129
2488	-0.000500
2472	0.002145
2456	-0.039625
2440	-0.053262
2424	0.003218
2408	0.058031
2392	-0.007247
2376	-0.029659
2360	0.027441
2344	0.068187
2328	0.029230
2312	0.154948
2296	0.212121
2280	0.450801
2264	0.680661
2248	1.055359
2232	1.486587
2216	2.235221
2200	2.932667
2184	3.948926
2168	5.231308
2152	6.452965
2136	8.200263
2120	9.696936
2104	11.4842
2088	13.281
2072	14.873
2056	16.6551
2040	18.4041
2024	19.9672
2008	21.268
1992	22.5443
1976	23.8053
1960	24.8483
1944	25.8472
1928	26.7135
1912	27.449
1896	28.0406
1880	28.7762
1864	29.2778
1848	29.6437
1832	30.0797
1816	30.4504
1800	30.8093
1784	31.0082
1768	31.3408
1752	31.5129
1736	31.7551
1720	31.8998
1704	32.073
1688	32.1285
1672	32.2108
1656	32.349
1640	32.4564
1624	32.4912
1608	32.3422
1592	32.6427
1576	32.7905
1560	32.6962
1544	32.9344
1528	32.8832
1512	32.9211
1496	32.8346
1480	32.834
1464	32.8578
1448	32.9249
1432	32.902
1416	32.9885
1400	32.8655
1384	32.8208
1368	32.8905
1352	32.9421
1336	32.8197
1320	32.9221
1304	32.9062
1288	32.7847
1272	32.865
1256	32.6724
1240	32.7086
1224	32.532
1208	32.5478
1192	32.4432
1176	32.4836
1160	32.3167
1144	32.1057
1128	31.9883
1112	32.0287
1096	31.7271
1080	31.5835
1064	31.6549
1048	31.4366
1032	31.1267
1016	31.1491
1000	30.9308
984	 30.4899
968	 30.5591
952	 30.1828
936	 30.0051
920	 29.454
904	 29.7183
888	 29.3593
872	 28.8655
856	 29.0433
840	 28.7685
824	 28.518
808	 28.2306
792	 27.8254
776	 27.4889
760	 26.8344
744	 26.9233
728	 26.5584
712	 26.1346
696	 25.686
680	 25.763
664	 25.2997
648	 24.6237
632	 25.015
616	 24.4672
600	 23.7518
584	 24.1691
568	 23.6262
552	 22.3863
536	 22.7997
520	 22.423
504	 22.0347
488	 20.2004
472	 20.3377
456	 20.1848
440	 20.371
424	 18.1813
408	 17.1351
392	 23.8201
376	 5.849146
370	 15.0275