Folder: Masteroppgave/Bakgrunnsmateriale/MATLAB/FTIR/ftir_data/LPE453/Mapping_121 (part 30)

File: LPE453_t66_cm-1.asc
PE IR       SPECTRUM    SPECTRUM    ASCII       PEDS        1.60
  -1
LP6A5A~1.ASC
17/05/16
19:43:44.00
17/05/16
19:43:44.00
tln
$LPE453_t0066$<tbV0>[-13.0,0.0,8.0,0.0,27,1,0]
370
64

2002,4.07
MIRTGS : RIGHTBACK : INTERNAL 2
MIR : ON : INTERNAL 2
OPTKBR

0.200000
8
8.000000
FILLER
RATIO
SPECTRUM
UNLOCKED 256

DOUBLE
64
COMBINED
1
0
0

1.000000
RATIO

1
0
TRUE
51149
0
LEFT NOT FITTED RIGHT NOT FITTED 0
NONE
NONE
15600
12
4.427000
51148
TRUE
1 0 8 72 0 0 0 0

15798

#HDR
-1
-1
#GR
CM-1
%T
2.38419e-05
0.0
5000
-1.000000
4631
8
39.889
-3.929185
#DATA
5000	0.444149
4984	0.198864
4968	-0.302219
4952	0.090527
4936	0.309538
4920	0.132894
4904	0.021839
4888	0.271892
4872	-0.100779
4856	0.050830
4840	0.140690
4824	0.095939
4808	0.309634
4792	-0.114941
4776	0.263977
4760	-0.097584
4744	0.187420
4728	-0.893354
4712	0.559902
4696	0.969386
4680	2.730846
4664	0.612521
4648	0.228333
4632	-0.362277
4616	-0.362300
4600	-0.025773
4584	-0.215530
4568	0.557470
4552	-0.129747
4536	0.412321
4520	-0.010752
4504	-2.146387
4488	2.567625
4472	1.270294
4456	1.000046
4440	-0.036525
4424	0.228238
4408	-0.100016
4392	-0.228428
4376	0.264883
4360	-0.058484
4344	0.148272
4328	0.538325
4312	0.151109
4296	0.111055
4280	0.112271
4264	0.146818
4248	0.082707
4232	0.290775
4216	-0.048971
4200	-0.102567
4184	0.134921
4168	-0.068283
4152	-0.049114
4136	0.058197
4120	0.026249
4104	0.077915
4088	0.068426
4072	0.131821
4056	-0.072717
4040	-0.015354
4024	-0.106978
4008	0.163364
3992	0.084686
3976	-0.103616
3960	-0.009584
3944	0.218176
3928	-0.012040
3912	0.026011
3896	0.102019
3880	0.073122
3864	-0.163865
3848	0.049948
3832	0.061726
3816	0.108599
3800	0.240778
3784	-0.012302
3768	0.063586
3752	-0.005602
3736	0.138258
3720	0.060868
3704	0.181150
3688	-0.030231
3672	0.029945
3656	0.062799
3640	-0.010871
3624	-0.049924
3608	-0.012183
3592	-0.005960
3576	0.087118
3560	0.176572
3544	0.167798
3528	0.140428
3512	0.077629
3496	0.160264
3480	-0.002932
3464	0.006365
3448	-0.024509
3432	0.238323
3416	0.039243
3400	-0.052118
3384	-0.060653
3368	0.121259
3352	0.083327
3336	0.061607
3320	0.030398
3304	-0.061440
3288	0.076985
3272	-0.025200
3256	0.071406
3240	0.066709
3224	0.117993
3208	0.089573
3192	-0.076031
3176	0.020956
3160	0.141549
3144	0.139975
3128	-0.029540
3112	-0.045657
3096	0.077033
3080	0.175905
3064	-0.011754
3048	-0.028181
3032	-0.076198
3016	-0.002312
3000	0.091171
2984	0.023579
2968	0.211238
2952	0.040912
2936	0.141525
2920	0.122952
2904	0.150513
2888	-0.083184
2872	-0.068974
2856	-0.026035
2840	0.054287
2824	-0.017046
2808	0.003385
2792	-0.000762
2776	-0.057411
2760	0.070142
2744	-0.028014
2728	0.053429
2712	-0.030136
2696	0.103259
2680	0.049471
2664	0.027751
2648	0.116181
2632	0.074386
2616	0.026011
2600	-0.076556
2584	0.052237
2568	-0.035905
2552	-0.057768
2536	0.129795
2520	0.075483
2504	-0.099396
2488	0.022220
2472	-0.008106
2456	0.043296
2440	0.163340
2424	-0.042223
2408	-0.015473
2392	0.044393
2376	0.023102
2360	0.026631
2344	-0.129222
2328	0.004267
2312	0.132107
2296	0.058746
2280	0.269770
2264	0.294566
2248	0.571250
2232	0.790953
2216	1.371526
2200	1.809477
2184	2.663683
2168	3.577065
2152	4.509377
2136	5.846142
2120	7.265472
2104	8.791089
2088	10.2768
2072	11.8696
2056	13.4701
2040	15.0837
2024	16.7115
2008	17.9448
1992	19.168
1976	20.4257
1960	21.4248
1944	22.4636
1928	23.3249
1912	23.9797
1896	24.7608
1880	25.3663
1864	25.7862
1848	26.3546
1832	26.7219
1816	27.05
1800	27.5882
1784	27.8435
1768	27.9389
1752	28.4342
1736	28.3792
1720	28.5532
1704	28.9863
1688	28.8956
1672	28.9977
1656	29.3726
1640	29.0964
1624	29.2842
1608	29.4897
1592	29.3332
1576	29.4184
1560	29.7134
1544	29.5317
1528	29.5703
1512	29.7605
1496	29.4147
1480	29.7378
1464	29.9459
1448	29.4354
1432	29.6669
1416	29.6843
1400	29.3627
1384	29.4943
1368	29.5671
1352	29.1934
1336	29.4959
1320	29.4566
1304	29.047
1288	29.2128
1272	29.2784
1256	28.9425
1240	29.0765
1224	29.0769
1208	28.5979
1192	28.8477
1176	28.8139
1160	28.0769
1144	28.4534
1128	28.4232
1112	27.8018
1096	27.9896
1080	28.039
1064	27.3383
1048	27.5301
1032	27.4976
1016	26.9127
1000	27.0553
984	 26.861
968	 26.1925
952	 26.3145
936	 26.399
920	 25.488
904	 25.595
888	 25.5427
872	 24.8736
856	 24.8231
840	 24.7369
824	 23.904
808	 23.9409
792	 23.966
776	 23.2675
760	 23.3296
744	 23.1637
728	 22.4979
712	 22.2301
696	 22.1462
680	 21.4473
664	 21.2622
648	 21.2862
632	 20.2454
616	 20.1935
600	 20.0311
584	 19.5891
568	 18.8206
552	 19.1872
536	 18.4302
520	 17.5929
504	 17.8599
488	 17.4248
472	 17.1986
456	 16.2702
440	 14.155
424	 17.1061
408	 9.279870
392	 15.08
376	 23.0036
370	 5.628299

File: LPE453_t67.asc
PE IR       SPECTRUM    SPECTRUM    ASCII       PEDS        1.60
  -1
LPDBA5~1.ASC
17/05/16
19:55:04.00
17/05/16
19:55:30.00
tln
$LPE453_t0067$<tbV0>[13.0,2.6,8.0,0.0,27,1,0]
27.028
64

2002,4.07
MIRTGS : RIGHTBACK : INTERNAL 2
MIR : ON : INTERNAL 2
OPTKBR

0.200000
8
8.000000
FILLER
RATIO
SPECTRUM
UNLOCKED 256

DOUBLE
64
COMBINED
1
0
0

0.002000
RATIO

1
0
TRUE
51149
0
LEFT NOT FITTED RIGHT NOT FITTED 0
NONE
NONE
15600
12
4.427000
51148
TRUE
1 0 8 72 0 0 0 0

15798

#HDR
-1
-1
#GR
µM
%T
2.38419e-05
0.0
2.000000
0.002000
12515
8
45.5575
-1.372530
#DATA
2.000000	 0.182485
2.084000	 0.115357
2.168000	 0.879443
2.252000	 0.074917
2.336000	 -0.243983
2.420000	 -0.119880
2.504000	 -0.075819
2.588000	 0.051888
2.672000	 -0.091412
2.756000	 0.021478
2.840000	 0.129365
2.924000	 0.049840
3.008000	 -0.003544
3.092000	 -0.104007
3.176000	 -0.012125
3.260000	 0.048443
3.344000	 0.172045
3.428000	 0.008410
3.512000	 0.170485
3.596000	 0.083939
3.680000	 -0.032983
3.764000	 0.060721
3.848000	 -0.048586
3.932000	 -0.006872
4.016000	 0.149765
4.100000	 0.051039
4.184000	 0.010651
4.268000	 0.059866
4.352000	 0.040460
4.436000	 0.134613
4.520000	 0.471661
4.604000	 1.471934
4.688000	 3.251100
4.772000	 5.609584
4.856000	 8.310808
4.940000	 10.7202
5.024000	 12.8796
5.108000	 14.6651
5.192000	 16.1934
5.276000	 17.1773
5.359999	 17.968
5.444000	 18.9342
5.528000	 19.5093
5.612000	 19.6143
5.696000	 19.9183
5.780000	 20.3773
5.864000	 20.3001
5.948000	 20.6184
6.032000	 20.8245
6.116000	 20.6829
6.200000	 21.0302
6.284000	 20.8314
6.368000	 21.1921
6.452000	 20.8458
6.536000	 21.3446
6.620000	 20.9982
6.704000	 21.0078
6.788000	 20.8903
6.872000	 21.1498
6.956000	 20.8523
7.040000	 21.1009
7.124000	 20.9484
7.208000	 20.8857
7.292000	 21.0759
7.376000	 20.7404
7.460000	 20.8925
7.544000	 21.0481
7.628000	 20.6576
7.712000	 20.9053
7.796000	 20.8998
7.880000	 20.668
7.964000	 20.9026
8.048000	 20.7671
8.132000	 20.5262
8.216000	 20.8541
8.300000	 20.628
8.384000	 20.2729
8.468000	 20.4613
8.552000	 20.8779
8.635999	 20.37
8.719999	 20.1181
8.804000	 20.4084
8.888000	 20.5062
8.972000	 20.0214
9.056000	 20.0258
9.140000	 20.361
9.224000	 20.2206
9.308000	 19.9162
9.391999	 19.7616
9.475999	 20.0117
9.560000	 19.831
9.644000	 19.6147
9.728000	 19.3633
9.812000	 19.4779
9.896000	 19.775
9.980000	 19.7046
10.064	19.4034
10.148	18.918
10.232	19.0225
10.316	19.3169
10.4	19.3341
10.484	19.0988
10.568	18.8071
10.652	19.0059
10.736	19.1981
10.82	19.1127
10.904	18.6985
10.988	18.4036
11.072	18.5498
11.156	18.6159
11.24	18.6429
11.324	18.5255
11.408	18.1754
11.492	18.0351
11.576	17.8387
11.66	17.8932
11.744	18.0287
11.828	18.157
11.912	18.1965
11.996	17.7989
12.08	17.4502
12.164	17.2735
12.248	17.3373
12.332	17.5048
12.416	17.5331
12.5	17.4151
12.584	17.3789
12.668	17.2227
12.752	16.9519
12.836	16.9083
12.92	16.9364
13.004	16.8714
13.088	16.6197
13.172	16.5125
13.256	16.6641
13.34	16.847
13.424	16.6648
13.508	16.3394
13.592	16.4131
13.676	16.5968
13.76	16.445
13.844	16.2142
13.928	16.0532
14.012	15.9342
14.096	15.7655
14.18	15.5297
14.264	15.4181
14.348	15.3845
14.432	15.3326
14.516	15.2675
14.6	15.2415
14.684	15.3035
14.768	15.3015
14.852	15.162
14.936	14.9944
15.02	14.8815
15.104	14.7685
15.188	14.5949
15.272	14.4838
15.356	14.537
15.44	14.696
15.524	14.8403
15.608	14.8618
15.692	14.7365
15.776	14.4739
15.86	14.0932
15.944	13.7491
16.028	13.5977
16.112	13.5727
16.196	13.5634
16.28	13.5767
16.364	13.6341
16.448	13.779
16.532	14.0144
16.616	14.1805
16.7	14.1555
16.784	14.0371
16.868	13.9338
16.952	13.8305
17.036	13.6946
17.12	13.5178
17.204	13.3067
17.288	13.1219
17.372	13.0397
17.456	13.0483
17.54	13.0493
17.624	12.947
17.708	12.7288
17.792	12.4988
17.876	12.4115
17.96	12.5088
18.044	12.6529
18.128	12.667
18.212	12.5196
18.296	12.315
18.38	12.15
18.464	12.047
18.548	11.9934
18.632	11.9722
18.716	11.9419
18.8	11.851
18.884	11.7119
18.968	11.6247
19.052	11.6894
19.136	11.8915
19.22	12.1048
19.304	12.2112
19.388	12.1981
19.472	12.1311
19.556	12.0673
19.64	12.0042
19.724	11.8986
19.808	11.7185
19.892	11.4723
19.976	11.2001
20.06	10.9553
20.144	10.7893
20.228	10.754
20.312	10.8965
20.396	11.2305
20.48	11.7062
20.564	12.2075
20.648	12.607
20.732	12.8296
20.816	12.8695
20.9	12.7585
20.984	12.5164
21.068	12.1519
21.152	11.6998
21.236	11.2547
21.32	10.948
21.404	10.8697
21.488	10.9955
21.572	11.1937
21.656	11.3098
21.74	11.2606
21.824	11.0795
21.908	10.8777
21.992	10.7557
22.076	10.7509
22.16	10.8326
22.244	10.9416
22.328	11.035
22.412	11.0923
22.496	11.1037
22.58	11.0652
22.664	10.9825
22.748	10.8805
22.832	10.7986
22.916	10.7697
23	10.8056
23.084	10.8845
23.168	10.9637
23.252	11.0151
23.336	11.0433
23.42	11.0851
23.504	11.2074
23.588	11.4389
23.672	11.742
23.756	12.037
23.84	12.2054
23.924	12.146
24.008	11.8244
24.092	11.2827
24.176	10.6132
24.26	9.890082
24.344	9.165470
24.428	8.465407
24.512	7.776764
24.596	7.112501
24.68	6.532336
24.764	6.137434
24.848	6.000540
24.932	6.269871
25.016	7.157319
25.1	8.847831
25.184	11.4405
25.268	14.8161
25.352	18.5991
25.436	22.2559
25.52	25.2395
25.604	27.1324
25.688	27.7095
25.772	27.0429
25.856	25.5173
25.94	23.8925
26.024	23.1806
26.108	24.2856
26.192	27.5669
26.276	32.6118
26.36	38.255
26.444	42.9663
26.528	45.3938
26.612	44.8996
26.696	41.5672
26.78	36.1204
26.864	29.5948
26.948	22.9984
27.028	17.4229

File: LPE453_t67_cm-1.asc
PE IR       SPECTRUM    SPECTRUM    ASCII       PEDS        1.60
  -1
LP6ADA~1.ASC
17/05/16
19:55:04.00
17/05/16
19:55:04.00
tln
$LPE453_t0067$<tbV0>[13.0,2.6,8.0,0.0,27,1,0]
370
64

2002,4.07
MIRTGS : RIGHTBACK : INTERNAL 2
MIR : ON : INTERNAL 2
OPTKBR

0.200000
8
8.000000
FILLER
RATIO
SPECTRUM
UNLOCKED 256

DOUBLE
64
COMBINED
1
0
0

1.000000
RATIO

1
0
TRUE
51149
0
LEFT NOT FITTED RIGHT NOT FITTED 0
NONE
NONE
15600
12
4.427000
51148
TRUE
1 0 8 72 0 0 0 0

15798

#HDR
-1
-1
#GR
CM-1
%T
2.38419e-05
0.0
5000
-1.000000
4631
8
45.3596
-1.670265
#DATA
5000	0.182485
4984	0.784420
4968	0.144243
4952	-0.296211
4936	0.352787
4920	-0.385713
4904	-0.053787
4888	0.617265
4872	0.376772
4856	0.227165
4840	0.015687
4824	0.096654
4808	0.313520
4792	0.231385
4776	-0.156021
4760	0.228238
4744	-0.082921
4728	0.072193
4712	0.243258
4696	-0.119900
4680	-0.811314
4664	1.329588
4648	-0.027775
4632	1.367092
4616	0.747442
4600	0.435137
4584	-0.037670
4568	-0.094795
4552	0.416302
4536	-0.473976
4520	-0.278210
4504	0.930905
4488	12.9292
4472	-0.573778
4456	-0.036358
4440	0.110244
4424	0.176215
4408	-0.607275
4392	0.354599
4376	0.353455
4360	0.429987
4344	0.302052
4328	0.286817
4312	-0.031256
4296	0.111484
4280	-0.264191
4264	0.014400
4248	0.219702
4232	0.236487
4216	0.169658
4200	0.385832
4184	0.883793
4168	-0.163507
4152	0.304007
4136	-0.059485
4120	0.151205
4104	-0.132107
4088	0.155377
4072	0.215244
4056	0.053977
4040	0.043630
4024	0.119829
4008	0.071072
3992	-0.145196
3976	0.079774
3960	-0.184559
3944	0.090885
3928	0.239539
3912	0.021791
3896	-0.113058
3880	0.136661
3864	0.052022
3848	0.106787
3832	0.124788
3816	0.058364
3800	0.071811
3784	-0.038266
3768	0.126457
3752	0.125718
3736	-0.092434
3720	0.048232
3704	-0.139689
3688	0.059247
3672	0.128555
3656	0.005507
3640	-0.097441
3624	0.055432
3608	0.105810
3592	0.090289
3576	0.043439
3560	0.158691
3544	0.034236
3528	0.051760
3512	0.134205
3496	-0.069928
3480	0.162959
3464	0.096106
3448	-0.025343
3432	-0.025129
3416	0.002574
3400	0.124073
3384	0.099635
3368	0.039839
3352	0.089502
3336	0.113630
3320	0.049400
3304	0.031352
3288	0.117421
3272	0.129866
3256	0.174307
3240	-0.077676
3224	-0.046825
3208	0.266170
3192	-0.058221
3176	-0.055623
3160	0.140786
3144	0.114083
3128	0.076770
3112	0.140500
3096	0.050306
3080	0.289630
3064	0.048995
3048	0.222826
3032	0.022745
3016	0.086927
3000	0.072240
2984	0.084185
2968	0.023174
2952	0.028634
2936	0.056314
2920	0.021147
2904	0.110101
2888	0.082492
2872	0.175547
2856	-0.053787
2840	0.125765
2824	0.015974
2808	0.110626
2792	0.150108
2776	0.114774
2760	0.003695
2744	-0.042223
2728	-0.066852
2712	0.031709
2696	-0.004076
2680	0.010824
2664	0.091409
2648	0.079846
2632	0.178360
2616	0.104355
2600	-0.044250
2584	0.048065
2568	-0.015425
2552	-0.060582
2536	0.003147
2520	0.066447
2504	0.054526
2488	0.128340
2472	0.012373
2456	0.079059
2440	0.040864
2424	0.222277
2408	-0.103425
2392	-0.019860
2376	0.054073
2360	0.004935
2344	0.037646
2328	-0.024771
2312	-0.033450
2296	0.051712
2280	0.034976
2264	0.177359
2248	0.193119
2232	0.327229
2216	0.423407
2200	0.831079
2184	1.194334
2168	1.626896
2152	2.231717
2136	3.088784
2120	4.053211
2104	5.000352
2088	6.035351
2072	7.238888
2056	8.532547
2040	9.593558
2024	10.737
2008	11.7098
1992	12.8103
1976	13.6819
1960	14.5208
1944	15.3143
1928	16.0599
1912	16.6375
1896	17.1551
1880	17.8528
1864	18.0253
1848	18.6291
1832	18.8958
1816	19.2222
1800	19.3975
1784	19.5603
1768	20.0393
1752	19.9777
1736	20.2222
1720	20.2729
1704	20.327
1688	20.6176
1672	20.4727
1656	20.8598
1640	20.7248
1624	20.8097
1608	21.1211
1592	20.8289
1576	21.201
1560	21.0262
1544	20.9731
1528	21.3312
1512	21.0079
1496	21.0142
1480	20.9615
1464	21.0343
1448	20.942
1432	20.8348
1416	21.2061
1400	20.9295
1384	21.0181
1368	21.0792
1352	20.6876
1336	21.1033
1320	20.8825
1304	20.797
1288	20.9788
1272	20.6348
1256	20.8979
1240	20.6918
1224	20.6508
1208	20.7429
1192	20.2559
1176	20.6849
1160	20.4452
1144	20.1702
1128	20.5764
1112	19.9599
1096	20.3025
1080	20.0096
1064	19.7531
1048	19.8892
1032	19.3937
1016	19.5215
1000	19.6759
984	 18.8743
968	 19.339
952	 19.0262
936	 19.1266
920	 18.9111
904	 18.5278
888	 18.6556
872	 18.0704
856	 17.9427
840	 18.2121
824	 17.3142
808	 17.5472
792	 17.3336
776	 16.9298
760	 16.509
744	 16.5882
728	 16.5133
712	 15.8823
696	 15.3739
680	 15.3168
664	 14.8347
648	 14.6797
632	 14.2702
616	 13.565
600	 14.1855
584	 13.51
568	 12.9807
552	 12.6762
536	 11.9668
520	 12.1258
504	 11.6273
488	 11.778
472	 11.5088
456	 10.8353
440	 10.9053
424	 11.4289
408	 7.794570
392	 24.9435
376	 45.2301
370	 17.4229

File: LPE453_t68.asc
PE IR       SPECTRUM    SPECTRUM    ASCII       PEDS        1.60
  -1
LPEBA9~1.ASC
17/05/16
19:59:41.00
17/05/16
20:00:07.00
tln
$LPE453_t0068$<tbV0>[10.4,2.6,8.0,0.0,27,1,0]
27.028
64

2002,4.07
MIRTGS : RIGHTBACK : INTERNAL 2
MIR : ON : INTERNAL 2
OPTKBR

0.200000
8
8.000000
FILLER
RATIO
SPECTRUM
UNLOCKED 256

DOUBLE
64
COMBINED
1
0
0

0.002000
RATIO

1
0
TRUE
51149
0
LEFT NOT FITTED RIGHT NOT FITTED 0
NONE
NONE
15600
12
4.427000
51148
TRUE
1 0 8 72 0 0 0 0

15798

#HDR
-1
-1
#GR
µM
%T
2.38419e-05
0.0
2.000000
0.002000
12515
8
24.9105
-12.8892
#DATA
2.000000	 0.128793
2.084000	 -0.154527
2.168000	 -0.001863
2.252000	 -0.940782
2.336000	 -0.034404
2.420000	 0.135385
2.504000	 0.074964
2.588000	 -0.090627
2.672000	 0.122858
2.756000	 0.090629
2.840000	 0.060024
2.924000	 0.007749
3.008000	 -0.038015
3.092000	 0.023517
3.176000	 0.014981
3.260000	 0.025708
3.344000	 0.162803
3.428000	 -0.026472
3.512000	 0.073536
3.596000	 0.037400
3.680000	 0.061015
3.764000	 0.045720
3.848000	 0.044494
3.932000	 0.046532
4.016000	 0.065022
4.100000	 0.130952
4.184000	 -0.050033
4.268000	 0.054945
4.352000	 0.047911
4.436000	 0.127354
4.520000	 0.683612
4.604000	 1.855079
4.688000	 4.044850
4.772000	 6.792408
4.856000	 10.1218
4.940000	 13.2105
5.024000	 15.6607
5.108000	 18.1132
5.192000	 19.8826
5.276000	 21.2673
5.359999	 22.1981
5.444000	 22.9897
5.528000	 23.538
5.612000	 23.9596
5.696000	 24.2181
5.780000	 24.3627
5.864000	 24.5918
5.948000	 24.6569
6.032000	 24.7483
6.116000	 24.8959
6.200000	 24.6944
6.284000	 24.8902
6.368000	 24.7494
6.452000	 24.8133
6.536000	 24.6842
6.620000	 24.7582
6.704000	 24.6505
6.788000	 24.6855
6.872000	 24.5258
6.956000	 24.51
7.040000	 24.4738
7.124000	 24.333
7.208000	 24.4084
7.292000	 24.2193
7.376000	 24.2214
7.460000	 24.2118
7.544000	 24.0145
7.628000	 24.1142
7.712000	 24.0883
7.796000	 23.9827
7.880000	 23.9667
7.964000	 24.0114
8.048000	 23.8654
8.132000	 23.7495
8.216000	 23.7615
8.300000	 23.6265
8.384000	 23.6313
8.468000	 23.6841
8.552000	 23.4486
8.635999	 23.4214
8.719999	 23.3467
8.804000	 23.3982
8.888000	 23.3241
8.972000	 22.9299
9.056000	 22.7253
9.140000	 22.7214
9.224000	 22.9167
9.308000	 22.9755
9.391999	 22.757
9.475999	 22.7256
9.560000	 22.536
9.644000	 22.4534
9.728000	 22.4367
9.812000	 22.3973
9.896000	 22.1431
9.980000	 22.0528
10.064	21.7718
10.148	21.8016
10.232	22.0091
10.316	21.9794
10.4	21.724
10.484	21.4611
10.568	21.362
10.652	21.3035
10.736	21.294
10.82	21.1819
10.904	20.9119
10.988	20.8698
11.072	20.7209
11.156	20.7865
11.24	20.6918
11.324	20.5845
11.408	20.3928
11.492	20.3082
11.576	20.276
11.66	20.3041
11.744	20.2654
11.828	20.1498
11.912	20.0402
11.996	19.8748
12.08	19.6968
12.164	19.8313
12.248	19.6821
12.332	19.6402
12.416	19.7586
12.5	19.5659
12.584	19.2346
12.668	18.9128
12.752	18.706
12.836	18.7533
12.92	18.7192
13.004	18.6409
13.088	18.565
13.172	18.3667
13.256	18.1325
13.34	17.9549
13.424	17.9276
13.508	17.9288
13.592	17.8549
13.676	17.9045
13.76	17.93
13.844	17.8477
13.928	17.5945
14.012	17.3558
14.096	17.3512
14.18	17.3306
14.264	17.2127
14.348	17.2363
14.432	17.3509
14.516	17.3751
14.6	17.3451
14.684	17.2075
14.768	16.9835
14.852	16.8806
14.936	16.8138
15.02	16.6036
15.104	16.3716
15.188	16.2153
15.272	16.1
15.356	16.0717
15.44	16.1161
15.524	16.1845
15.608	16.3012
15.692	16.3258
15.776	16.0627
15.86	15.6562
15.944	15.3772
16.028	15.2388
16.112	15.1712
16.196	15.2262
16.28	15.3981
16.364	15.5567
16.448	15.6362
16.532	15.6211
16.616	15.4631
16.7	15.1921
16.784	14.9574
16.868	14.8749
16.952	14.9137
17.036	14.9127
17.12	14.7224
17.204	14.3785
17.288	14.0669
17.372	13.9094
17.456	13.8904
17.54	13.9527
17.624	14.0315
17.708	14.0434
17.792	13.9588
17.876	13.837
17.96	13.7405
18.044	13.6703
18.128	13.6159
18.212	13.6038
18.296	13.6388
18.38	13.6379
18.464	13.5077
18.548	13.2564
18.632	12.9801
18.716	12.7654
18.8	12.6529
18.884	12.6625
18.968	12.8013
19.052	13.0312
19.136	13.2649
19.22	13.4139
19.304	13.4352
19.388	13.3411
19.472	13.1722
19.556	12.9769
19.64	12.8023
19.724	12.6929
19.808	12.6709
19.892	12.7077
19.976	12.7318
20.06	12.6845
20.144	12.5814
20.228	12.5063
20.312	12.5335
20.396	12.6485
20.48	12.746
20.564	12.7122
20.648	12.5097
20.732	12.195
20.816	11.8675
20.9	11.6077
20.984	11.4578
21.068	11.4273
21.152	11.4948
21.236	11.5989
21.32	11.6485
21.404	11.5704
21.488	11.3683
21.572	11.1346
21.656	10.9887
21.74	10.9923
21.824	11.1021
21.908	11.1982
21.992	11.1697
22.076	10.9794
22.16	10.681
22.244	10.3746
22.328	10.1431
22.412	10.0206
22.496	9.996069
22.58	10.043
22.664	10.145
22.748	10.2959
22.832	10.4814
22.916	10.6764
23	10.8202
23.084	10.8663
23.168	10.8088
23.252	10.6944
23.336	10.6132
23.42	10.6322
23.504	10.7646
23.588	10.9598
23.672	11.131
23.756	11.1915
23.84	11.1326
23.924	11.007
24.008	10.9064
24.092	10.9437
24.176	11.2087
24.26	11.807
24.344	12.8339
24.428	14.3083
24.512	16.153
24.596	18.1715
24.68	20.0985
24.764	21.6931
24.848	22.8344
24.932	23.5213
25.016	23.8259
25.1	23.8141
25.184	23.3973
25.268	22.3753
25.352	20.6009
25.436	18.0048
25.52	14.7394
25.604	11.1823
25.688	7.752724
25.772	4.719401
25.856	2.109111
25.94	-0.242064
26.024	-2.546078
26.108	-4.898987
26.192	-7.216693
26.276	-9.296096
26.36	-10.9988
26.444	-12.1902
26.528	-12.7921
26.612	-12.8621
26.696	-12.5654
26.78	-12.157
26.864	-11.8201
26.948	-11.4059
27.028	-10.3092

File: LPE453_t68_cm-1.asc
PE IR       SPECTRUM    SPECTRUM    ASCII       PEDS        1.60
  -1
LP6A59~1.ASC
17/05/16
19:59:41.00
17/05/16
19:59:41.00
tln
$LPE453_t0068$<tbV0>[10.4,2.6,8.0,0.0,27,1,0]
370
64

2002,4.07
MIRTGS : RIGHTBACK : INTERNAL 2
MIR : ON : INTERNAL 2
OPTKBR

0.200000
8
8.000000
FILLER
RATIO
SPECTRUM
UNLOCKED 256

DOUBLE
64
COMBINED
1
0
0

1.000000
RATIO

1
0
TRUE
51149
0
LEFT NOT FITTED RIGHT NOT FITTED 0
NONE
NONE
15600
12
4.427000
51148
TRUE
1 0 8 72 0 0 0 0

15798

#HDR
-1
-1
#GR
CM-1
%T
2.38419e-05
0.0
5000
-1.000000
4631
8
24.9104
-12.8846
#DATA
5000	0.128793
4984	0.362110
4968	0.284504
4952	-0.334143
4936	0.320458
4920	0.273394
4904	0.123953
4888	0.303816
4872	0.283813
4856	0.053071
4840	0.252223
4824	-0.166296
4808	0.132226
4792	-0.119376
4776	0.235605
4760	0.191974
4744	0.608062
4728	0.084400
4712	0.948834
4696	-0.340294
4680	-0.047945
4664	1.047778
4648	-0.222921
4632	0.739288
4616	0.644803
4600	0.016140
4584	0.618886
4568	0.302100
4552	0.473427
4536	0.295400
4520	0.715565
4504	-1.706671
4488	12.9695
4472	0.980782
4456	0.911283
4440	-0.917434
4424	-0.012135
4408	-0.053071
4392	0.198793
4376	0.206208
4360	0.361061
4344	0.265979
4328	0.147795
4312	0.264191
4296	-0.062227
4280	0.006842
4264	0.184035
4248	0.097084
4232	-0.110697
4216	0.182485
4200	-0.008034
4184	-0.021696
4168	0.177383
4152	0.063776
4136	0.044775
4120	0.151419
4104	-0.122332
4088	0.207424
4072	0.002932
4056	-0.116133
4040	-0.161886
4024	0.023794
4008	0.292825
3992	0.106167
3976	-0.146698
3960	-0.020360
3944	0.001931
3928	0.162005
3912	0.032901
3896	0.231194
3880	-0.021576
3864	-0.090575
3848	-0.176501
3832	0.046205
3816	0.110721
3800	-0.028371
3784	0.221323
3768	-0.030207
3752	0.085449
3736	0.024485
3720	0.059843
3704	0.180530
3688	0.004434
3672	0.032949
3656	-0.003242
3640	-0.079369
3624	0.054430
3608	0.028061
3592	0.088739
3576	0.076150
3560	0.109505
3544	0.152945
3528	0.024580
3512	0.084853
3496	0.046372
3480	0.103759
3464	-0.090694
3448	0.073504
3432	-0.102400
3416	-0.014638
3400	0.045347
3384	-0.000739
3368	0.045251
3352	0.001931
3336	0.022172
3320	0.002527
3304	-0.031089
3288	0.002598
3272	0.133109
3256	0.022506
3240	-0.045990
3224	0.120592
3208	0.083184
3192	0.061130
3176	-0.015974
3160	-0.020933
3144	0.061321
3128	-0.130987
3112	0.091934
3096	0.096726
3080	0.095248
3064	0.031757
3048	0.019574
3032	0.087594
3016	0.028276
3000	0.106763
2984	0.049090
2968	0.077891
2952	0.052070
2936	0.099706
2920	-0.074267
2904	0.063300
2888	-0.082540
2872	-0.045323
2856	0.148272
2840	0.034403
2824	0.001454
2808	0.085115
2792	0.108122
2776	-0.001811
2760	0.031614
2744	-0.022053
2728	0.010848
2712	0.058674
2696	0.008487
2680	0.046086
2664	0.034642
2648	0.095462
2632	-0.008940
2616	0.017333
2600	0.042200
2584	0.004935
2568	0.077128
2552	-0.022101
2536	0.003981
2520	-0.139474
2504	-0.012040
2488	0.054788
2472	-0.008058
2456	0.010919
2440	0.111484
2424	0.255560
2408	0.081133
2392	-0.046205
2376	-0.026249
2360	-0.040125
2344	0.060582
2328	-0.043463
2312	0.034976
2296	0.032114
2280	0.098991
2264	0.138354
2248	0.245070
2232	0.368595
2216	0.590610
2200	0.930213
2184	1.382350
2168	2.040982
2152	2.794361
2136	3.817582
2120	4.945254
2104	6.086587
2088	7.517814
2072	8.866286
2056	10.3549
2040	11.9075
2024	13.2418
2008	14.4721
1992	15.5205
1976	16.9302
1960	17.9388
1944	18.8979
1928	19.7782
1912	20.5494
1896	21.2489
1880	21.8538
1864	22.2916
1848	22.7942
1832	23.1521
1816	23.4325
1800	23.68
1784	23.9525
1768	24.0607
1752	24.2294
1736	24.2626
1720	24.4034
1704	24.5806
1688	24.6004
1672	24.7683
1656	24.7421
1640	24.8284
1624	24.7305
1608	24.7746
1592	24.8794
1576	24.6922
1560	24.8814
1544	24.7493
1528	24.6965
1512	24.7546
1496	24.6698
1480	24.603
1464	24.6927
1448	24.4668
1432	24.4073
1416	24.4496
1400	24.4006
1384	24.3984
1368	24.2036
1352	24.2031
1336	24.1565
1320	24.088
1304	24.1502
1288	24.0865
1272	23.9597
1256	24.0201
1240	23.8548
1224	23.7889
1208	23.6507
1192	23.637
1176	23.5336
1160	23.4448
1144	23.3724
1128	23.3251
1112	22.8066
1096	22.6748
1080	22.9694
1064	22.7393
1048	22.6293
1032	22.3879
1016	22.2777
1000	22.0046
984	 21.8422
968	 21.9574
952	 21.4339
936	 21.3003
920	 21.0068
904	 20.725
888	 20.6447
872	 20.3084
856	 20.2975
840	 20.044
824	 19.8006
808	 19.7193
792	 19.0754
776	 18.7515
760	 18.4068
744	 17.9358
728	 17.9337
712	 17.333
696	 17.265
680	 17.1487
664	 16.4832
648	 16.111
632	 15.8327
616	 15.2961
600	 15.3047
584	 14.7109
568	 14.0172
552	 13.622
536	 12.9078
520	 13.424
504	 12.682
488	 12.7511
472	 11.5382
456	 11.2061
440	 10.2549
424	 10.9526
408	 16.1019
392	 15.1409
376	 -12.8846
370	 -10.3092