Folder: Masteroppgave/Bakgrunnsmateriale/MATLAB/FTIR/ftir_data/LPE453/Mapping_121 (part 26)

File: LPE453_t56_cm-1.asc
PE IR       SPECTRUM    SPECTRUM    ASCII       PEDS        1.60
  -1
LPE95A~1.ASC
17/05/16
18:57:37.00
17/05/16
18:57:37.00
tln
$LPE453_t0056$<tbV0>[13.0,0.0,8.0,0.0,27,1,0]
370
64

2002,4.07
MIRTGS : RIGHTBACK : INTERNAL 2
MIR : ON : INTERNAL 2
OPTKBR

0.200000
8
8.000000
FILLER
RATIO
SPECTRUM
UNLOCKED 256

DOUBLE
64
COMBINED
1
0
0

1.000000
RATIO

1
0
TRUE
51149
0
LEFT NOT FITTED RIGHT NOT FITTED 0
NONE
NONE
15600
12
4.427000
51148
TRUE
1 0 8 72 0 0 0 0

15798

#HDR
-1
-1
#GR
CM-1
%T
2.38419e-05
0.0
5000
-1.000000
4631
8
24.9625
-11.8752
#DATA
5000	0.447511
4984	0.385475
4968	0.449824
4952	0.037646
4936	0.185322
4920	0.128650
4904	-0.176596
4888	0.167679
4872	0.467634
4856	0.452709
4840	-0.129938
4824	-0.031208
4808	0.482702
4792	0.299739
4776	0.360989
4760	0.270199
4744	-0.198531
4728	1.001954
4712	0.860285
4696	-0.583887
4680	1.518368
4664	0.541090
4648	0.510120
4632	0.979328
4616	-0.272059
4600	0.218272
4584	1.208734
4568	0.597286
4552	1.037478
4536	-0.652956
4520	-0.965905
4504	-3.335380
4488	24.9625
4472	-3.490138
4456	1.180028
4440	-0.997972
4424	-0.286793
4408	0.180172
4392	0.735187
4376	0.600337
4360	0.544571
4344	0.500321
4328	0.571012
4312	0.021147
4296	0.087165
4280	0.413584
4264	0.394296
4248	0.148677
4232	0.115823
4216	0.166869
4200	0.183033
4184	0.081372
4168	0.699043
4152	0.459432
4136	0.409650
4120	0.143170
4104	0.209689
4088	0.227427
4072	0.203442
4056	0.141429
4040	0.094056
4024	0.068616
4008	0.151491
3992	-0.121736
3976	0.035572
3960	0.163316
3944	0.344133
3928	0.097346
3912	0.107383
3896	0.057005
3880	0.169706
3864	0.204992
3848	0.065779
3832	0.362753
3816	0.102353
3800	0.099277
3784	0.125002
3768	0.030875
3752	0.220346
3736	0.147557
3720	0.046014
3704	0.043034
3688	0.187969
3672	0.015640
3656	0.104045
3640	0.061631
3624	0.061082
3608	0.116491
3592	0.165128
3576	-0.098204
3560	0.093460
3544	-0.002074
3528	0.031018
3512	0.002098
3496	0.098657
3480	0.124263
3464	0.261521
3448	-0.007820
3432	-0.005435
3416	0.082755
3400	-0.065350
3384	-0.032734
3368	-0.040173
3352	0.051522
3336	0.008320
3320	0.084161
3304	0.143742
3288	-0.019907
3272	-0.000548
3256	0.038838
3240	0.002837
3224	0.080728
3208	0.049042
3192	0.046133
3176	0.077795
3160	0.012230
3144	0.220417
3128	0.129556
3112	0.067734
3096	0.140333
3080	-0.005674
3064	-0.055575
3048	0.091314
3032	-0.051021
3016	-0.003886
3000	-0.040292
2984	0.065350
2968	-0.023150
2952	0.165653
2936	0.010466
2920	0.035977
2904	0.020051
2888	0.003266
2872	0.011587
2856	-0.007367
2840	0.077390
2824	0.029897
2808	0.021457
2792	0.081300
2776	0.043988
2760	-0.128531
2744	-0.098991
2728	0.123691
2712	0.058054
2696	-0.007128
2680	0.013899
2664	0.143241
2648	0.028061
2632	0.029349
2616	0.059008
2600	0.084495
2584	0.021004
2568	0.067043
2552	0.084829
2536	0.130534
2520	0.077724
2504	0.090169
2488	0.112485
2472	-0.010561
2456	-0.010871
2440	-0.013780
2424	0.007796
2408	-0.049328
2392	0.117564
2376	0.151729
2360	0.062870
2344	-0.010681
2328	-0.069069
2312	0.018548
2296	0.078511
2280	-0.030636
2264	0.195670
2248	0.278520
2232	0.435757
2216	0.648427
2200	0.906181
2184	1.402711
2168	2.106523
2152	2.753829
2136	3.690862
2120	4.757404
2104	5.915522
2088	7.248878
2072	8.632349
2056	10.0187
2040	11.2898
2024	12.5178
2008	13.7911
1992	14.9311
1976	16.0442
1960	16.9596
1944	17.8455
1928	18.594
1912	19.3369
1896	19.9131
1880	20.471
1864	20.8894
1848	21.4065
1832	21.6965
1816	22.0482
1800	22.5041
1784	22.6339
1768	22.8371
1752	23.0414
1736	23.2446
1720	23.5115
1704	23.5227
1688	23.7209
1672	23.7148
1656	23.7187
1640	23.8387
1624	23.8735
1608	23.9899
1592	24.0465
1576	24.0615
1560	24.1062
1544	23.9974
1528	24.0993
1512	24.0561
1496	23.9912
1480	24.0783
1464	23.9792
1448	24.0408
1432	24.0752
1416	24.0459
1400	23.9874
1384	23.8435
1368	23.9449
1352	23.7486
1336	23.7334
1320	23.7774
1304	23.5573
1288	23.6178
1272	23.4946
1256	23.4489
1240	23.6216
1224	23.231
1208	23.4229
1192	23.2235
1176	23.121
1160	23.3031
1144	22.9055
1128	22.8656
1112	22.8625
1096	22.3992
1080	22.5479
1064	22.5255
1048	22.3506
1032	22.2347
1016	21.9086
1000	21.951
984	 21.8691
968	 21.3268
952	 21.641
936	 21.1066
920	 20.6581
904	 20.7529
888	 20.1444
872	 20.3476
856	 19.9029
840	 19.6056
824	 19.651
808	 19.1854
792	 19.0313
776	 18.8448
760	 18.1794
744	 18.297
728	 17.9417
712	 17.4467
696	 17.3549
680	 16.7005
664	 16.3945
648	 16.6665
632	 15.5745
616	 15.5632
600	 15.0833
584	 14.9069
568	 14.4823
552	 13.7064
536	 13.8472
520	 13.4247
504	 13.0511
488	 12.5484
472	 11.7765
456	 12.2248
440	 10.5551
424	 10.2862
408	 6.523323
392	 15.8343
376	 -6.707882
370	 -2.791261

File: LPE453_t57.asc
PE IR       SPECTRUM    SPECTRUM    ASCII       PEDS        1.60
  -1
LPD7A5~1.ASC
17/05/16
19:02:14.00
17/05/16
19:02:40.00
tln
$LPE453_t0057$<tbV0>[10.4,0.0,8.0,0.0,27,1,0]
27.028
64

2002,4.07
MIRTGS : RIGHTBACK : INTERNAL 2
MIR : ON : INTERNAL 2
OPTKBR

0.200000
8
8.000000
FILLER
RATIO
SPECTRUM
UNLOCKED 256

DOUBLE
64
COMBINED
1
0
0

0.002000
RATIO

1
0
TRUE
51149
0
LEFT NOT FITTED RIGHT NOT FITTED 0
NONE
NONE
15600
12
4.427000
51148
TRUE
1 0 8 72 0 0 0 0

15798

#HDR
-1
-1
#GR
µM
%T
2.38419e-05
0.0
2.000000
0.002000
12515
8
23.3199
-19.3054
#DATA
2.000000	 0.297307
2.084000	 0.197972
2.168000	 0.009870
2.252000	 0.890417
2.336000	 -0.040620
2.420000	 0.153223
2.504000	 -0.113911
2.588000	 -0.016754
2.672000	 0.119914
2.756000	 0.196466
2.840000	 0.147269
2.924000	 -0.052014
3.008000	 0.177667
3.092000	 0.009591
3.176000	 0.097889
3.260000	 0.224550
3.344000	 0.150975
3.428000	 0.012412
3.512000	 -0.051441
3.596000	 0.122302
3.680000	 0.075961
3.764000	 0.031439
3.848000	 0.117755
3.932000	 -0.059336
4.016000	 0.146896
4.100000	 0.241814
4.184000	 0.001859
4.268000	 -0.084578
4.352000	 -0.001421
4.436000	 0.223263
4.520000	 0.459050
4.604000	 1.592333
4.688000	 3.473270
4.772000	 6.071783
4.856000	 8.969478
4.940000	 11.9266
5.024000	 14.559
5.108000	 16.6974
5.192000	 18.3869
5.276000	 19.6863
5.359999	 20.7081
5.444000	 21.5224
5.528000	 22.062
5.612000	 22.4433
5.696000	 22.7414
5.780000	 22.9257
5.864000	 22.9602
5.948000	 23.0854
6.032000	 23.1583
6.116000	 23.2712
6.200000	 23.2533
6.284000	 23.1803
6.368000	 23.2037
6.452000	 23.1966
6.536000	 23.2922
6.620000	 23.1274
6.704000	 23.1858
6.788000	 23.0531
6.872000	 23.0467
6.956000	 23.0788
7.040000	 23.0085
7.124000	 22.8622
7.208000	 22.7646
7.292000	 22.8741
7.376000	 22.5787
7.460000	 22.7523
7.544000	 22.6535
7.628000	 22.6359
7.712000	 22.6073
7.796000	 22.4221
7.880000	 22.3567
7.964000	 22.4405
8.048000	 22.3074
8.132000	 22.2255
8.216000	 22.1378
8.300000	 22.1283
8.384000	 22.0624
8.468000	 22.0561
8.552000	 21.9406
8.635999	 21.9192
8.719999	 21.8889
8.804000	 21.7192
8.888000	 21.55
8.972000	 21.5742
9.056000	 21.3778
9.140000	 21.2185
9.224000	 21.2758
9.308000	 21.4187
9.391999	 21.1742
9.475999	 21.0922
9.560000	 20.9284
9.644000	 20.9322
9.728000	 20.8623
9.812000	 20.8297
9.896000	 20.6887
9.980000	 20.7372
10.064	20.7529
10.148	20.6812
10.232	20.4805
10.316	20.2846
10.4	20.166
10.484	20.133
10.568	20.1553
10.652	19.7974
10.736	19.7178
10.82	19.7563
10.904	19.6729
10.988	19.4482
11.072	19.2184
11.156	19.1538
11.24	19.0856
11.324	19.1211
11.408	19.0476
11.492	18.8746
11.576	18.9042
11.66	18.8321
11.744	18.6064
11.828	18.5109
11.912	18.5651
11.996	18.5384
12.08	18.1968
12.164	17.7922
12.248	17.871
12.332	17.9106
12.416	17.8963
12.5	17.6864
12.584	17.5665
12.668	17.6064
12.752	17.4471
12.836	17.3742
12.92	17.387
13.004	17.164
13.088	16.9772
13.172	16.9435
13.256	16.9866
13.34	17.0828
13.424	16.8327
13.508	16.5076
13.592	16.3879
13.676	16.3891
13.76	16.4834
13.844	16.5547
13.928	16.5856
14.012	16.4839
14.096	16.2274
14.18	16.0618
14.264	16.1041
14.348	16.0318
14.432	15.8293
14.516	15.6235
14.6	15.4168
14.684	15.4418
14.768	15.5307
14.852	15.3357
14.936	15.0916
15.02	15.0728
15.104	15.1095
15.188	15.0264
15.272	14.9177
15.356	14.8533
15.44	14.7982
15.524	14.8144
15.608	14.8928
15.692	14.8234
15.776	14.5166
15.86	14.0977
15.944	13.7343
16.028	13.5674
16.112	13.6281
16.196	13.7758
16.28	13.8375
16.364	13.7638
16.448	13.6295
16.532	13.5626
16.616	13.6376
16.7	13.7556
16.784	13.7384
16.868	13.5782
16.952	13.4014
17.036	13.2418
17.12	13.0633
17.204	12.9062
17.288	12.8293
17.372	12.8341
17.456	12.9065
17.54	13.006
17.624	13.0407
17.708	12.9588
17.792	12.8123
17.876	12.6646
17.96	12.5249
18.044	12.3879
18.128	12.244
18.212	12.0747
18.296	11.8887
18.38	11.7347
18.464	11.6568
18.548	11.6597
18.632	11.7225
18.716	11.8006
18.8	11.8272
18.884	11.7787
18.968	11.713
19.052	11.6995
19.136	11.7231
19.22	11.7106
19.304	11.6374
19.388	11.5712
19.472	11.5849
19.556	11.6595
19.64	11.691
19.724	11.5884
19.808	11.3399
19.892	11.0126
19.976	10.7062
20.06	10.5194
20.144	10.5206
20.228	10.7118
20.312	11.0024
20.396	11.2443
20.48	11.3266
20.564	11.2381
20.648	11.0288
20.732	10.7372
20.816	10.3706
20.9	9.943578
20.984	9.527085
21.068	9.227056
21.152	9.127382
21.236	9.235897
21.32	9.481363
21.404	9.754806
21.488	9.959060
21.572	10.0422
21.656	10.0203
21.74	9.954118
21.824	9.899029
21.908	9.854005
21.992	9.751719
22.076	9.505747
22.16	9.080694
22.244	8.524360
22.328	7.953268
22.412	7.493535
22.496	7.225013
22.58	7.164897
22.664	7.280053
22.748	7.484771
22.832	7.657113
22.916	7.657142
23	7.396557
23.084	6.890215
23.168	6.272755
23.252	5.740656
23.336	5.495068
23.42	5.653813
23.504	6.225897
23.588	7.081794
23.672	7.998638
23.756	8.719649
23.84	9.048816
23.924	8.897005
24.008	8.307231
24.092	7.433110
24.176	6.459056
24.26	5.555869
24.344	4.870735
24.428	4.485682
24.512	4.404973
24.596	4.565826
24.68	4.889202
24.764	5.319792
24.848	5.793395
24.932	6.257809
25.016	6.684537
25.1	7.064974
25.184	7.405264
25.268	7.708156
25.352	7.957668
25.436	8.062024
25.52	7.802397
25.604	6.867316
25.688	5.033455
25.772	2.305008
25.856	-1.038313
25.94	-4.353711
26.024	-6.789163
26.108	-7.629051
26.192	-6.669569
26.276	-4.311760
26.36	-1.376391
26.444	0.936012
26.528	1.491627
26.612	-0.448712
26.696	-4.771961
26.78	-10.4207
26.864	-15.6799
26.948	-18.9035
27.028	-19.2744

File: LPE453_t57_cm-1.asc
PE IR       SPECTRUM    SPECTRUM    ASCII       PEDS        1.60
  -1
LPE9DA~1.ASC
17/05/16
19:02:14.00
17/05/16
19:02:14.00
tln
$LPE453_t0057$<tbV0>[10.4,0.0,8.0,0.0,27,1,0]
370
64

2002,4.07
MIRTGS : RIGHTBACK : INTERNAL 2
MIR : ON : INTERNAL 2
OPTKBR

0.200000
8
8.000000
FILLER
RATIO
SPECTRUM
UNLOCKED 256

DOUBLE
64
COMBINED
1
0
0

1.000000
RATIO

1
0
TRUE
51149
0
LEFT NOT FITTED RIGHT NOT FITTED 0
NONE
NONE
15600
12
4.427000
51148
TRUE
1 0 8 72 0 0 0 0

15798

#HDR
-1
-1
#GR
CM-1
%T
2.38419e-05
0.0
5000
-1.000000
4631
8
23.3198
-19.2744
#DATA
5000	0.297307
4984	-0.026798
4968	0.162601
4952	0.024032
4936	0.252056
4920	-0.151944
4904	0.205874
4888	0.219345
4872	-0.034999
4856	-0.020146
4840	0.221586
4824	-0.075888
4808	0.306224
4792	-0.066232
4776	-0.268507
4760	0.298285
4744	0.742411
4728	0.563549
4712	-0.064802
4696	-0.162076
4680	-1.430153
4664	2.181601
4648	-0.136590
4632	1.010322
4616	0.357198
4600	-0.122880
4584	1.013851
4568	-0.142908
4552	0.544476
4536	-0.678825
4520	-0.192379
4504	0.048375
4488	1.319265
4472	-1.958179
4456	0.245118
4440	0.888705
4424	0.175261
4408	-0.035142
4392	-0.245571
4376	0.182151
4360	0.267577
4344	-0.148606
4328	-0.239658
4312	0.167894
4296	-0.082373
4280	-0.052785
4264	0.199246
4248	-0.159716
4232	0.067973
4216	0.525999
4200	0.288176
4184	-0.084114
4168	0.031685
4152	-0.261282
4136	0.139689
4120	0.096440
4104	0.118160
4088	0.077867
4072	-0.025320
4056	0.060987
4040	0.157403
4024	0.194144
4008	0.104212
3992	-0.133132
3976	-0.191688
3960	-0.037264
3944	0.200867
3928	-0.048732
3912	0.030326
3896	-0.063109
3880	0.028538
3864	-0.016975
3848	0.147461
3832	0.087714
3816	0.141811
3800	-0.019264
3784	0.059938
3768	0.026226
3752	0.012731
3736	0.197076
3720	-0.121188
3704	0.034618
3688	0.144767
3672	-0.037574
3656	0.165820
3640	0.011610
3624	0.004768
3608	0.141906
3592	-0.001907
3576	0.008964
3560	0.183510
3544	0.006866
3528	0.070786
3512	0.025773
3496	0.057625
3480	0.065422
3464	-0.045442
3448	0.067877
3432	0.116610
3416	-0.030589
3400	0.144243
3384	-0.136017
3368	0.037074
3352	-0.024175
3336	0.044989
3320	0.133681
3304	0.096464
3288	0.004076
3272	0.005793
3256	0.055646
3240	0.071525
3224	0.086641
3208	-0.057721
3192	0.185918
3176	0.044131
3160	0.003576
3144	0.099897
3128	0.262355
3112	0.117826
3096	0.078439
3080	0.059461
3064	0.174379
3048	-0.047183
3032	0.195002
3016	0.033116
3000	0.053858
2984	0.073814
2968	0.034785
2952	0.001621
2936	-0.031113
2920	0.018024
2904	0.050997
2888	0.125074
2872	0.050640
2856	0.048589
2840	0.073051
2824	0.102376
2808	0.106167
2792	0.068855
2776	0.061583
2760	-0.066566
2744	-0.074148
2728	0.015616
2712	0.068306
2696	-0.021791
2680	0.040841
2664	0.094676
2648	0.006413
2632	0.144529
2616	0.096750
2600	0.116252
2584	-0.011944
2568	-0.022721
2552	0.195026
2536	-0.104475
2520	-0.036931
2504	-0.070643
2488	0.060987
2472	-0.070834
2456	0.026679
2440	0.217533
2424	0.071907
2408	0.082135
2392	-0.011563
2376	-0.016999
2360	0.024032
2344	-0.072050
2328	-0.048518
2312	0.073599
2296	-0.001573
2280	0.101256
2264	0.161290
2248	0.184512
2232	0.301146
2216	0.407361
2200	0.837182
2184	1.153254
2168	1.682114
2152	2.390384
2136	3.314900
2120	4.225707
2104	5.427002
2088	6.600093
2072	7.779288
2056	9.288811
2040	10.601
2024	11.9506
2008	13.2787
1992	14.4459
1976	15.47
1960	16.5414
1944	17.5278
1928	18.2944
1912	19.1062
1896	19.6579
1880	20.3335
1864	20.7751
1848	21.2402
1832	21.6302
1816	21.8301
1800	22.1699
1784	22.4427
1768	22.6728
1752	22.7726
1736	22.8834
1720	23.0501
1704	22.9381
1688	23.0774
1672	23.2103
1656	23.161
1640	23.1903
1624	23.1955
1608	23.3082
1592	23.1843
1576	23.1977
1560	23.1478
1544	23.2492
1528	23.2738
1512	23.1122
1496	23.1531
1480	23.1652
1464	23.0606
1448	23.0286
1432	22.911
1416	23.0248
1400	22.8791
1384	22.7989
1368	22.7998
1352	22.6175
1336	22.7257
1320	22.6175
1304	22.5408
1288	22.5041
1272	22.3363
1256	22.4411
1240	22.2638
1224	22.1891
1208	22.1023
1192	22.0673
1176	21.9779
1160	21.9249
1144	21.8193
1128	21.6181
1112	21.5361
1096	21.251
1080	21.3242
1064	21.1757
1048	20.9213
1032	20.9284
1016	20.8134
1000	20.7315
984	 20.6599
968	 20.2613
952	 20.1457
936	 19.7026
920	 19.714
904	 19.2379
888	 19.0823
872	 18.9188
856	 18.7675
840	 18.5601
824	 17.8706
808	 17.9176
792	 17.5979
776	 17.4021
760	 16.9465
744	 16.754
728	 16.4557
712	 16.3937
696	 15.9863
680	 15.4791
664	 15.101
648	 14.8019
632	 14.286
616	 13.8207
600	 13.7166
584	 13.0563
568	 13.043
552	 12.2658
536	 11.7467
520	 11.704
504	 11.2143
488	 11.3238
472	 9.149360
456	 9.836649
440	 7.431864
424	 7.048177
408	 4.403781
392	 7.863616
376	 0.131392
370	 -19.2744

File: LPE453_t58.asc
PE IR       SPECTRUM    SPECTRUM    ASCII       PEDS        1.60
  -1
LPE7A9~1.ASC
17/05/16
19:06:51.00
17/05/16
19:07:17.00
tln
$LPE453_t0058$<tbV0>[7.8,0.0,8.0,0.0,27,1,0]
27.028
64

2002,4.07
MIRTGS : RIGHTBACK : INTERNAL 2
MIR : ON : INTERNAL 2
OPTKBR

0.200000
8
8.000000
FILLER
RATIO
SPECTRUM
UNLOCKED 256

DOUBLE
64
COMBINED
1
0
0

0.002000
RATIO

1
0
TRUE
51149
0
LEFT NOT FITTED RIGHT NOT FITTED 0
NONE
NONE
15600
12
4.427000
51148
TRUE
1 0 8 72 0 0 0 0

15798

#HDR
-1
-1
#GR
µM
%T
2.38419e-05
0.0
2.000000
0.002000
12515
8
24.3291
-13.6148
#DATA
2.000000	 -0.191450
2.084000	 -0.015482
2.168000	 0.934369
2.252000	 -0.608253
2.336000	 -0.058107
2.420000	 0.263898
2.504000	 -0.111004
2.588000	 -0.065241
2.672000	 0.121967
2.756000	 0.064964
2.840000	 0.052131
2.924000	 0.138682
3.008000	 -0.063930
3.092000	 -0.071693
3.176000	 0.142113
3.260000	 0.023464
3.344000	 0.161451
3.428000	 -0.020750
3.512000	 0.038057
3.596000	 0.053129
3.680000	 -0.136119
3.764000	 0.028578
3.848000	 0.018041
3.932000	 0.077291
4.016000	 0.038828
4.100000	 0.134127
4.184000	 -0.091220
4.268000	 0.124115
4.352000	 0.054863
4.436000	 0.152971
4.520000	 0.610210
4.604000	 1.726473
4.688000	 3.789261
4.772000	 6.596536
4.856000	 9.689278
4.940000	 12.9912
5.024000	 15.5614
5.108000	 17.9322
5.192000	 19.5885
5.276000	 20.8597
5.359999	 21.9596
5.444000	 22.5581
5.528000	 23.129
5.612000	 23.6504
5.696000	 23.7931
5.780000	 23.9666
5.864000	 24.0412
5.948000	 24.2221
6.032000	 24.3012
6.116000	 24.2396
6.200000	 24.1563
6.284000	 24.2444
6.368000	 24.203
6.452000	 24.1662
6.536000	 24.1664
6.620000	 24.117
6.704000	 24.0838
6.788000	 23.9317
6.872000	 23.884
6.956000	 23.894
7.040000	 23.9117
7.124000	 23.6306
7.208000	 23.7382
7.292000	 23.505
7.376000	 23.4798
7.460000	 23.5614
7.544000	 23.371
7.628000	 23.4963
7.712000	 23.2949
7.796000	 23.4
7.880000	 23.2051
7.964000	 23.1357
8.048000	 23.1181
8.132000	 23.0341
8.216000	 22.903
8.300000	 22.9191
8.384000	 22.9595
8.468000	 22.6825
8.552000	 22.6827
8.635999	 22.5608
8.719999	 22.4891
8.804000	 22.1974
8.888000	 22.145
8.972000	 22.2202
9.056000	 22.1699
9.140000	 22.0534
9.224000	 22.2456
9.308000	 21.8545
9.391999	 21.7698
9.475999	 21.6912
9.560000	 21.7463
9.644000	 21.6566
9.728000	 21.6067
9.812000	 21.5364
9.896000	 21.7101
9.980000	 21.3096
10.064	21.1397
10.148	20.8878
10.232	20.8855
10.316	20.7956
10.4	20.5424
10.484	20.4051
10.568	20.4324
10.652	20.2618
10.736	20.3134
10.82	20.2009
10.904	20.2529
10.988	20.0592
11.072	19.672
11.156	19.487
11.24	19.6116
11.324	19.6119
11.408	19.4187
11.492	19.2327
11.576	19.2016
11.66	19.1495
11.744	18.9731
11.828	18.9876
11.912	18.832
11.996	18.7615
12.08	18.5374
12.164	18.4406
12.248	18.3594
12.332	18.1819
12.416	18.1692
12.5	18.0543
12.584	17.8449
12.668	17.7786
12.752	17.6385
12.836	17.5578
12.92	17.5006
13.004	17.324
13.088	17.0984
13.172	17.2093
13.256	17.246
13.34	17.0986
13.424	17.0461
13.508	17.0711
13.592	17.0691
13.676	16.9517
13.76	16.7949
13.844	16.5604
13.928	16.3176
14.012	16.2389
14.096	16.2257
14.18	16.3214
14.264	16.387
14.348	16.2094
14.432	16.067
14.516	16.1838
14.6	16.2044
14.684	15.9672
14.768	15.8166
14.852	15.7683
14.936	15.5621
15.02	15.1788
15.104	14.9321
15.188	15.0633
15.272	15.3333
15.356	15.4467
15.44	15.3934
15.524	15.1855
15.608	14.8083
15.692	14.3177
15.776	13.9114
15.86	13.8789
15.944	14.2145
16.028	14.5802
16.112	14.7551
16.196	14.7081
16.28	14.4672
16.364	14.1893
16.448	14.0353
16.532	13.9735
16.616	13.893
16.7	13.7654
16.784	13.6341
16.868	13.5763
16.952	13.6487
17.036	13.7921
17.12	13.8778
17.204	13.8516
17.288	13.7429
17.372	13.5878
17.456	13.422
17.54	13.2726
17.624	13.1036
17.708	12.8609
17.792	12.5963
17.876	12.449
17.96	12.5046
18.044	12.7277
18.128	13.0026
18.212	13.19
18.296	13.1758
18.38	12.9557
18.464	12.6744
18.548	12.5307
18.632	12.6094
18.716	12.8171
18.8	12.9856
18.884	13.0246
18.968	12.9474
19.052	12.7914
19.136	12.5833
19.22	12.3722
19.304	12.2443
19.388	12.2573
19.472	12.3784
19.556	12.487
19.64	12.4618
19.724	12.2804
19.808	12.038
19.892	11.8774
19.976	11.8731
20.06	11.9732
20.144	12.0439
20.228	11.9755
20.312	11.7543
20.396	11.4653
20.48	11.2313
20.564	11.1369
20.648	11.1672
20.732	11.2083
20.816	11.1269
20.9	10.8715
20.984	10.5264
21.068	10.2531
21.152	10.167
21.236	10.2574
21.32	10.4066
21.404	10.505
21.488	10.5385
21.572	10.5769
21.656	10.6775
21.74	10.8138
21.824	10.8766
21.908	10.761
21.992	10.4565
22.076	10.0519
22.16	9.679288
22.244	9.438370
22.328	9.358555
22.412	9.441357
22.496	9.693899
22.58	10.122
22.664	10.7082
22.748	11.379
22.832	12.0138
22.916	12.5032
23	12.8051
23.084	12.9399
23.168	12.9664
23.252	12.9282
23.336	12.8236
23.42	12.6112
23.504	12.2554
23.588	11.7334
23.672	11.0451
23.756	10.2399
23.84	9.414804
23.924	8.739773
24.008	8.443980
24.092	8.761772
24.176	9.810635
24.26	11.5216
24.344	13.5616
24.428	15.4215
24.512	16.5545
24.596	16.5968
24.68	15.4979
24.764	13.5795
24.848	11.3941
24.932	9.630462
25.016	8.845417
25.1	9.275633
25.184	10.8344
25.268	13.1541
25.352	15.7361
25.436	18.032
25.52	19.6307
25.604	20.3419
25.688	20.0769
25.772	18.8349
25.856	16.6719
25.94	13.633
26.024	9.783855
26.108	5.287314
26.192	0.503237
26.276	-4.044017
26.36	-7.751904
26.444	-10.1405
26.528	-11.0466
26.612	-10.6829
26.696	-9.654777
26.78	-8.833880
26.864	-9.031959
26.948	-10.6946
27.028	-13.6148

File: LPE453_t58_cm-1.asc
PE IR       SPECTRUM    SPECTRUM    ASCII       PEDS        1.60
  -1
LPE959~1.ASC
17/05/16
19:06:51.00
17/05/16
19:06:51.00
tln
$LPE453_t0058$<tbV0>[7.8,0.0,8.0,0.0,27,1,0]
370
64

2002,4.07
MIRTGS : RIGHTBACK : INTERNAL 2
MIR : ON : INTERNAL 2
OPTKBR

0.200000
8
8.000000
FILLER
RATIO
SPECTRUM
UNLOCKED 256

DOUBLE
64
COMBINED
1
0
0

1.000000
RATIO

1
0
TRUE
51149
0
LEFT NOT FITTED RIGHT NOT FITTED 0
NONE
NONE
15600
12
4.427000
51148
TRUE
1 0 8 72 0 0 0 0

15798

#HDR
-1
-1
#GR
CM-1
%T
2.38419e-05
0.0
5000
-1.000000
4631
8
24.3291
-13.6148
#DATA
5000	-0.191450
4984	-0.303196
4968	0.924777
4952	-0.188565
4936	-0.021457
4920	0.061416
4904	-0.195527
4888	-0.121855
4872	0.227093
4856	0.339484
4840	-0.336170
4824	0.345468
4808	0.104069
4792	0.172710
4776	0.201296
4760	0.376701
4744	0.051259
4728	0.338268
4712	-0.376248
4696	0.784850
4680	2.288365
4664	1.296710
4648	-0.232505
4632	0.980544
4616	0.491070
4600	0.895643
4584	-0.120210
4568	0.341320
4552	0.227761
4536	-0.136113
4520	-0.089287
4504	-1.766085
4488	15.9574
4472	1.154899
4456	-0.160074
4440	-0.628542
4424	-0.636982
4408	0.078916
4392	0.166225
4376	0.489187
4360	0.421500
4344	0.138187
4328	0.132918
4312	0.285196
4296	-0.048971
4280	-0.045847
4264	0.220751
4248	0.068306
4232	-0.038123
4216	0.225424
4200	0.584173
4184	0.171303
4168	0.286698
4152	0.203108
4136	0.447702
4120	-0.095868
4104	0.265789
4088	0.074934
4072	0.179934
4056	0.124454
4040	0.204849
4024	0.125384
4008	0.062322
3992	-0.099301
3976	-0.037837
3960	0.086355
3944	0.052309
3928	0.054693
3912	0.162601
3896	0.004649
3880	-0.132298
3864	-0.065064
3848	0.007224
3832	0.005269
3816	0.239181
3800	0.084900
3784	0.061058
3768	-0.001883
3752	0.054836
3736	0.050449
3720	0.012874
3704	0.034451
3688	0.007224
3672	0.078058
3656	-0.090718
3640	-0.055909
3624	0.076413
3608	-0.119781
3592	0.124382
3576	0.032043
3560	0.038743
3544	-0.005984
3528	-0.061964
3512	0.033974
3496	0.020408
3480	-0.023913
3464	0.138640
3448	0.039505
3432	0.164461
3416	0.090885
3400	0.035214
3384	0.151944
3368	0.147509
3352	0.004506
3336	-0.052952
3320	-0.127172
3304	0.067949
3288	0.080609
3272	0.013852
3256	0.057840
3240	0.000691
3224	0.038504
3208	0.159907
3192	-0.229096
3176	-0.056958
3160	-0.022649
3144	0.221657
3128	-0.133132
3112	-0.086593
3096	0.092434
3080	0.145983
3064	0.031638
3048	-0.071358
3032	0.040078
3016	0.082898
3000	0.010871
2984	0.169992
2968	0.100135
2952	0.041294
2936	0.038051
2920	-0.037956
2904	0.042533
2888	0.100517
2872	0.077009
2856	-0.091838
2840	0.009036
2824	-0.041866
2808	0.060319
2792	-0.007128
2776	0.006794
2760	0.009441
2744	0.076198
2728	0.104355
2712	-0.129318
2696	-0.034928
2680	0.010371
2664	0.042152
2648	0.108098
2632	0.071406
2616	-0.102400
2600	0.014662
2584	-0.038838
2568	0.140738
2552	-0.070738
2536	-0.025725
2520	-0.081038
2504	0.063157
2488	-0.001811
2472	-0.010919
2456	0.002002
2440	0.132060
2424	-0.013971
2408	0.281500
2392	-0.104475
2376	-0.040125
2360	-0.055241
2344	0.135207
2328	-0.087189
2312	-0.037074
2296	0.050139
2280	-0.005626
2264	0.120997
2248	0.158619
2232	0.351691
2216	0.529241
2200	0.808167
2184	1.330232
2168	1.818466
2152	2.577519
2136	3.587675
2120	4.739022
2104	5.908203
2088	7.334780
2072	8.773183
2056	10.0197
2040	11.4727
2024	13.0101
2008	14.2976
1992	15.4311
1976	16.6208
1960	17.7539
1944	18.6541
1928	19.4973
1912	20.2734
1896	20.8371
1880	21.4484
1864	22.0303
1848	22.4132
1832	22.6899
1816	22.9631
1800	23.3627
1784	23.6149
1768	23.6861
1752	23.8231
1736	23.9352
1720	24.159
1704	24.0677
1688	24.2116
1672	24.204
1656	24.297
1640	24.1298
1624	24.2736
1608	24.1606
1592	24.2447
1576	24.1512
1560	24.1684
1544	24.125
1528	24.1529
1512	24.1188
1496	24.1517
1480	23.9384
1464	24.0423
1448	23.8623
1432	23.8303
1416	23.8673
1400	23.5778
1384	23.719
1368	23.4946
1352	23.494
1336	23.4785
1320	23.4639
1304	23.412
1288	23.3376
1272	23.2469
1256	23.1344
1240	23.1118
1224	22.9409
1208	22.9078
1192	22.9589
1176	22.6278
1160	22.629
1144	22.383
1128	22.1594
1112	22.2496
1096	21.9818
1080	22.0989
1064	21.7788
1048	21.6948
1032	21.5537
1016	21.608
1000	21.3083
984	 20.8862
968	 20.7656
952	 20.4001
936	 20.2412
920	 20.2306
904	 19.7064
888	 19.6363
872	 19.2682
856	 19.0915
840	 18.8399
824	 18.4607
808	 18.1474
792	 17.8186
776	 17.5248
760	 17.1786
744	 17.0477
728	 16.8416
712	 16.2279
696	 16.1561
680	 15.9086
664	 15.0191
648	 15.4046
632	 13.8361
616	 14.6178
600	 13.8201
584	 13.8789
568	 13.1459
552	 12.9654
536	 12.6648
520	 12.3495
504	 11.9576
488	 11.2087
472	 10.1882
456	 10.6981
440	 11.212
424	 11.7557
408	 16.5382
392	 19.4886
376	 -10.8243
370	 -13.6148