Folder: Masteroppgave/Bakgrunnsmateriale/MATLAB/FTIR/ftir_data/LPE453/Mapping_121 (part 48)

File: LPE453_t111_cm-1.asc
PE IR       SPECTRUM    SPECTRUM    ASCII       PEDS        1.60
  -1
LP04FC~1.ASC
17/05/16
23:31:51.00
17/05/16
23:31:51.00
tln
$LPE453_t0111$<tbV0>[13.0,13.0,8.0,0.0,27,1,0]
370
64

2002,4.07
MIRTGS : RIGHTBACK : INTERNAL 2
MIR : ON : INTERNAL 2
OPTKBR

0.200000
8
8.000000
FILLER
RATIO
SPECTRUM
UNLOCKED 256

DOUBLE
64
COMBINED
1
0
0

1.000000
RATIO

1
0
TRUE
51149
0
LEFT NOT FITTED RIGHT NOT FITTED 0
NONE
NONE
15600
12
4.427000
51148
TRUE
1 0 8 72 0 0 0 0

15798

#HDR
-1
-1
#GR
CM-1
%T
2.38419e-05
0.0
5000
-1.000000
4631
8
19.7411
-6.063604
#DATA
5000	-0.153827
4984	-0.152516
4968	0.415873
4952	0.114440
4936	0.248026
4920	-0.234532
4904	0.217247
4888	0.171732
4872	-0.366353
4856	0.065994
4840	0.211286
4824	0.020837
4808	0.435066
4792	0.370717
4776	-0.409269
4760	0.120925
4744	0.291991
4728	0.312733
4712	0.179672
4696	0.347590
4680	-1.386642
4664	0.427007
4648	-0.955128
4632	1.676607
4616	0.262522
4600	1.057791
4584	0.694847
4568	0.595903
4552	-0.518250
4536	0.759816
4520	-0.045752
4504	4.200339
4488	2.138328
4472	-1.016879
4456	-0.624966
4440	-0.602650
4424	0.280880
4408	0.293040
4392	0.896978
4376	-0.118255
4360	0.465965
4344	0.051784
4328	-0.037837
4312	0.249242
4296	-0.123858
4280	0.090265
4264	0.168251
4248	-0.135636
4232	0.355648
4216	-0.082635
4200	0.026392
4184	0.438284
4168	0.649333
4152	0.053381
4136	0.038528
4120	0.179576
4104	0.044727
4088	-0.023913
4072	0.081658
4056	-0.106573
4040	-0.009083
4024	0.105643
4008	0.122237
3992	-0.308942
3976	-0.016307
3960	0.226521
3944	-0.066781
3928	-0.013399
3912	0.073289
3896	0.192213
3880	-0.013875
3864	-0.172662
3848	0.247550
3832	0.082850
3816	0.192785
3800	0.105738
3784	-0.109720
3768	0.160884
3752	-0.027251
3736	-0.067114
3720	-0.058031
3704	0.148367
3688	0.008296
3672	0.153255
3656	0.086665
3640	-0.008606
3624	-0.019264
3608	0.110721
3592	-0.162458
3576	0.060248
3560	-0.061035
3544	0.013375
3528	0.109004
3512	0.046610
3496	0.070881
3480	0.101804
3464	0.058460
3448	0.054883
3432	0.046849
3416	0.067400
3400	0.152397
3384	0.251626
3368	0.136566
3352	0.070834
3336	-0.030612
3320	0.186228
3304	0.014805
3288	-0.200748
3272	0.086355
3256	0.103449
3240	-0.005054
3224	0.147843
3208	-0.061988
3192	-0.060772
3176	0.085449
3160	-0.089812
3144	0.051999
3128	0.139641
3112	-0.082421
3096	0.024843
3080	0.144219
3064	0.017237
3048	0.012898
3032	0.017261
3016	0.080633
3000	-0.168728
2984	0.063991
2968	0.143361
2952	0.037693
2936	0.031995
2920	0.095057
2904	-0.129556
2888	0.160098
2872	-0.039124
2856	0.135111
2840	0.005722
2824	0.068402
2808	-0.003743
2792	0.111913
2776	0.033044
2760	0.068902
2744	-0.060439
2728	0.062751
2712	-0.045871
2696	0.025439
2680	0.111198
2664	0.021457
2648	0.021457
2632	0.047731
2616	-0.003814
2600	0.012421
2584	0.033068
2568	0.172114
2552	-0.091791
2536	0.055956
2520	0.023317
2504	-0.005674
2488	0.087189
2472	0.079798
2456	0.011944
2440	0.066518
2424	0.061178
2408	0.160455
2392	0.064468
2376	-0.023412
2360	-0.039219
2344	-0.032091
2328	-0.037455
2312	0.043702
2296	-0.005292
2280	0.073647
2264	0.092148
2248	0.087404
2232	0.289320
2216	0.418472
2200	0.591969
2184	0.841307
2168	1.422929
2152	2.054882
2136	2.574610
2120	3.330922
2104	4.164457
2088	5.248713
2072	6.215882
2056	7.371497
2040	8.262634
2024	9.376263
2008	10.2039
1992	11.1921
1976	12.2096
1960	12.9019
1944	13.7651
1928	14.2916
1912	14.9941
1896	15.6649
1880	16.1394
1864	16.5153
1848	16.9386
1832	17.2819
1816	17.6105
1800	17.8332
1784	18.1152
1768	18.2898
1752	18.5516
1736	18.6158
1720	18.7216
1704	18.8714
1688	19.095
1672	19.0974
1656	19.3156
1640	19.3789
1624	19.4796
1608	19.4374
1592	19.4834
1576	19.5865
1560	19.6559
1544	19.6264
1528	19.6181
1512	19.6717
1496	19.5063
1480	19.5686
1464	19.5642
1448	19.6494
1432	19.605
1416	19.5687
1400	19.524
1384	19.3935
1368	19.4247
1352	19.4334
1336	19.3827
1320	19.2965
1304	19.1467
1288	19.0748
1272	19.0755
1256	18.9255
1240	18.589
1224	18.5178
1208	18.5964
1192	18.3623
1176	18.2703
1160	18.2879
1144	18.1694
1128	17.9953
1112	17.6908
1096	17.5898
1080	17.3148
1064	17.2963
1048	17.1725
1032	16.9159
1016	16.7505
1000	16.6484
984	 16.4346
968	 16.1797
952	 16.0351
936	 15.9882
920	 15.7872
904	 15.4513
888	 15.4222
872	 14.978
856	 14.8198
840	 14.7748
824	 14.4129
808	 14.1117
792	 14.0264
776	 13.8188
760	 13.5537
744	 13.2812
728	 13.1403
712	 12.806
696	 12.8198
680	 12.2916
664	 11.5759
648	 11.4685
632	 11.1687
616	 11.2642
600	 10.7199
584	 10.3051
568	 10.4264
552	 10.0475
536	 9.356021
520	 8.861184
504	 9.218263
488	 8.282041
472	 8.186769
456	 8.061718
440	 7.185173
424	 3.509616
408	 3.933382
392	 9.378933
376	 14.4534
370	 -0.041055

File: LPE453_t112.asc
PE IR       SPECTRUM    SPECTRUM    ASCII       PEDS        1.60
  -1
LP9B78~1.ASC
17/05/16
23:36:28.00
17/05/16
23:36:54.00
tln
$LPE453_t0112$<tbV0>[10.4,13.0,8.0,0.0,27,1,0]
27.028
64

2002,4.07
MIRTGS : RIGHTBACK : INTERNAL 2
MIR : ON : INTERNAL 2
OPTKBR

0.200000
8
8.000000
FILLER
RATIO
SPECTRUM
UNLOCKED 256

DOUBLE
64
COMBINED
1
0
0

0.002000
RATIO

1
0
TRUE
51149
0
LEFT NOT FITTED RIGHT NOT FITTED 0
NONE
NONE
15600
12
4.427000
51148
TRUE
1 0 8 72 0 0 0 0

15798

#HDR
-1
-1
#GR
µM
%T
2.38419e-05
0.0
2.000000
0.002000
12515
8
29.7662
-2.344652
#DATA
2.000000	 0.212597
2.084000	 0.145251
2.168000	 0.316050
2.252000	 -0.699080
2.336000	 -0.143266
2.420000	 0.280956
2.504000	 0.099122
2.588000	 0.196126
2.672000	 0.014304
2.756000	 0.123513
2.840000	 0.205479
2.924000	 0.039873
3.008000	 0.219945
3.092000	 0.032139
3.176000	 -0.019759
3.260000	 0.005046
3.344000	 -0.025303
3.428000	 0.144205
3.512000	 -0.036235
3.596000	 0.004242
3.680000	 -0.061035
3.764000	 0.195511
3.848000	 0.027823
3.932000	 0.092581
4.016000	 -0.012543
4.100000	 0.005103
4.184000	 -0.017559
4.268000	 0.175789
4.352000	 0.226165
4.436000	 0.744759
4.520000	 2.046068
4.604000	 4.263800
4.688000	 7.417994
4.772000	 11.0356
4.856000	 14.4329
4.940000	 17.5404
5.024000	 20.001
5.108000	 21.9728
5.192000	 23.7239
5.276000	 24.7784
5.359999	 25.7538
5.444000	 26.4834
5.528000	 27.0181
5.612000	 27.4503
5.696000	 27.6058
5.780000	 28.0211
5.864000	 28.2708
5.948000	 28.4428
6.032000	 28.5718
6.116000	 28.8309
6.200000	 28.7779
6.284000	 29.1023
6.368000	 29.0904
6.452000	 28.8921
6.536000	 29.0981
6.620000	 29.0599
6.704000	 29.0304
6.788000	 29.1807
6.872000	 29.0219
6.956000	 29.1198
7.040000	 29.1991
7.124000	 29.19
7.208000	 29.0495
7.292000	 29.2617
7.376000	 29.112
7.460000	 28.9324
7.544000	 28.9149
7.628000	 28.9197
7.712000	 28.8565
7.796000	 28.8045
7.880000	 28.824
7.964000	 28.7775
8.048000	 28.6583
8.132000	 28.6015
8.216000	 28.6057
8.300000	 28.6013
8.384000	 28.4595
8.468000	 28.5491
8.552000	 28.5246
8.635999	 28.4517
8.719999	 28.4127
8.804000	 28.0895
8.888000	 28.2731
8.972000	 28.1109
9.056000	 28.1321
9.140000	 28.1626
9.224000	 28.0334
9.308000	 27.9152
9.391999	 27.8428
9.475999	 27.9269
9.560000	 27.8858
9.644000	 27.6401
9.728000	 27.6148
9.812000	 27.5299
9.896000	 27.5727
9.980000	 27.3323
10.064	27.4977
10.148	27.4823
10.232	27.2948
10.316	27.1733
10.4	27.1966
10.484	27.2674
10.568	27.1567
10.652	26.8659
10.736	26.9596
10.82	26.9262
10.904	26.9791
10.988	26.8473
11.072	26.6448
11.156	26.6352
11.24	26.6196
11.324	26.5423
11.408	26.4039
11.492	26.2264
11.576	26.2572
11.66	26.1484
11.744	25.9317
11.828	25.9177
11.912	25.8817
11.996	25.8905
12.08	25.8219
12.164	25.7262
12.248	25.5955
12.332	25.4606
12.416	25.397
12.5	25.4496
12.584	25.4737
12.668	25.5154
12.752	25.4985
12.836	25.3706
12.92	25.2206
13.004	25.0676
13.088	24.802
13.172	24.5703
13.256	24.466
13.34	24.6192
13.424	24.6552
13.508	24.4992
13.592	24.5454
13.676	24.5831
13.76	24.5811
13.844	24.5189
13.928	24.2458
14.012	23.9581
14.096	23.8651
14.18	23.8788
14.264	23.8063
14.348	23.742
14.432	23.6771
14.516	23.6122
14.6	23.6566
14.684	23.6217
14.768	23.5209
14.852	23.5307
14.936	23.5047
15.02	23.4143
15.104	23.3281
15.188	23.2043
15.272	23.1229
15.356	23.0623
15.44	22.9038
15.524	22.7193
15.608	22.5643
15.692	22.4648
15.776	22.5261
15.86	22.6658
15.944	22.6627
16.028	22.5282
16.112	22.4407
16.196	22.4062
16.28	22.3167
16.364	22.2334
16.448	22.2305
16.532	22.1201
16.616	21.8179
16.7	21.6139
16.784	21.6781
16.868	21.8055
16.952	21.8084
17.036	21.7434
17.12	21.7061
17.204	21.6969
17.288	21.6898
17.372	21.6869
17.456	21.6929
17.54	21.6816
17.624	21.6333
17.708	21.5708
17.792	21.5124
17.876	21.4081
17.96	21.1866
18.044	20.8673
18.128	20.5922
18.212	20.5404
18.296	20.7592
18.38	21.0513
18.464	21.1324
18.548	20.935
18.632	20.6686
18.716	20.5579
18.8	20.6162
18.884	20.709
18.968	20.7407
19.052	20.6972
19.136	20.5867
19.22	20.4275
19.304	20.2745
19.388	20.2038
19.472	20.247
19.556	20.3645
19.64	20.4818
19.724	20.5456
19.808	20.5433
19.892	20.4849
19.976	20.3813
20.06	20.23
20.144	20.0382
20.228	19.8414
20.312	19.6899
20.396	19.6053
20.48	19.5625
20.564	19.5083
20.648	19.4044
20.732	19.2539
20.816	19.1053
20.9	19.0164
20.984	19.0163
21.068	19.0885
21.152	19.1856
21.236	19.2569
21.32	19.2607
21.404	19.1715
21.488	18.9758
21.572	18.682
21.656	18.3329
21.74	17.9927
21.824	17.7118
21.908	17.4937
21.992	17.3097
22.076	17.1405
22.16	16.9979
22.244	16.918
22.328	16.9303
22.412	17.0454
22.496	17.2559
22.58	17.5475
22.664	17.8926
22.748	18.2296
22.832	18.4655
22.916	18.4947
23	18.2747
23.084	17.8451
23.168	17.3083
23.252	16.7628
23.336	16.271
23.42	15.8588
23.504	15.5327
23.588	15.311
23.672	15.2235
23.756	15.2758
23.84	15.4316
23.924	15.6195
24.008	15.7521
24.092	15.7483
24.176	15.5691
24.26	15.1599
24.344	14.4586
24.428	13.4512
24.512	12.2076
24.596	10.9086
24.68	9.780676
24.764	8.985177
24.848	8.515050
24.932	8.219384
25.016	7.876229
25.1	7.242926
25.184	6.231989
25.268	4.967826
25.352	3.683702
25.436	2.732518
25.52	2.449283
25.604	3.042721
25.688	4.605617
25.772	7.140009
25.856	10.5813
25.94	14.6304
26.024	18.7633
26.108	22.3589
26.192	25.0865
26.276	26.9406
26.36	28.254
26.444	29.2442
26.528	29.7622
26.612	29.2454
26.696	26.985
26.78	22.5524
26.864	16.0258
26.948	7.917871
27.028	-0.635361

File: LPE453_t112_cm-1.asc
PE IR       SPECTRUM    SPECTRUM    ASCII       PEDS        1.60
  -1
LP05FC~1.ASC
17/05/16
23:36:28.00
17/05/16
23:36:28.00
tln
$LPE453_t0112$<tbV0>[10.4,13.0,8.0,0.0,27,1,0]
370
64

2002,4.07
MIRTGS : RIGHTBACK : INTERNAL 2
MIR : ON : INTERNAL 2
OPTKBR

0.200000
8
8.000000
FILLER
RATIO
SPECTRUM
UNLOCKED 256

DOUBLE
64
COMBINED
1
0
0

1.000000
RATIO

1
0
TRUE
51149
0
LEFT NOT FITTED RIGHT NOT FITTED 0
NONE
NONE
15600
12
4.427000
51148
TRUE
1 0 8 72 0 0 0 0

15798

#HDR
-1
-1
#GR
CM-1
%T
2.38419e-05
0.0
5000
-1.000000
4631
8
29.7599
-2.421617
#DATA
5000	0.212597
4984	0.463843
4968	-0.160312
4952	0.470256
4936	0.224900
4920	0.078511
4904	0.049614
4888	0.186562
4872	-0.193738
4856	0.281214
4840	0.352549
4824	0.039458
4808	0.297832
4792	0.417184
4776	0.347852
4760	0.672578
4744	0.242328
4728	0.222420
4712	-0.272417
4696	0.259041
4680	-0.741124
4664	2.179598
4648	0.096392
4632	-0.332331
4616	0.431895
4600	0.860309
4584	0.823259
4568	-1.038479
4552	-0.303816
4536	-0.807356
4520	-2.222776
4504	-0.018358
4488	24.3237
4472	2.027320
4456	-2.046513
4440	-0.669932
4424	-0.293588
4408	0.553822
4392	0.769352
4376	0.906109
4360	0.815367
4344	-0.017189
4328	0.456261
4312	0.281429
4296	0.336480
4280	-0.140213
4264	-0.012278
4248	-0.088763
4232	-0.085425
4216	0.054192
4200	-0.103306
4184	0.179147
4168	0.188159
4152	0.186681
4136	0.327801
4120	0.104284
4104	0.185799
4088	-0.095272
4072	0.113201
4056	-0.036716
4040	0.251007
4024	-0.024533
4008	0.153398
3992	0.092768
3976	-0.051164
3960	-0.096559
3944	0.073766
3928	-0.041604
3912	-0.059223
3896	0.030064
3880	0.095534
3864	0.196290
3848	0.110769
3832	0.052285
3816	-0.008416
3800	0.124788
3784	-0.057220
3768	0.028991
3752	0.136852
3736	0.014066
3720	0.070691
3704	0.041103
3688	0.032138
3672	0.089097
3656	0.136423
3640	0.013732
3624	0.127720
3608	0.119781
3592	0.128483
3576	-0.008940
3560	0.202775
3544	-0.042891
3528	0.082087
3512	0.054407
3496	0.021743
3480	0.065398
3464	-0.058746
3448	-0.076770
3432	0.025367
3416	-0.004959
3400	-0.041699
3384	-0.019550
3368	-0.011372
3352	0.251865
3336	0.008678
3320	0.236725
3304	0.070786
3288	0.098347
3272	0.000596
3256	0.180816
3240	0.091695
3224	0.041484
3208	0.042486
3192	0.059103
3176	0.092864
3160	0.049996
3144	-0.023269
3128	-0.074315
3112	0.013637
3096	0.151872
3080	0.000190
3064	0.101041
3048	-0.012135
3032	0.007629
3016	0.005841
3000	0.021076
2984	-0.114083
2968	-0.097513
2952	-0.002312
2936	-0.038576
2920	0.141549
2904	-0.000548
2888	0.055432
2872	0.090575
2856	-0.010585
2840	0.044775
2824	0.036907
2808	0.145292
2792	0.061178
2776	-0.012421
2760	-0.000381
2744	0.081896
2728	-0.002002
2712	-0.080633
2696	0.120639
2680	0.033283
2664	0.133943
2648	0.056481
2632	0.056838
2616	0.015211
2600	0.008034
2584	-0.011491
2568	0.047492
2552	0.074291
2536	-0.001978
2520	0.000619
2504	0.095224
2488	-0.045084
2472	-0.023603
2456	0.041389
2440	0.006008
2424	-0.139188
2408	0.051069
2392	-0.033783
2376	-0.007319
2360	0.098705
2344	0.173854
2328	-0.000524
2312	0.208234
2296	0.259089
2280	0.430679
2264	0.559759
2248	0.907540
2232	1.302289
2216	1.906871
2200	2.598166
2184	3.479933
2168	4.580879
2152	5.763268
2136	7.160258
2120	8.705377
2104	10.1681
2088	11.7205
2072	13.1512
2056	14.7309
2040	16.1903
2024	17.5595
2008	18.783
1992	19.9177
1976	21.0094
1960	21.849
1944	22.839
1928	23.641
1912	24.2332
1896	24.7535
1880	25.3371
1864	25.8173
1848	26.2358
1832	26.5871
1816	26.9139
1800	27.1697
1784	27.4336
1768	27.5585
1752	27.6631
1736	27.9446
1720	28.1087
1704	28.2954
1688	28.3284
1672	28.4843
1656	28.577
1640	28.8281
1624	28.8503
1608	28.9475
1592	29.0893
1576	29.0775
1560	29.0624
1544	28.9395
1528	29.1082
1512	29.0742
1496	29.0079
1480	29.0162
1464	29.1904
1448	28.9596
1432	29.1944
1416	29.1829
1400	29.1185
1384	29.0784
1368	29.2085
1352	29.1467
1336	28.8462
1320	29.0328
1304	28.8922
1288	28.7719
1272	28.8005
1256	28.7692
1240	28.5817
1224	28.5991
1208	28.6459
1192	28.4513
1176	28.6161
1160	28.4592
1144	28.3579
1128	28.2133
1112	28.1219
1096	28.1246
1080	27.9934
1064	27.8468
1048	27.9247
1032	27.6315
1016	27.5487
1000	27.351
984	 27.4716
968	 27.1747
952	 27.2463
936	 26.8505
920	 26.9432
904	 26.6598
888	 26.5939
872	 26.2647
856	 26.0659
840	 25.8789
824	 25.7648
808	 25.4122
792	 25.4897
776	 25.2724
760	 24.6051
744	 24.6238
728	 24.5779
712	 23.8948
696	 23.7313
680	 23.5907
664	 23.3758
648	 22.9218
632	 22.6103
616	 22.3743
600	 21.6624
584	 21.7054
568	 21.6464
552	 20.6215
536	 20.6143
520	 20.406
504	 20.5259
488	 19.5567
472	 19.2206
456	 17.4439
440	 18.1516
424	 15.3169
408	 12.2414
392	 2.439022
376	 29.471
370	 -0.635361

File: LPE453_t113.asc
PE IR       SPECTRUM    SPECTRUM    ASCII       PEDS        1.60
  -1
LP9F78~1.ASC
17/05/16
23:41:05.00
17/05/16
23:41:31.00
tln
$LPE453_t0113$<tbV0>[7.8,13.0,8.0,0.0,27,1,0]
27.028
64

2002,4.07
MIRTGS : RIGHTBACK : INTERNAL 2
MIR : ON : INTERNAL 2
OPTKBR

0.200000
8
8.000000
FILLER
RATIO
SPECTRUM
UNLOCKED 256

DOUBLE
64
COMBINED
1
0
0

0.002000
RATIO

1
0
TRUE
51149
0
LEFT NOT FITTED RIGHT NOT FITTED 0
NONE
NONE
15600
12
4.427000
51148
TRUE
1 0 8 72 0 0 0 0

15798

#HDR
-1
-1
#GR
µM
%T
2.38419e-05
0.0
2.000000
0.002000
12515
8
52.3434
-2.292995
#DATA
2.000000	 0.052547
2.084000	 0.237013
2.168000	 0.806502
2.252000	 -0.182391
2.336000	 0.235242
2.420000	 0.043745
2.504000	 0.056882
2.588000	 -0.111554
2.672000	 0.132352
2.756000	 0.123396
2.840000	 0.174742
2.924000	 -0.017525
3.008000	 0.111914
3.092000	 0.009625
3.176000	 -0.011929
3.260000	 0.105103
3.344000	 0.071423
3.428000	 -0.014744
3.512000	 -0.075945
3.596000	 0.019290
3.680000	 -0.097038
3.764000	 -0.038659
3.848000	 0.015924
3.932000	 -0.015888
4.016000	 -0.017016
4.100000	 0.084612
4.184000	 0.096181
4.268000	 0.366777
4.352000	 0.764677
4.436000	 1.997984
4.520000	 4.212340
4.604000	 7.538118
4.688000	 11.3791
4.772000	 15.5149
4.856000	 19.1134
4.940000	 22.1359
5.024000	 24.5701
5.108000	 26.2643
5.192000	 27.8193
5.276000	 28.794
5.359999	 29.7169
5.444000	 30.1881
5.528000	 30.7545
5.612000	 31.0229
5.696000	 31.3453
5.780000	 31.7123
5.864000	 31.9039
5.948000	 31.9948
6.032000	 32.1173
6.116000	 32.3396
6.200000	 32.5474
6.284000	 32.6507
6.368000	 32.6138
6.452000	 32.7702
6.536000	 33.0327
6.620000	 32.9119
6.704000	 32.7637
6.788000	 32.9459
6.872000	 32.9715
6.956000	 32.9958
7.040000	 33.2462
7.124000	 33.3056
7.208000	 33.1559
7.292000	 33.2748
7.376000	 33.2784
7.460000	 33.3637
7.544000	 33.3593
7.628000	 33.104
7.712000	 33.3337
7.796000	 33.364
7.880000	 33.2408
7.964000	 33.3101
8.048000	 33.2553
8.132000	 33.503
8.216000	 33.3251
8.300000	 33.3163
8.384000	 33.1181
8.468000	 33.1839
8.552000	 33.3042
8.635999	 33.324
8.719999	 33.413
8.804000	 33.392
8.888000	 33.4376
8.972000	 33.3372
9.056000	 33.4071
9.140000	 33.2648
9.224000	 33.4985
9.308000	 32.9689
9.391999	 33.0243
9.475999	 33.247
9.560000	 33.167
9.644000	 33.1333
9.728000	 33.1017
9.812000	 33.3172
9.896000	 33.1557
9.980000	 32.9371
10.064	32.8605
10.148	32.8532
10.232	32.9037
10.316	32.9949
10.4	32.9733
10.484	32.9205
10.568	32.9331
10.652	32.8809
10.736	32.8679
10.82	32.5849
10.904	32.3816
10.988	32.4615
11.072	32.5233
11.156	32.5859
11.24	32.5727
11.324	32.4701
11.408	32.4829
11.492	32.1989
11.576	32.0744
11.66	32.2436
11.744	32.3519
11.828	32.3501
11.912	32.1842
11.996	32.1598
12.08	32.0429
12.164	31.9658
12.248	32.0096
12.332	31.9408
12.416	31.7179
12.5	31.6535
12.584	31.6417
12.668	31.5712
12.752	31.7057
12.836	31.6809
12.92	31.3317
13.004	31.3327
13.088	31.4421
13.172	31.3404
13.256	31.3376
13.34	31.3027
13.424	31.2315
13.508	31.1234
13.592	31.0684
13.676	30.9023
13.76	30.6875
13.844	30.6958
13.928	30.7616
14.012	30.6034
14.096	30.4275
14.18	30.4818
14.264	30.5605
14.348	30.5666
14.432	30.5674
14.516	30.5901
14.6	30.5827
14.684	30.5005
14.768	30.3967
14.852	30.3252
14.936	30.2843
15.02	30.2453
15.104	30.2127
15.188	30.2008
15.272	30.1313
15.356	29.947
15.44	29.7538
15.524	29.637
15.608	29.5639
15.692	29.5111
15.776	29.4813
15.86	29.5095
15.944	29.6144
16.028	29.742
16.112	29.8772
16.196	30.0386
16.28	30.1221
16.364	29.9913
16.448	29.6814
16.532	29.3409
16.616	29.0805
16.7	28.9243
16.784	28.8093
16.868	28.6832
16.952	28.6088
17.036	28.6387
17.12	28.6532
17.204	28.5018
17.288	28.2385
17.372	28.0627
17.456	28.0905
17.54	28.2595
17.624	28.4137
17.708	28.4382
17.792	28.3478
17.876	28.2711
17.96	28.3013
18.044	28.4049
18.128	28.5086
18.212	28.6082
18.296	28.7138
18.38	28.7607
18.464	28.6754
18.548	28.4949
18.632	28.3319
18.716	28.2454
18.8	28.2019
18.884	28.1418
18.968	28.0364
19.052	27.8861
19.136	27.7087
19.22	27.5321
19.304	27.3809
19.388	27.2675
19.472	27.212
19.556	27.2468
19.64	27.3842
19.724	27.5774
19.808	27.7439
19.892	27.8293
19.976	27.8481
20.06	27.8503
20.144	27.8571
20.228	27.8362
20.312	27.7309
20.396	27.5057
20.48	27.1724
20.564	26.7929
20.648	26.4644
20.732	26.2867
20.816	26.3123
20.9	26.5087
20.984	26.7715
21.068	26.9782
21.152	27.0612
21.236	27.0263
21.32	26.9194
21.404	26.779
21.488	26.6156
21.572	26.4324
21.656	26.2435
21.74	26.0789
21.824	25.9799
21.908	25.9776
21.992	26.0677
22.076	26.2015
22.16	26.2903
22.244	26.2429
22.328	26.0215
22.412	25.6633
22.496	25.2771
22.58	24.983
22.664	24.8623
22.748	24.9287
22.832	25.143
22.916	25.4408
23	25.7376
23.084	25.9544
23.168	26.0025
23.252	25.8157
23.336	25.3926
23.42	24.8128
23.504	24.2244
23.588	23.8094
23.672	23.7072
23.756	23.9454
23.84	24.4551
23.924	25.0764
24.008	25.6332
24.092	26.0014
24.176	26.1337
24.26	26.0751
24.344	25.95
24.428	25.9204
24.512	26.1637
24.596	26.8482
24.68	28.0569
24.764	29.7025
24.848	31.5875
24.932	33.3779
25.016	34.6862
25.1	35.1802
25.184	34.6514
25.268	33.1066
25.352	30.7456
25.436	27.9231
25.52	25.0298
25.604	22.3717
25.688	20.2158
25.772	18.7075
25.856	17.8415
25.94	17.47
26.024	17.3995
26.108	17.5179
26.192	17.9853
26.276	19.2363
26.36	21.8447
26.444	26.1564
26.528	32.006
26.612	38.6697
26.696	45.0084
26.78	49.7981
26.864	52.1576
26.948	51.8088
27.028	49.3341

File: LPE453_t113_cm-1.asc
PE IR       SPECTRUM    SPECTRUM    ASCII       PEDS        1.60
  -1
LP06FC~1.ASC
17/05/16
23:41:05.00
17/05/16
23:41:05.00
tln
$LPE453_t0113$<tbV0>[7.8,13.0,8.0,0.0,27,1,0]
370
64

2002,4.07
MIRTGS : RIGHTBACK : INTERNAL 2
MIR : ON : INTERNAL 2
OPTKBR

0.200000
8
8.000000
FILLER
RATIO
SPECTRUM
UNLOCKED 256

DOUBLE
64
COMBINED
1
0
0

1.000000
RATIO

1
0
TRUE
51149
0
LEFT NOT FITTED RIGHT NOT FITTED 0
NONE
NONE
15600
12
4.427000
51148
TRUE
1 0 8 72 0 0 0 0

15798

#HDR
-1
-1
#GR
CM-1
%T
2.38419e-05
0.0
5000
-1.000000
4631
8
52.3118
-2.651524
#DATA
5000	0.052547
4984	0.198674
4968	0.202012
4952	0.184679
4936	-0.102472
4920	-0.345396
4904	0.543642
4888	0.301432
4872	0.257658
4856	0.260353
4840	0.128579
4824	0.080227
4808	0.340795
4792	-0.169157
4776	0.460004
4760	0.147390
4744	0.541377
4728	-0.063085
4712	0.141954
4696	-0.824427
4680	1.000332
4664	0.182294
4648	1.331353
4632	0.724577
4616	0.576925
4600	1.020169
4584	1.791071
4568	0.964307
4552	-0.004482
4536	-0.687718
4520	-0.686264
4504	-1.992630
4488	13.1457
4472	-0.286030
4456	-0.473093
4440	-0.160503
4424	-0.347661
4408	0.034356
4392	0.932216
4376	0.135064
4360	0.722718
4344	0.574159
4328	0.837039
4312	0.044655
4296	0.500440
4280	0.260496
4264	0.220417
4248	0.070786
4232	0.112318
4216	-0.099611
4200	0.258612
4184	0.601124
4168	0.090408
4152	0.238633
4136	-0.002694
4120	0.105237
4104	0.063824
4088	0.140810
4072	0.154495
4056	0.011825
4040	0.213289
4024	0.150918
4008	0.139427
3992	0.077486
3976	0.045657
3960	0.317049
3944	0.071525
3928	0.196743
3912	0.303983
3896	0.112438
3880	0.066161
3864	-0.111579
3848	0.324892
3832	-0.122976
3816	0.127148
3800	0.154304
3784	-0.055837
3768	0.093173
3752	0.085926
3736	0.218152
3720	0.184273
3704	0.091242
3688	0.104904
3672	0.177860
3656	0.282812
3640	0.065112
3624	0.068736
3608	0.185680
3592	0.037264
3576	0.010967
3560	0.153613
3544	0.085783
3528	0.140261
3512	-0.002503
3496	-0.032377
3480	-0.015020
3464	-0.089836
3448	-0.040864
3432	0.066637
3416	0.041961
3400	0.057911
3384	0.275516
3368	0.068306
3352	-0.095486
3336	0.021171
3320	0.068688
3304	-0.027298
3288	-0.066256
3272	0.037312
3256	0.045704
3240	-0.002670
3224	0.047016
3208	-0.035715
3192	0.143051
3176	-0.022387
3160	0.160193
3144	-0.040030
3128	-0.030159
3112	0.003623
3096	-0.022482
3080	-0.013065
3064	0.092434
3048	0.009751
3032	-0.112009
3016	0.154423
3000	0.038170
2984	0.030827
2968	-0.018858
2952	0.143742
2936	0.123000
2920	-0.019741
2904	-0.029134
2888	-0.032782
2872	0.092458
2856	-0.062060
2840	0.057220
2824	0.050520
2808	-0.113010
2792	0.021028
2776	0.024414
2760	-0.062394
2744	0.131702
2728	0.040364
2712	-0.063109
2696	0.036382
2680	0.008249
2664	0.014138
2648	0.077033
2632	0.094318
2616	-0.013995
2600	0.018668
2584	-0.067973
2568	0.058698
2552	-0.029540
2536	0.034642
2520	0.164842
2504	-0.053215
2488	-0.027155
2472	0.085020
2456	0.019717
2440	0.092506
2424	0.161910
2408	0.047516
2392	0.082802
2376	0.261449
2360	0.233602
2344	0.345563
2328	0.430727
2312	0.670981
2296	0.786638
2280	1.281499
2264	1.717686
2248	2.313804
2232	3.025794
2216	3.966522
2200	5.186748
2184	6.336212
2168	7.951068
2152	9.579062
2136	11.107
2120	12.8403
2104	14.6853
2088	16.226
2072	18.0368
2056	19.3888
2040	20.9199
2024	22.158
2008	23.44
1992	24.4818
1976	25.3358
1960	26.1595
1944	26.9235
1928	27.742
1912	28.2341
1896	28.7783
1880	29.2019
1864	29.7347
1848	30.119
1832	30.3353
1816	30.6034
1800	30.8602
1784	31.0217
1768	31.1978
1752	31.4077
1736	31.6294
1720	31.6735
1704	31.9161
1688	31.9637
1672	32.0828
1656	32.1297
1640	32.2628
1624	32.5011
1608	32.5491
1592	32.6526
1576	32.6646
1560	32.6054
1544	32.7647
1528	33.0139
1512	32.906
1496	32.7553
1480	32.9876
1464	33.0219
1448	33.0131
1432	33.0582
1416	33.2882
1400	33.2215
1384	33.1674
1368	33.2855
1352	33.4067
1336	33.3027
1320	33.2717
1304	33.2311
1288	33.3272
1272	33.3309
1256	33.3113
1240	33.2989
1224	33.4615
1208	33.3253
1192	33.12
1176	33.1949
1160	33.2937
1144	33.4259
1128	33.3714
1112	33.3449
1096	33.2309
1080	33.3423
1064	33.032
1048	33.2001
1032	33.1414
1016	33.2985
1000	32.8918
984	 32.8393
968	 33.0001
952	 32.9195
936	 32.9266
920	 32.4738
904	 32.5256
888	 32.5304
872	 32.2885
856	 32.2911
840	 32.1951
824	 31.9674
808	 31.8235
792	 31.5982
776	 31.4618
760	 31.3539
744	 31.2103
728	 30.7318
712	 30.512
696	 30.5651
680	 30.4724
664	 30.2268
648	 29.7689
632	 29.4868
616	 30.0962
600	 28.9764
584	 28.6509
568	 28.3888
552	 28.4946
536	 28.2985
520	 27.5111
504	 27.7881
488	 27.1201
472	 27.0587
456	 25.9931
440	 24.8965
424	 23.8195
408	 26.1521
392	 25.3588
376	 37.3777
370	 49.3341