Folder: Masteroppgave/Bakgrunnsmateriale/MATLAB/FTIR/ftir_data/LPE453/Mapping_121 (part 5)

File: LPE453_t04.asc
PE IR       SPECTRUM    SPECTRUM    ASCII       PEDS        1.60
  -1
LPD399~1.ASC
17/05/16
14:41:52.00
17/05/16
14:42:18.00
tln
$LPE453_t0004$<tbV0>[5.2,-13.0,8.0,0.0,27,1,0]
27.028
64

2002,4.07
MIRTGS : RIGHTBACK : INTERNAL 2
MIR : ON : INTERNAL 2
OPTKBR

0.200000
8
8.000000
FILLER
RATIO
SPECTRUM
UNLOCKED 256

DOUBLE
64
COMBINED
1
0
0

0.002000
RATIO

1
0
TRUE
51149
0
LEFT NOT FITTED RIGHT NOT FITTED 0
NONE
NONE
15600
12
4.427000
51148
TRUE
1 0 8 72 0 0 0 0

15798

#HDR
-1
-1
#GR
µM
%T
2.38419e-05
0.0
2.000000
0.002000
12515
8
33.9953
-7.844638
#DATA
2.000000	 0.331711
2.084000	 0.031473
2.168000	 -0.276037
2.252000	 0.388248
2.336000	 0.380330
2.420000	 0.089692
2.504000	 -0.104735
2.588000	 -0.070714
2.672000	 0.150935
2.756000	 0.009729
2.840000	 0.032708
2.924000	 0.014623
3.008000	 -0.063622
3.092000	 0.002782
3.176000	 -0.001568
3.260000	 0.092138
3.344000	 0.160870
3.428000	 0.192567
3.512000	 -0.096716
3.596000	 -0.030711
3.680000	 0.059714
3.764000	 0.001433
3.848000	 0.092959
3.932000	 -0.012376
4.016000	 0.231718
4.100000	 0.042120
4.184000	 -0.067344
4.268000	 0.179267
4.352000	 0.169023
4.436000	 0.890795
4.520000	 2.478518
4.604000	 5.101249
4.688000	 9.036377
4.772000	 13.5018
4.856000	 18.0477
4.940000	 21.7734
5.024000	 24.9828
5.108000	 27.421
5.192000	 29.1378
5.276000	 30.5364
5.359999	 31.4844
5.444000	 32.1276
5.528000	 32.7141
5.612000	 33.0739
5.696000	 33.2237
5.780000	 33.4921
5.864000	 33.6151
5.948000	 33.9654
6.032000	 33.8294
6.116000	 33.6715
6.200000	 33.6492
6.284000	 33.7472
6.368000	 33.7343
6.452000	 33.5765
6.536000	 33.6915
6.620000	 33.6097
6.704000	 33.419
6.788000	 33.3737
6.872000	 33.4442
6.956000	 33.333
7.040000	 33.3076
7.124000	 33.0652
7.208000	 32.9814
7.292000	 33.0467
7.376000	 32.797
7.460000	 32.9203
7.544000	 32.8622
7.628000	 32.7688
7.712000	 32.666
7.796000	 32.6151
7.880000	 32.5256
7.964000	 32.4836
8.048000	 32.4328
8.132000	 32.5078
8.216000	 32.4803
8.300000	 32.2256
8.384000	 32.1857
8.468000	 32.3137
8.552000	 32.1807
8.635999	 32.0464
8.719999	 32.0929
8.804000	 31.9968
8.888000	 31.9975
8.972000	 32.003
9.056000	 31.9345
9.140000	 31.8892
9.224000	 31.6525
9.308000	 31.6749
9.391999	 31.5516
9.475999	 31.6152
9.560000	 31.5483
9.644000	 31.4444
9.728000	 31.2287
9.812000	 31.1761
9.896000	 31.234
9.980000	 31.2925
10.064	31.1907
10.148	31.1857
10.232	30.8813
10.316	30.8007
10.4	30.7389
10.484	30.7042
10.568	30.7433
10.652	30.7123
10.736	30.629
10.82	30.5052
10.904	30.2994
10.988	30.1214
11.072	30.2235
11.156	30.1716
11.24	30.0145
11.324	29.9875
11.408	29.9563
11.492	29.8092
11.576	29.6689
11.66	29.6338
11.744	29.4554
11.828	29.4336
11.912	29.5353
11.996	29.323
12.08	29.4486
12.164	29.2178
12.248	29.1301
12.332	29.1082
12.416	28.7786
12.5	28.6403
12.584	28.4444
12.668	28.5229
12.752	28.7009
12.836	28.6569
12.92	28.6657
13.004	28.5625
13.088	28.2197
13.172	28.2057
13.256	28.185
13.34	27.9289
13.424	27.6967
13.508	27.5838
13.592	27.7024
13.676	27.8809
13.76	28.1137
13.844	27.8702
13.928	27.6465
14.012	27.6445
14.096	27.4087
14.18	27.0992
14.264	27.0596
14.348	27.1923
14.432	27.0971
14.516	26.902
14.6	26.9033
14.684	27.0614
14.768	27.0523
14.852	26.8851
14.936	26.9155
15.02	26.9759
15.104	26.7285
15.188	26.4494
15.272	26.4359
15.356	26.4605
15.44	26.3452
15.524	26.2267
15.608	26.1017
15.692	25.8938
15.776	25.7554
15.86	25.8344
15.944	26.0443
16.028	26.2088
16.112	26.2248
16.196	26.0917
16.28	25.8227
16.364	25.4257
16.448	25.0699
16.532	24.9581
16.616	24.9893
16.7	24.9352
16.784	24.8084
16.868	24.692
16.952	24.5505
17.036	24.4274
17.12	24.4828
17.204	24.6902
17.288	24.7649
17.372	24.5479
17.456	24.2346
17.54	24.096
17.624	24.1531
17.708	24.254
17.792	24.3126
17.876	24.3346
17.96	24.2954
18.044	24.14
18.128	23.8775
18.212	23.5923
18.296	23.3703
18.38	23.2648
18.464	23.3022
18.548	23.4412
18.632	23.5355
18.716	23.4468
18.8	23.2074
18.884	23.0184
18.968	23.0636
19.052	23.3489
19.136	23.7084
19.22	23.9418
19.304	23.957
19.388	23.8058
19.472	23.6063
19.556	23.4314
19.64	23.2663
19.724	23.0667
19.808	22.8314
19.892	22.6143
19.976	22.4769
20.06	22.4446
20.144	22.4865
20.228	22.5236
20.312	22.4761
20.396	22.317
20.48	22.1073
20.564	21.96
20.648	21.9454
20.732	22.0349
20.816	22.1208
20.9	22.111
20.984	21.9953
21.068	21.8464
21.152	21.7602
21.236	21.7816
21.32	21.87
21.404	21.9226
21.488	21.852
21.572	21.6515
21.656	21.4182
21.74	21.2953
21.824	21.3901
21.908	21.7068
21.992	22.1462
22.076	22.5698
22.16	22.8689
22.244	23.0043
22.328	22.989
22.412	22.8431
22.496	22.5712
22.58	22.1947
22.664	21.7768
22.748	21.4002
22.832	21.0989
22.916	20.8386
23	20.5156
23.084	20.0389
23.168	19.3988
23.252	18.6918
23.336	18.0857
23.42	17.7381
23.504	17.7482
23.588	18.1069
23.672	18.6986
23.756	19.3174
23.84	19.7433
23.924	19.7695
24.008	19.3201
24.092	18.5422
24.176	17.7566
24.26	17.3306
24.344	17.565
24.428	18.524
24.512	19.967
24.596	21.4378
24.68	22.4688
24.764	22.8121
24.848	22.5201
24.932	21.9229
25.016	21.4559
25.1	21.4474
25.184	22.0087
25.268	22.9303
25.352	23.7498
25.436	23.7933
25.52	22.441
25.604	19.3877
25.688	14.8454
25.772	9.650921
25.856	5.017925
25.94	2.178518
26.024	1.961883
26.108	4.381562
26.192	8.615610
26.276	13.2491
26.36	16.5905
26.444	17.4332
26.528	15.4633
26.612	11.1872
26.696	5.716348
26.78	0.349437
26.864	-3.892006
26.948	-6.574655
27.028	-7.844638

File: LPE453_t04_cm-1.asc
PE IR       SPECTRUM    SPECTRUM    ASCII       PEDS        1.60
  -1
LP675B~1.ASC
17/05/16
14:41:52.00
17/05/16
14:41:52.00
tln
$LPE453_t0004$<tbV0>[5.2,-13.0,8.0,0.0,27,1,0]
370
64

2002,4.07
MIRTGS : RIGHTBACK : INTERNAL 2
MIR : ON : INTERNAL 2
OPTKBR

0.200000
8
8.000000
FILLER
RATIO
SPECTRUM
UNLOCKED 256

DOUBLE
64
COMBINED
1
0
0

1.000000
RATIO

1
0
TRUE
51149
0
LEFT NOT FITTED RIGHT NOT FITTED 0
NONE
NONE
15600
12
4.427000
51148
TRUE
1 0 8 72 0 0 0 0

15798

#HDR
-1
-1
#GR
CM-1
%T
2.38419e-05
0.0
5000
-1.000000
4631
8
33.994
-7.844638
#DATA
5000	0.331711
4984	-0.107240
4968	0.456690
4952	-0.208878
4936	0.453138
4920	-0.093984
4904	0.086045
4888	0.257658
4872	0.094461
4856	-0.368928
4840	0.413250
4824	-0.203466
4808	-0.053334
4792	0.373554
4776	0.242137
4760	-0.221467
4744	0.345849
4728	-0.178527
4712	-0.017333
4696	-0.242328
4680	0.663137
4664	0.495290
4648	-0.250196
4632	-0.094056
4616	0.653791
4600	1.482748
4584	-0.495576
4568	-0.168514
4552	-1.132178
4536	-0.698852
4520	2.262854
4504	4.200792
4488	-3.085565
4472	-0.098180
4456	0.188112
4440	0.359058
4424	0.280737
4408	-0.241613
4392	0.064539
4376	-0.018525
4360	0.389289
4344	0.454282
4328	-0.015878
4312	0.209856
4296	0.224900
4280	0.345444
4264	-0.055217
4248	-0.331354
4232	-0.127005
4216	0.095152
4200	-0.029706
4184	0.488328
4168	-0.000643
4152	-0.169181
4136	0.195050
4120	-0.054264
4104	-0.005769
4088	0.240325
4072	0.069904
4056	0.237011
4040	0.010251
4024	-0.092101
4008	0.237035
3992	-0.035667
3976	0.007510
3960	0.028467
3944	0.102949
3928	0.098252
3912	-0.067257
3896	0.019049
3880	0.032162
3864	-0.070691
3848	-0.009369
3832	0.081586
3816	0.240540
3800	0.030064
3784	0.252962
3768	0.161266
3752	0.039935
3736	0.225114
3720	0.121212
3704	0.014781
3688	0.134325
3672	0.123262
3656	0.110793
3640	0.048780
3624	-0.093245
3608	0.132083
3592	-0.013566
3576	0.140309
3560	-0.173926
3544	0.004673
3528	0.001740
3512	0.018262
3496	0.005984
3480	0.092959
3464	0.128388
3448	0.070643
3432	-0.056362
3416	0.013399
3400	-0.010776
3384	0.107192
3368	-0.016450
3352	0.098967
3336	0.019693
3320	0.001668
3304	-0.037717
3288	0.042009
3272	0.113987
3256	0.022912
3240	0.114274
3224	-0.088620
3208	0.151181
3192	-0.004053
3176	0.076675
3160	-0.044941
3144	0.107502
3128	0.023889
3112	0.082349
3096	0.051259
3080	0.164628
3064	0.050473
3048	0.052404
3032	0.003552
3016	0.062203
3000	0.200057
2984	0.034332
2968	0.050568
2952	0.025653
2936	0.097608
2920	0.156974
2904	0.148248
2888	-0.027179
2872	-0.048446
2856	0.105738
2840	-0.003170
2824	0.003528
2808	-0.065040
2792	0.023436
2776	0.017714
2760	0.029230
2744	-0.022196
2728	0.076127
2712	-0.021886
2696	-0.014519
2680	-0.012755
2664	0.084495
2648	0.081610
2632	0.002956
2616	0.169634
2600	0.112080
2584	-0.103521
2568	0.054883
2552	0.024056
2536	0.082135
2520	0.047278
2504	-0.086808
2488	0.208473
2472	-0.005602
2456	-0.126409
2440	0.049781
2424	-0.131773
2408	0.038790
2392	-0.040030
2376	0.012302
2360	-0.024509
2344	0.173830
2328	0.178241
2312	0.176906
2296	0.191450
2280	0.470757
2264	0.662493
2248	1.041245
2232	1.652240
2216	2.270865
2200	3.243541
2184	4.233813
2168	5.401682
2152	6.984257
2136	8.653593
2120	10.5373
2104	12.4899
2088	14.4608
2072	16.2542
2056	18.4139
2040	20.1683
2024	21.8073
2008	23.454
1992	24.8674
1976	26.0567
1960	27.2457
1944	28.2762
1928	29.0699
1912	29.8496
1896	30.5208
1880	31.1761
1864	31.5461
1848	32.0578
1832	32.2698
1816	32.5858
1800	32.9846
1784	33.0767
1768	33.2727
1752	33.2753
1736	33.5887
1720	33.6916
1704	33.6551
1688	33.8636
1672	33.7152
1656	33.8679
1640	33.7307
1624	33.7284
1608	33.6053
1592	33.7502
1576	33.7466
1560	33.9328
1544	33.6949
1528	33.6899
1512	33.5887
1496	33.4973
1480	33.4331
1464	33.4706
1448	33.2898
1432	33.3934
1416	33.1796
1400	33.0976
1384	32.9931
1368	32.9932
1352	32.7644
1336	32.8697
1320	32.807
1304	32.7456
1288	32.6753
1272	32.4928
1256	32.4833
1240	32.4238
1224	32.5022
1208	32.277
1192	32.1843
1176	32.2255
1160	32.0864
1144	32.0803
1128	31.9144
1112	31.9911
1096	31.8558
1080	31.5746
1064	31.5486
1048	31.573
1032	31.3274
1016	31.2789
1000	31.2999
984	 31.1302
968	 30.7808
952	 30.683
936	 30.6397
920	 30.3884
904	 30.2117
888	 29.9955
872	 29.862
856	 29.6075
840	 29.5525
824	 29.3186
808	 28.9331
792	 28.431
776	 28.6525
760	 28.1842
744	 27.6524
728	 28.08
712	 27.5841
696	 27.196
680	 27.0866
664	 26.8927
648	 26.3585
632	 25.7733
616	 25.9887
600	 24.9719
584	 24.4893
568	 24.1314
552	 23.9188
536	 23.5313
520	 23.9562
504	 22.7394
488	 22.0804
472	 21.7563
456	 21.8147
440	 21.4863
424	 18.0889
408	 19.9276
392	 22.6861
376	 12.1375
370	 -7.844638

File: LPE453_t05.asc
PE IR       SPECTRUM    SPECTRUM    ASCII       PEDS        1.60
  -1
LPD39D~1.ASC
17/05/16
14:46:28.00
17/05/16
14:46:55.00
tln
$LPE453_t0005$<tbV0>[2.6,-13.0,8.0,0.0,27,1,0]
27.028
64

2002,4.07
MIRTGS : RIGHTBACK : INTERNAL 2
MIR : ON : INTERNAL 2
OPTKBR

0.200000
8
8.000000
FILLER
RATIO
SPECTRUM
UNLOCKED 256

DOUBLE
64
COMBINED
1
0
0

0.002000
RATIO

1
0
TRUE
51149
0
LEFT NOT FITTED RIGHT NOT FITTED 0
NONE
NONE
15600
12
4.427000
51148
TRUE
1 0 8 72 0 0 0 0

15798

#HDR
-1
-1
#GR
µM
%T
2.38419e-05
0.0
2.000000
0.002000
12515
8
44.2437
-6.525897
#DATA
2.000000	 -0.225424
2.084000	 -0.138223
2.168000	 0.677026
2.252000	 0.013100
2.336000	 -0.004030
2.420000	 0.006145
2.504000	 0.243403
2.588000	 -0.007380
2.672000	 0.086684
2.756000	 0.079109
2.840000	 0.182983
2.924000	 0.081741
3.008000	 -0.074633
3.092000	 -0.019967
3.176000	 -0.031662
3.260000	 0.100253
3.344000	 0.076633
3.428000	 0.023078
3.512000	 0.059410
3.596000	 0.071349
3.680000	 0.054745
3.764000	 0.028710
3.848000	 0.010245
3.932000	 0.037264
4.016000	 0.005469
4.100000	 0.047756
4.184000	 -0.052601
4.268000	 0.004785
4.352000	 0.265120
4.436000	 1.007422
4.520000	 2.492681
4.604000	 5.274516
4.688000	 9.083406
4.772000	 13.8137
4.856000	 18.2916
4.940000	 22.3116
5.024000	 25.433
5.108000	 27.9146
5.192000	 29.8017
5.276000	 31.0806
5.359999	 32.0595
5.444000	 32.5742
5.528000	 33.1965
5.612000	 33.4854
5.696000	 33.6906
5.780000	 33.984
5.864000	 34.1835
5.948000	 34.2678
6.032000	 34.3114
6.116000	 34.0745
6.200000	 34.1703
6.284000	 34.0494
6.368000	 33.9256
6.452000	 34.1098
6.536000	 34.0332
6.620000	 34.0393
6.704000	 33.8184
6.788000	 33.8162
6.872000	 33.6573
6.956000	 33.7185
7.040000	 33.5997
7.124000	 33.5181
7.208000	 33.3916
7.292000	 33.3279
7.376000	 33.2706
7.460000	 33.4486
7.544000	 33.3662
7.628000	 33.1629
7.712000	 33.1134
7.796000	 33.106
7.880000	 32.8045
7.964000	 32.8037
8.048000	 32.75
8.132000	 32.8283
8.216000	 32.7081
8.300000	 32.7223
8.384000	 32.6568
8.468000	 32.5412
8.552000	 32.5311
8.635999	 32.409
8.719999	 32.3814
8.804000	 32.3269
8.888000	 32.1863
8.972000	 32.1833
9.056000	 32.1889
9.140000	 31.775
9.224000	 32.0549
9.308000	 31.939
9.391999	 31.8955
9.475999	 31.7366
9.560000	 31.7134
9.644000	 31.6159
9.728000	 31.5408
9.812000	 31.5467
9.896000	 31.2877
9.980000	 31.2989
10.064	31.4042
10.148	31.3689
10.232	31.2607
10.316	31.0939
10.4	30.9635
10.484	30.9166
10.568	30.9264
10.652	30.8293
10.736	30.7165
10.82	30.6011
10.904	30.6613
10.988	30.7207
11.072	30.5475
11.156	30.1931
11.24	30.3221
11.324	30.4694
11.408	30.3582
11.492	30.186
11.576	30.1028
11.66	29.9953
11.744	29.7599
11.828	29.7832
11.912	29.864
11.996	29.7355
12.08	29.6167
12.164	29.4413
12.248	29.3261
12.332	29.1287
12.416	29.0329
12.5	29.0224
12.584	29.2929
12.668	29.3932
12.752	29.2285
12.836	29.0074
12.92	28.9749
13.004	28.9584
13.088	28.7283
13.172	28.6451
13.256	28.7415
13.34	28.5358
13.424	28.2677
13.508	28.2901
13.592	28.27
13.676	28.1435
13.76	28.2148
13.844	28.3079
13.928	28.3252
14.012	28.1742
14.096	27.876
14.18	27.572
14.264	27.4137
14.348	27.3917
14.432	27.284
14.516	27.1354
14.6	27.1213
14.684	27.2002
14.768	27.2504
14.852	27.2244
14.936	27.0916
15.02	26.8884
15.104	26.7011
15.188	26.5365
15.272	26.369
15.356	26.3169
15.44	26.4543
15.524	26.594
15.608	26.5996
15.692	26.5735
15.776	26.5525
15.86	26.4312
15.944	26.2015
16.028	26.0384
16.112	26.0632
16.196	26.1581
16.28	26.168
16.364	26.1129
16.448	26.0458
16.532	25.9359
16.616	25.7619
16.7	25.5417
16.784	25.2471
16.868	24.8458
16.952	24.4833
17.036	24.4073
17.12	24.6095
17.204	24.7732
17.288	24.6971
17.372	24.5553
17.456	24.6165
17.54	24.8798
17.624	25.1102
17.708	25.1317
17.792	24.9581
17.876	24.7089
17.96	24.4614
18.044	24.2053
18.128	23.9155
18.212	23.6704
18.296	23.606
18.38	23.7356
18.464	23.9025
18.548	23.9382
18.632	23.7976
18.716	23.5609
18.8	23.3644
18.884	23.3232
18.968	23.4502
19.052	23.614
19.136	23.6458
19.22	23.5005
19.304	23.2952
19.388	23.1811
19.472	23.2034
19.556	23.2796
19.64	23.2844
19.724	23.1621
19.808	22.9626
19.892	22.8016
19.976	22.772
20.06	22.8714
20.144	23.0107
20.228	23.0872
20.312	23.0691
20.396	23.0096
20.48	22.9844
20.564	23.018
20.648	23.0596
20.732	23.0288
20.816	22.8818
20.9	22.653
20.984	22.4497
21.068	22.3863
21.152	22.4989
21.236	22.7102
21.32	22.8845
21.404	22.9187
21.488	22.8113
21.572	22.6437
21.656	22.5187
21.74	22.4928
21.824	22.5482
21.908	22.6135
21.992	22.6222
22.076	22.5551
22.16	22.4419
22.244	22.3369
22.328	22.2695
22.412	22.2151
22.496	22.1143
22.58	21.9132
22.664	21.6021
22.748	21.2312
22.832	20.8646
22.916	20.5486
23	20.2986
23.084	20.097
23.168	19.8964
23.252	19.6412
23.336	19.2831
23.42	18.8193
23.504	18.286
23.588	17.7701
23.672	17.3914
23.756	17.2737
23.84	17.4951
23.924	18.1066
24.008	19.093
24.092	20.336
24.176	21.6512
24.26	22.787
24.344	23.4481
24.428	23.4383
24.512	22.7731
24.596	21.6599
24.68	20.4165
24.764	19.3462
24.848	18.5655
24.932	17.9934
25.016	17.4245
25.1	16.6358
25.184	15.5867
25.268	14.5299
25.352	13.9354
25.436	14.3809
25.52	16.301
25.604	19.8217
25.688	24.7451
25.772	30.5304
25.856	36.3816
25.94	41.2478
26.024	43.9772
26.108	43.6828
26.192	40.1745
26.276	34.0052
26.36	26.4301
26.444	18.8542
26.528	12.3403
26.612	7.264687
26.696	3.432612
26.78	0.317094
26.864	-2.430925
26.948	-4.806791
27.028	-6.525897

File: LPE453_t05_cm-1.asc
PE IR       SPECTRUM    SPECTRUM    ASCII       PEDS        1.60
  -1
LP67DB~1.ASC
17/05/16
14:46:28.00
17/05/16
14:46:28.00
tln
$LPE453_t0005$<tbV0>[2.6,-13.0,8.0,0.0,27,1,0]
370
64

2002,4.07
MIRTGS : RIGHTBACK : INTERNAL 2
MIR : ON : INTERNAL 2
OPTKBR

0.200000
8
8.000000
FILLER
RATIO
SPECTRUM
UNLOCKED 256

DOUBLE
64
COMBINED
1
0
0

1.000000
RATIO

1
0
TRUE
51149
0
LEFT NOT FITTED RIGHT NOT FITTED 0
NONE
NONE
15600
12
4.427000
51148
TRUE
1 0 8 72 0 0 0 0

15798

#HDR
-1
-1
#GR
CM-1
%T
2.38419e-05
0.0
5000
-1.000000
4631
8
44.1842
-6.525897
#DATA
5000	-0.225424
4984	0.333213
4968	0.126481
4952	0.200843
4936	-0.064396
4920	-0.192761
4904	-0.042200
4888	0.322580
4872	0.229454
4856	0.059318
4840	-0.026178
4824	0.323867
4808	0.201272
4792	0.154590
4776	0.387763
4760	0.387620
4744	-0.205969
4728	0.166797
4712	-0.321769
4696	0.142383
4680	-0.174641
4664	0.157356
4648	0.854682
4632	-0.483465
4616	0.389885
4600	1.575350
4584	0.470352
4568	-0.991153
4552	1.244330
4536	-0.912404
4520	0.594878
4504	15.1046
4488	-3.878521
4472	0.755977
4456	-0.650501
4440	0.016927
4424	-0.030899
4408	0.430393
4392	0.385260
4376	0.441265
4360	0.236463
4344	-0.016856
4328	0.067305
4312	0.274419
4296	0.292778
4280	-0.011944
4264	-0.157880
4248	0.203299
4232	0.086903
4216	0.109958
4200	0.291371
4184	0.195980
4168	-0.008034
4152	0.023388
4136	0.141811
4120	0.045013
4104	0.241732
4088	-0.166106
4072	-0.092172
4056	0.097513
4040	-0.034642
4024	0.103402
4008	0.051045
3992	0.246357
3976	0.219464
3960	0.127601
3944	0.167036
3928	0.237321
3912	-0.028705
3896	0.040507
3880	0.132036
3864	-0.007534
3848	-0.023341
3832	0.227355
3816	0.136470
3800	-0.013089
3784	-0.083255
3768	0.123596
3752	0.001597
3736	0.072598
3720	-0.002694
3704	0.184273
3688	0.098180
3672	-0.072336
3656	-0.031805
3640	0.095438
3624	0.035691
3608	-0.022006
3592	-0.058937
3576	0.010156
3560	0.072646
3544	-0.122809
3528	0.147700
3512	0.186967
3496	0.083827
3480	0.195264
3464	0.024724
3448	0.042557
3432	0.044393
3416	0.102996
3400	0.080013
3384	0.083637
3368	-0.071644
3352	0.122261
3336	0.065302
3320	0.004935
3304	0.164556
3288	0.118470
3272	0.032091
3256	0.163984
3240	0.058293
3224	0.092267
3208	0.071692
3192	0.014472
3176	-0.013232
3160	-0.081419
3144	-0.010132
3128	0.095462
3112	0.159835
3096	0.130033
3080	-0.053572
3064	0.052499
3048	-0.007462
3032	-0.027275
3016	0.180411
3000	0.121998
2984	0.051951
2968	0.024175
2952	0.027585
2936	0.095129
2920	-0.011301
2904	0.186753
2888	0.070023
2872	0.001144
2856	0.016450
2840	-0.092887
2824	0.233101
2808	0.073862
2792	-0.000333
2776	0.042033
2760	0.013470
2744	-0.023698
2728	0.082015
2712	0.014805
2696	0.042223
2680	0.029659
2664	0.013208
2648	0.046038
2632	-0.007462
2616	-0.044155
2600	0.009703
2584	-0.066804
2568	0.006651
2552	0.007915
2536	-0.049066
2520	-0.010371
2504	0.006079
2488	-0.025224
2472	0.011658
2456	-0.026202
2440	0.037002
2424	-0.021553
2408	0.100994
2392	-0.033378
2376	0.049924
2360	0.002670
2344	-0.000095
2328	0.126671
2312	0.107979
2296	0.256085
2280	0.545144
2264	0.740480
2248	1.193141
2232	1.611971
2216	2.281618
2200	3.207087
2184	4.288077
2168	5.646085
2152	7.181644
2136	8.723402
2120	10.8578
2104	12.8207
2088	14.6476
2072	16.818
2056	18.8044
2040	20.5437
2024	22.343
2008	23.8092
1992	25.2924
1976	26.6633
1960	27.7367
1944	28.7663
1928	29.7153
1912	30.442
1896	31.0467
1880	31.6535
1864	32.1126
1848	32.5329
1832	32.7805
1816	33.07
1800	33.3101
1784	33.458
1768	33.7211
1752	33.8125
1736	33.9311
1720	33.9355
1704	34.21
1688	34.1542
1672	34.1339
1656	34.36
1640	34.065
1624	34.1313
1608	34.0648
1592	34.0456
1576	33.9888
1560	34.2554
1544	34.0782
1528	34.0344
1512	34.0103
1496	33.8615
1480	33.8786
1464	33.8117
1448	33.4767
1432	33.6461
1416	33.4662
1400	33.5048
1384	33.3106
1368	33.3764
1352	33.2651
1336	33.3664
1320	33.2953
1304	33.1024
1288	33.134
1272	32.8161
1256	32.7967
1240	32.7928
1224	32.639
1208	32.7345
1192	32.6535
1176	32.5325
1160	32.4677
1144	32.4094
1128	32.1499
1112	32.1417
1096	31.7473
1080	32.0197
1064	31.881
1048	31.736
1032	31.518
1016	31.4772
1000	31.3226
984	 31.3474
968	 31.0857
952	 30.9365
936	 30.7993
920	 30.6111
904	 30.5738
888	 30.4056
872	 30.2387
856	 29.9331
840	 29.8719
824	 29.4837
808	 29.071
792	 29.3887
776	 28.9629
760	 28.6346
744	 28.2516
728	 28.1806
712	 28.0663
696	 27.3787
680	 27.2188
664	 26.7933
648	 26.4373
632	 26.5029
616	 26.1757
600	 25.6345
584	 24.6188
568	 25.0745
552	 23.9575
536	 23.7321
520	 23.4742
504	 22.8872
488	 22.9859
472	 22.5813
456	 22.623
440	 21.3246
424	 17.7871
408	 22.7969
392	 15.9939
376	 8.138275
370	 -6.525897

File: LPE453_t06.asc
PE IR       SPECTRUM    SPECTRUM    ASCII       PEDS        1.60
  -1
LPD391~1.ASC
17/05/16
14:51:05.00
17/05/16
14:51:31.00
tln
$LPE453_t0006$<tbV0>[0.0,-13.0,8.0,0.0,27,1,0]
27.028
64

2002,4.07
MIRTGS : RIGHTBACK : INTERNAL 2
MIR : ON : INTERNAL 2
OPTKBR

0.200000
8
8.000000
FILLER
RATIO
SPECTRUM
UNLOCKED 256

DOUBLE
64
COMBINED
1
0
0

0.002000
RATIO

1
0
TRUE
51149
0
LEFT NOT FITTED RIGHT NOT FITTED 0
NONE
NONE
15600
12
4.427000
51148
TRUE
1 0 8 72 0 0 0 0

15798

#HDR
-1
-1
#GR
µM
%T
2.38419e-05
0.0
2.000000
0.002000
12515
8
46.9639
-2.511254
#DATA
2.000000	 0.217509
2.084000	 -0.013833
2.168000	 1.646225
2.252000	 -0.526661
2.336000	 -0.104093
2.420000	 0.028320
2.504000	 0.023960
2.588000	 -0.180161
2.672000	 0.065021
2.756000	 -0.015230
2.840000	 0.180350
2.924000	 0.228749
3.008000	 -0.121069
3.092000	 0.143663
3.176000	 0.142485
3.260000	 0.029218
3.344000	 -0.011318
3.428000	 0.051927
3.512000	 0.151399
3.596000	 0.002447
3.680000	 0.131675
3.764000	 -0.067073
3.848000	 -0.028899
3.932000	 0.031980
4.016000	 0.057345
4.100000	 -0.001748
4.184000	 -0.056433
4.268000	 0.050914
4.352000	 0.421496
4.436000	 1.247586
4.520000	 3.056782
4.604000	 6.137467
4.688000	 10.2356
4.772000	 15.0195
4.856000	 19.574
4.940000	 23.4614
5.024000	 26.6026
5.108000	 28.9303
5.192000	 30.8278
5.276000	 32.0742
5.359999	 33.1178
5.444000	 33.7671
5.528000	 34.1608
5.612000	 34.6397
5.696000	 34.7455
5.780000	 35.1128
5.864000	 35.1056
5.948000	 35.3237
6.032000	 35.36
6.116000	 35.2476
6.200000	 35.3522
6.284000	 35.1192
6.368000	 35.2465
6.452000	 35.2412
6.536000	 35.0808
6.620000	 35.1602
6.704000	 34.9644
6.788000	 35.0211
6.872000	 35.1103
6.956000	 35.023
7.040000	 34.9946
7.124000	 34.7536
7.208000	 34.7892
7.292000	 34.5086
7.376000	 34.522
7.460000	 34.6409
7.544000	 34.5111
7.628000	 34.2072
7.712000	 34.2518
7.796000	 34.3673
7.880000	 34.1886
7.964000	 34.0455
8.048000	 34.0241
8.132000	 34.1125
8.216000	 34.1115
8.300000	 34.0427
8.384000	 33.8529
8.468000	 33.8071
8.552000	 33.9557
8.635999	 33.8436
8.719999	 33.723
8.804000	 33.5971
8.888000	 33.6338
8.972000	 33.6227
9.056000	 33.3845
9.140000	 33.2843
9.224000	 33.2796
9.308000	 33.1705
9.391999	 33.4779
9.475999	 33.2304
9.560000	 33.2847
9.644000	 33.2115
9.728000	 33.0576
9.812000	 32.8987
9.896000	 32.7648
9.980000	 32.9297
10.064	32.9711
10.148	32.7944
10.232	32.7875
10.316	32.6146
10.4	32.4413
10.484	32.4342
10.568	32.569
10.652	32.39
10.736	32.4108
10.82	32.2432
10.904	32.1828
10.988	31.9671
11.072	31.9722
11.156	31.784
11.24	31.6393
11.324	31.7347
11.408	31.8116
11.492	31.7426
11.576	31.5372
11.66	31.3918
11.744	31.3582
11.828	31.2608
11.912	31.2205
11.996	31.2645
12.08	31.3591
12.164	31.4111
12.248	31.3392
12.332	31.0732
12.416	30.7332
12.5	30.5768
12.584	30.56
12.668	30.5975
12.752	30.687
12.836	30.584
12.92	30.5752
13.004	30.729
13.088	30.6381
13.172	30.4388
13.256	30.2209
13.34	30.2872
13.424	30.3356
13.508	30.0807
13.592	29.7089
13.676	29.5433
13.76	29.5663
13.844	29.5739
13.928	29.6102
14.012	29.6721
14.096	29.8044
14.18	29.8935
14.264	29.7811
14.348	29.4834
14.432	29.1763
14.516	29.0167
14.6	28.9947
14.684	28.9699
14.768	28.8729
14.852	28.7461
14.936	28.6035
15.02	28.5547
15.104	28.6456
15.188	28.8001
15.272	28.9486
15.356	28.9932
15.44	28.878
15.524	28.6404
15.608	28.4272
15.692	28.3469
15.776	28.3078
15.86	28.2024
15.944	28.0239
16.028	27.8397
16.112	27.7266
16.196	27.6423
16.28	27.5152
16.364	27.4047
16.448	27.3661
16.532	27.3514
16.616	27.3474
16.7	27.3982
16.784	27.4658
16.868	27.4443
16.952	27.316
17.036	27.1554
17.12	27.0183
17.204	26.939
17.288	26.956
17.372	27.0165
17.456	26.9701
17.54	26.7581
17.624	26.5015
17.708	26.3347
17.792	26.2689
17.876	26.2519
17.96	26.2386
18.044	26.1825
18.128	26.0595
18.212	25.9051
18.296	25.7853
18.38	25.741
18.464	25.7685
18.548	25.8238
18.632	25.8366
18.716	25.7724
18.8	25.6741
18.884	25.598
18.968	25.5463
19.052	25.4907
19.136	25.4126
19.22	25.2977
19.304	25.1341
19.388	24.9422
19.472	24.7839
19.556	24.7125
19.64	24.71
19.724	24.7073
19.808	24.6544
19.892	24.5559
19.976	24.4479
20.06	24.3609
20.144	24.2974
20.228	24.2514
20.312	24.248
20.396	24.3481
20.48	24.5933
20.564	24.9381
20.648	25.2492
20.732	25.3884
20.816	25.3156
20.9	25.104
20.984	24.8591
21.068	24.6398
21.152	24.454
21.236	24.3047
21.32	24.2292
21.404	24.2616
21.488	24.3834
21.572	24.5136
21.656	24.5603
21.74	24.4724
21.824	24.2487
21.908	23.9146
21.992	23.5134
22.076	23.1228
22.16	22.8511
22.244	22.7751
22.328	22.8784
22.412	23.0162
22.496	22.9723
22.58	22.6038
22.664	21.9247
22.748	21.1189
22.832	20.4161
22.916	19.9822
23	19.8343
23.084	19.8856
23.168	19.989
23.252	20.0294
23.336	19.9788
23.42	19.946
23.504	20.0977
23.588	20.5749
23.672	21.4126
23.756	22.4906
23.84	23.5749
23.924	24.4213
24.008	24.8621
24.092	24.8492
24.176	24.4878
24.26	23.9402
24.344	23.4093
24.428	23.1072
24.512	23.2691
24.596	24.0539
24.68	25.4206
24.764	27.0497
24.848	28.4055
24.932	28.869
25.016	28.0398
25.1	25.8897
25.184	22.8686
25.268	19.7694
25.352	17.4209
25.436	16.4975
25.52	17.2735
25.604	19.6329
25.688	23.2737
25.772	27.832
25.856	32.9332
25.94	38.0827
26.024	42.6039
26.108	45.7258
26.192	46.9553
26.276	46.1982
26.36	43.8258
26.444	40.5097
26.528	36.9428
26.612	33.4844
26.696	30.2209
26.78	27.1013
26.864	24.1016
26.948	21.3021
27.028	18.9743