Folder: Masteroppgave/Bakgrunnsmateriale/MATLAB/FTIR/ftir_data/LPE453/Mapping_121 (part 24)

File: LPE453_t51_cm-1.asc
PE IR       SPECTRUM    SPECTRUM    ASCII       PEDS        1.60
  -1
LPD9D5~1.ASC
17/05/16
18:33:56.00
17/05/16
18:33:56.00
tln
$LPE453_t0051$<tbV0>[-2.6,-2.6,8.0,0.0,27,1,0]
370
64

2002,4.07
MIRTGS : RIGHTBACK : INTERNAL 2
MIR : ON : INTERNAL 2
OPTKBR

0.200000
8
8.000000
FILLER
RATIO
SPECTRUM
UNLOCKED 256

DOUBLE
64
COMBINED
1
0
0

1.000000
RATIO

1
0
TRUE
51149
0
LEFT NOT FITTED RIGHT NOT FITTED 0
NONE
NONE
15600
12
4.427000
51148
TRUE
1 0 8 72 0 0 0 0

15798

#HDR
-1
-1
#GR
CM-1
%T
2.38419e-05
0.0
5000
-1.000000
4631
8
57.8731
-11.6214
#DATA
5000	-0.253653
4984	0.034189
4968	-0.182485
4952	0.462770
4936	-0.202989
4920	0.328850
4904	0.028014
4888	0.285100
4872	0.155186
4856	0.191617
4840	0.617575
4824	-0.109577
4808	0.032186
4792	0.462245
4776	0.519371
4760	-0.018167
4744	0.008654
4728	0.567269
4712	0.363445
4696	-0.041842
4680	0.297164
4664	0.598621
4648	0.381422
4632	0.348591
4616	1.061296
4600	0.429010
4584	0.381445
4568	0.451135
4552	2.193212
4536	-0.923943
4520	1.738190
4504	10.4072
4488	-1.371121
4472	-1.117420
4456	-0.464653
4440	-0.570750
4424	-0.484180
4408	0.444531
4392	0.196194
4376	-0.034403
4360	-0.055527
4344	0.020337
4328	0.143837
4312	0.012564
4296	-0.013256
4280	0.260353
4264	-0.127053
4248	0.186157
4232	-0.094389
4216	-0.024080
4200	0.152730
4184	0.042986
4168	0.365614
4152	0.138044
4136	0.309014
4120	-0.003457
4104	0.209641
4088	0.119280
4072	0.094771
4056	-0.014758
4040	0.161337
4024	0.106978
4008	-0.026464
3992	0.205087
3976	0.068354
3960	0.221991
3944	0.013709
3928	0.027060
3912	0.226449
3896	-0.118780
3880	0.066971
3864	0.068712
3848	0.148534
3832	0.022101
3816	-0.003290
3800	0.155568
3784	0.051665
3768	0.041031
3752	0.169515
3736	-0.034546
3720	-0.020956
3704	-0.018167
3688	0.168251
3672	0.225400
3656	-0.014162
3640	0.095868
3624	0.052094
3608	0.015115
3592	-0.066995
3576	-0.003266
3560	0.119614
3544	0.092411
3528	0.104141
3512	-0.100755
3496	0.129604
3480	0.142335
3464	0.310516
3448	0.099706
3432	-0.099182
3416	0.143122
3400	-0.122451
3384	0.080609
3368	-0.125360
3352	-0.027370
3336	-0.019431
3320	-0.054764
3304	0.090146
3288	0.160360
3272	-0.024223
3256	0.039839
3240	0.135612
3224	0.141859
3208	-0.103807
3192	0.090432
3176	0.066137
3160	0.039887
3144	0.064039
3128	0.197315
3112	-0.173902
3096	-0.090551
3080	0.032806
3064	0.098943
3048	0.014114
3032	0.025558
3016	0.042605
3000	-0.001311
2984	-0.000333
2968	0.027036
2952	0.043559
2936	-0.043559
2920	0.166320
2904	-0.053691
2888	0.114107
2872	0.059175
2856	0.056815
2840	0.001955
2824	0.117516
2808	0.089359
2792	-0.029921
2776	0.004673
2760	0.038814
2744	-0.043725
2728	-0.007653
2712	0.056099
2696	0.136351
2680	0.029969
2664	0.112175
2648	0.058722
2632	-0.102472
2616	0.112462
2600	-0.006198
2584	0.057744
2568	0.044298
2552	0.112748
2536	-0.039720
2520	0.047421
2504	-0.062561
2488	0.106859
2472	0.103282
2456	0.053930
2440	-0.018548
2424	0.130987
2408	0.047516
2392	0.060939
2376	-0.002694
2360	-0.061941
2344	0.125288
2328	0.168991
2312	0.250005
2296	0.216078
2280	0.296759
2264	0.436592
2248	0.706577
2232	1.149606
2216	1.714873
2200	2.548718
2184	3.434133
2168	4.547953
2152	5.709147
2136	7.582497
2120	9.218549
2104	10.8838
2088	12.6711
2072	14.6425
2056	16.17
2040	18.1311
2024	19.7902
2008	21.2129
1992	22.6447
1976	23.6923
1960	24.8389
1944	25.7775
1928	26.5481
1912	27.3988
1896	28.0921
1880	28.4594
1864	29.0929
1848	29.3965
1832	29.6745
1816	30.2024
1800	30.3125
1784	30.529
1768	30.8504
1752	30.8127
1736	30.8007
1720	31.0748
1704	31.05
1688	31.1937
1672	31.262
1656	31.1309
1640	31.2075
1624	31.4075
1608	31.1774
1592	31.3031
1576	31.3249
1560	31.0317
1544	31.2395
1528	31.2562
1512	30.9854
1496	31.0946
1480	31.0504
1464	30.9493
1448	30.8535
1432	31.0636
1416	30.8049
1400	30.9172
1384	30.8615
1368	30.6375
1352	30.5812
1336	30.603
1320	30.4244
1304	30.4514
1288	30.4939
1272	30.2495
1256	30.2307
1240	30.2152
1224	29.9765
1208	30.0226
1192	29.9675
1176	29.7272
1160	29.7072
1144	29.8118
1128	29.4615
1112	29.4267
1096	29.5422
1080	29.086
1064	29.0719
1048	29.0157
1032	28.7929
1016	28.6939
1000	28.6872
984	 28.2225
968	 28.1804
952	 28.2214
936	 27.7348
920	 27.5257
904	 27.6273
888	 27.1236
872	 27.0367
856	 27.0647
840	 26.2333
824	 26.0129
808	 26.3712
792	 25.5693
776	 25.0838
760	 25.3957
744	 24.8585
728	 24.3029
712	 24.4011
696	 23.5631
680	 23.222
664	 23.3547
648	 22.5781
632	 21.8658
616	 21.7916
600	 21.8655
584	 20.8351
568	 20.3115
552	 20.3796
536	 19.7089
520	 18.9052
504	 18.8613
488	 18.3596
472	 17.7518
456	 18.0658
440	 16.0415
424	 14.5879
408	 13.6336
392	 6.986284
376	 50.3073
370	 45.7673

File: LPE453_t52.asc
PE IR       SPECTRUM    SPECTRUM    ASCII       PEDS        1.60
  -1
LPC7A1~1.ASC
17/05/16
18:38:33.00
17/05/16
18:38:59.00
tln
$LPE453_t0052$<tbV0>[-5.2,-2.6,8.0,0.0,27,1,0]
27.028
64

2002,4.07
MIRTGS : RIGHTBACK : INTERNAL 2
MIR : ON : INTERNAL 2
OPTKBR

0.200000
8
8.000000
FILLER
RATIO
SPECTRUM
UNLOCKED 256

DOUBLE
64
COMBINED
1
0
0

0.002000
RATIO

1
0
TRUE
51149
0
LEFT NOT FITTED RIGHT NOT FITTED 0
NONE
NONE
15600
12
4.427000
51148
TRUE
1 0 8 72 0 0 0 0

15798

#HDR
-1
-1
#GR
µM
%T
2.38419e-05
0.0
2.000000
0.002000
12515
8
36.2874
-2.423099
#DATA
2.000000	 0.098371
2.084000	 0.025087
2.168000	 1.291183
2.252000	 -0.528487
2.336000	 0.087270
2.420000	 0.186875
2.504000	 0.130823
2.588000	 -0.054604
2.672000	 0.085487
2.756000	 0.170112
2.840000	 0.074531
2.924000	 0.061419
3.008000	 0.114615
3.092000	 0.205073
3.176000	 0.040758
3.260000	 0.009318
3.344000	 0.110662
3.428000	 -0.033400
3.512000	 -0.013447
3.596000	 0.003765
3.680000	 0.133112
3.764000	 0.122678
3.848000	 -0.015147
3.932000	 0.005767
4.016000	 -0.079933
4.100000	 0.154849
4.184000	 0.033103
4.268000	 0.048758
4.352000	 0.237226
4.436000	 0.762840
4.520000	 2.268502
4.604000	 4.867836
4.688000	 8.721812
4.772000	 13.0276
4.856000	 17.3767
4.940000	 21.25
5.024000	 24.305
5.108000	 26.6203
5.192000	 28.4442
5.276000	 29.5596
5.359999	 30.6747
5.444000	 31.2036
5.528000	 31.7348
5.612000	 32.2197
5.696000	 32.2542
5.780000	 32.6243
5.864000	 32.7101
5.948000	 32.8665
6.032000	 32.6273
6.116000	 32.9042
6.200000	 32.6994
6.284000	 32.9171
6.368000	 32.7233
6.452000	 32.7508
6.536000	 32.8229
6.620000	 32.528
6.704000	 32.6347
6.788000	 32.5463
6.872000	 32.3592
6.956000	 32.7632
7.040000	 32.2932
7.124000	 32.3873
7.208000	 32.525
7.292000	 32.1449
7.376000	 32.1588
7.460000	 32.3926
7.544000	 32.1419
7.628000	 31.9693
7.712000	 32.2224
7.796000	 32.2112
7.880000	 31.8464
7.964000	 31.876
8.048000	 32.094
8.132000	 31.8705
8.216000	 31.6203
8.300000	 31.6379
8.384000	 31.7663
8.468000	 31.8056
8.552000	 31.2928
8.635999	 31.2386
8.719999	 31.5571
8.804000	 31.7676
8.888000	 31.352
8.972000	 30.8534
9.056000	 30.7703
9.140000	 31.4298
9.224000	 31.3084
9.308000	 30.7949
9.391999	 30.6696
9.475999	 30.8385
9.560000	 31.0341
9.644000	 31.0543
9.728000	 30.5989
9.812000	 30.2742
9.896000	 30.2239
9.980000	 30.2445
10.064	30.7234
10.148	30.6046
10.232	30.2306
10.316	29.8035
10.4	29.5352
10.484	29.7578
10.568	30.1023
10.652	30.0344
10.736	29.8776
10.82	29.7191
10.904	29.3991
10.988	29.01
11.072	29.0849
11.156	29.3476
11.24	29.4016
11.324	29.404
11.408	28.9672
11.492	28.5815
11.576	28.4522
11.66	28.3464
11.744	28.4391
11.828	28.7147
11.912	28.7947
11.996	28.571
12.08	28.3012
12.164	27.9939
12.248	27.7054
12.332	27.5421
12.416	27.6318
12.5	27.748
12.584	27.8352
12.668	27.9374
12.752	27.7572
12.836	27.5313
12.92	27.1769
13.004	26.9347
13.088	26.681
13.172	26.4992
13.256	26.6077
13.34	26.7079
13.424	26.8626
13.508	26.9689
13.592	26.87
13.676	26.7508
13.76	26.6869
13.844	26.4686
13.928	26.1845
14.012	25.9951
14.096	25.87
14.18	25.855
14.264	25.8645
14.348	25.8859
14.432	25.9537
14.516	25.968
14.6	25.987
14.684	25.976
14.768	25.7303
14.852	25.3497
14.936	24.9339
15.02	24.5251
15.104	24.3203
15.188	24.2589
15.272	24.2303
15.356	24.3724
15.44	24.7025
15.524	25.0176
15.608	25.0811
15.692	24.8857
15.776	24.6692
15.86	24.5435
15.944	24.4375
16.028	24.2801
16.112	24.0319
16.196	23.7159
16.28	23.4711
16.364	23.4326
16.448	23.522
16.532	23.5603
16.616	23.5544
16.7	23.6112
16.784	23.7017
16.868	23.7569
16.952	23.7701
17.036	23.719
17.12	23.5654
17.204	23.3211
17.288	23.0456
17.372	22.8081
17.456	22.6607
17.54	22.591
17.624	22.5164
17.708	22.3705
17.792	22.1758
17.876	21.9971
17.96	21.848
18.044	21.7206
18.128	21.6757
18.212	21.7799
18.296	21.9449
18.38	21.9627
18.464	21.7591
18.548	21.5142
18.632	21.45
18.716	21.5802
18.8	21.7354
18.884	21.7701
18.968	21.6579
19.052	21.4321
19.136	21.127
19.22	20.8039
19.304	20.5625
19.388	20.4851
19.472	20.5742
19.556	20.7513
19.64	20.9062
19.724	20.9465
19.808	20.8344
19.892	20.612
19.976	20.4012
20.06	20.3415
20.144	20.4888
20.228	20.7692
20.312	21.0302
20.396	21.1557
20.48	21.1376
20.564	21.0451
20.648	20.9454
20.732	20.8592
20.816	20.7813
20.9	20.7144
20.984	20.6623
21.068	20.5922
21.152	20.4344
21.236	20.1393
21.32	19.7386
21.404	19.3472
21.488	19.0763
21.572	18.9395
21.656	18.84
21.74	18.6486
21.824	18.3185
21.908	17.9377
21.992	17.6505
22.076	17.5409
22.16	17.5753
22.244	17.6408
22.328	17.6437
22.412	17.5689
22.496	17.4764
22.58	17.44
22.664	17.5018
22.748	17.6504
22.832	17.8378
22.916	18.0135
23	18.1453
23.084	18.2312
23.168	18.296
23.252	18.3786
23.336	18.5175
23.42	18.6981
23.504	18.8465
23.588	18.8632
23.672	18.6716
23.756	18.2472
23.84	17.6458
23.924	17.0056
24.008	16.4854
24.092	16.2057
24.176	16.2258
24.26	16.4948
24.344	16.8775
24.428	17.2308
24.512	17.4317
24.596	17.4736
24.68	17.5073
24.764	17.7859
24.848	18.5049
24.932	19.6435
25.016	20.8866
25.1	21.7279
25.184	21.6152
25.268	20.2745
25.352	17.8757
25.436	15.0718
25.52	12.7532
25.604	11.6669
25.688	12.2565
25.772	14.4628
25.856	17.8017
25.94	21.6533
26.024	25.4487
26.108	28.8198
26.192	31.6392
26.276	33.8801
26.36	35.4843
26.444	36.2579
26.528	35.9478
26.612	34.3407
26.696	31.5614
26.78	28.2329
26.864	25.3318
26.948	23.8277
27.028	24.2181

File: LPE453_t52_cm-1.asc
PE IR       SPECTRUM    SPECTRUM    ASCII       PEDS        1.60
  -1
LPD950~1.ASC
17/05/16
18:38:33.00
17/05/16
18:38:33.00
tln
$LPE453_t0052$<tbV0>[-5.2,-2.6,8.0,0.0,27,1,0]
370
64

2002,4.07
MIRTGS : RIGHTBACK : INTERNAL 2
MIR : ON : INTERNAL 2
OPTKBR

0.200000
8
8.000000
FILLER
RATIO
SPECTRUM
UNLOCKED 256

DOUBLE
64
COMBINED
1
0
0

1.000000
RATIO

1
0
TRUE
51149
0
LEFT NOT FITTED RIGHT NOT FITTED 0
NONE
NONE
15600
12
4.427000
51148
TRUE
1 0 8 72 0 0 0 0

15798

#HDR
-1
-1
#GR
CM-1
%T
2.38419e-05
0.0
5000
-1.000000
4631
8
36.2821
-2.422165
#DATA
5000	0.098371
4984	0.136971
4968	-0.078773
4952	0.588274
4936	-0.091052
4920	0.233602
4904	0.248122
4888	0.441622
4872	0.212192
4856	0.531744
4840	0.227475
4824	0.329756
4808	0.213694
4792	-0.250458
4776	-0.151038
4760	0.250577
4744	-0.312924
4728	0.069880
4712	0.040960
4696	0.383591
4680	0.689840
4664	0.552678
4648	0.228881
4632	1.551103
4616	0.088500
4600	-0.756001
4584	0.569343
4568	-0.148344
4552	-0.654864
4536	0.614166
4520	-1.150512
4504	9.851813
4488	2.006673
4472	-1.937508
4456	-0.800061
4440	-0.491142
4424	-0.466084
4408	-0.145626
4392	0.439143
4376	-0.023651
4360	0.061154
4344	0.388002
4328	0.283074
4312	0.173616
4296	-0.353956
4280	0.088238
4264	0.116777
4248	-0.034499
4232	0.163578
4216	0.355768
4200	0.318551
4184	-0.376868
4168	0.007295
4152	0.072598
4136	0.240921
4120	0.173020
4104	-0.066995
4088	-0.146365
4072	-0.097322
4056	0.319314
4040	0.014305
4024	-0.109291
4008	-0.009346
3992	0.116658
3976	0.133037
3960	0.063753
3944	0.164246
3928	0.172805
3912	0.216460
3896	0.006055
3880	-0.053524
3864	-0.054478
3848	0.162935
3832	0.166749
3816	-0.134491
3800	0.000214
3784	0.098919
3768	0.084948
3752	0.032567
3736	-0.028085
3720	-0.026130
3704	-0.066828
3688	0.069046
3672	0.146579
3656	0.071263
3640	0.026392
3624	0.076937
3608	0.037670
3592	0.198936
3576	-0.054216
3560	0.267386
3544	0.034260
3528	0.112867
3512	0.144290
3496	0.025057
3480	0.084495
3464	0.049686
3448	-0.108647
3432	0.053334
3416	0.102639
3400	0.103425
3384	-0.012063
3368	0.114130
3352	0.037264
3336	0.002408
3320	0.072407
3304	-0.007057
3288	0.128674
3272	0.094151
3256	0.014591
3240	0.133347
3224	0.004720
3208	0.118279
3192	0.032401
3176	0.073051
3160	-0.062346
3144	0.009226
3128	0.109434
3112	0.077772
3096	-0.018644
3080	-0.066542
3064	0.016283
3048	-0.000929
3032	0.040221
3016	-0.027155
3000	0.034856
2984	0.092792
2968	0.182294
2952	0.122237
2936	0.090885
2920	-0.021028
2904	0.071501
2888	0.057578
2872	0.087404
2856	0.025534
2840	0.054216
2824	0.011110
2808	-0.018596
2792	-0.040006
2776	0.057268
2760	-0.094890
2744	0.010919
2728	0.196719
2712	0.050926
2696	0.042700
2680	0.046706
2664	0.139021
2648	0.067639
2632	0.029921
2616	0.088047
2600	-0.017189
2584	0.041270
2568	0.172376
2552	0.110483
2536	0.093436
2520	-0.072455
2504	0.091266
2488	-0.094699
2472	-0.061821
2456	0.017547
2440	0.117015
2424	0.074601
2408	0.155448
2392	0.038647
2376	0.129842
2360	0.101351
2344	0.044608
2328	0.114059
2312	0.214624
2296	0.250411
2280	0.425481
2264	0.688338
2248	0.960230
2232	1.446127
2216	2.069568
2200	2.943515
2184	3.902435
2168	5.212950
2152	6.646776
2136	8.370351
2120	10.1861
2104	12.0844
2088	14.0102
2072	15.9474
2056	17.8139
2040	19.5646
2024	21.2777
2008	22.811
1992	24.1754
1976	25.3664
1960	26.4523
1944	27.5155
1928	28.3492
1912	29.0463
1896	29.5402
1880	30.2179
1864	30.7074
1848	30.936
1832	31.3547
1816	31.6053
1800	31.9129
1784	32.2132
1768	32.2098
1752	32.3055
1736	32.4786
1720	32.8305
1704	32.6828
1688	32.8572
1672	32.7718
1656	32.6524
1640	32.8322
1624	32.8764
1608	32.6762
1592	32.9065
1576	32.7415
1560	32.5999
1544	32.9937
1528	32.7451
1512	32.507
1496	32.653
1480	32.616
1464	32.3999
1448	32.5506
1432	32.6277
1416	32.1869
1400	32.4421
1384	32.4917
1368	32.0632
1352	32.3128
1336	32.3704
1320	32.062
1304	32.0797
1288	32.2015
1272	31.8887
1256	31.8723
1240	32.0694
1224	31.6709
1208	31.6036
1192	31.7722
1176	31.5667
1160	31.1992
1144	31.6041
1128	31.4691
1112	30.7698
1096	31.2805
1080	31.0372
1064	30.679
1048	30.9813
1032	30.827
1016	30.2668
1000	30.3778
984	 30.5411
968	 29.7073
952	 29.851
936	 29.9904
920	 29.5579
904	 29.0522
888	 29.4273
872	 28.6556
856	 28.343
840	 28.8014
824	 28.1092
808	 27.5611
792	 27.9079
776	 27.3318
760	 26.5026
744	 26.8969
728	 26.7121
712	 25.9361
696	 25.901
680	 25.9369
664	 24.396
648	 24.668
632	 24.5913
616	 23.586
600	 23.5797
584	 23.5573
568	 22.5378
552	 21.6733
536	 21.4739
520	 20.7663
504	 20.7541
488	 21.1274
472	 20.3304
456	 17.8487
440	 17.6081
424	 18.866
408	 17.4287
392	 12.9679
376	 34.7547
370	 24.2181

File: LPE453_t53.asc
PE IR       SPECTRUM    SPECTRUM    ASCII       PEDS        1.60
  -1
LPC7A5~1.ASC
17/05/16
18:43:10.00
17/05/16
18:43:36.00
tln
$LPE453_t0053$<tbV0>[-7.8,-2.6,8.0,0.0,27,1,0]
27.028
64

2002,4.07
MIRTGS : RIGHTBACK : INTERNAL 2
MIR : ON : INTERNAL 2
OPTKBR

0.200000
8
8.000000
FILLER
RATIO
SPECTRUM
UNLOCKED 256

DOUBLE
64
COMBINED
1
0
0

0.002000
RATIO

1
0
TRUE
51149
0
LEFT NOT FITTED RIGHT NOT FITTED 0
NONE
NONE
15600
12
4.427000
51148
TRUE
1 0 8 72 0 0 0 0

15798

#HDR
-1
-1
#GR
µM
%T
2.38419e-05
0.0
2.000000
0.002000
12515
8
37.9348
-10.2714
#DATA
2.000000	 -0.433468
2.084000	 -0.104981
2.168000	 -0.428489
2.252000	 -0.098679
2.336000	 0.362268
2.420000	 -0.101291
2.504000	 0.059625
2.588000	 0.019389
2.672000	 0.198494
2.756000	 0.024205
2.840000	 0.088804
2.924000	 0.052736
3.008000	 0.141823
3.092000	 0.093762
3.176000	 -0.117613
3.260000	 0.044228
3.344000	 0.170522
3.428000	 -0.076649
3.512000	 0.077135
3.596000	 0.049251
3.680000	 -0.033284
3.764000	 0.062427
3.848000	 0.083135
3.932000	 -0.009502
4.016000	 0.148680
4.100000	 -0.033998
4.184000	 -0.023975
4.268000	 0.167708
4.352000	 0.317643
4.436000	 1.004466
4.520000	 2.461778
4.604000	 5.313798
4.688000	 9.309776
4.772000	 13.9064
4.856000	 18.1424
4.940000	 22.1158
5.024000	 25.2062
5.108000	 27.4715
5.192000	 29.1582
5.276000	 30.6956
5.359999	 31.2628
5.444000	 32.2102
5.528000	 32.5123
5.612000	 32.9512
5.696000	 33.1529
5.780000	 33.2076
5.864000	 33.3999
5.948000	 33.3704
6.032000	 33.4947
6.116000	 33.5706
6.200000	 33.3985
6.284000	 33.6427
6.368000	 33.332
6.452000	 33.5449
6.536000	 33.4962
6.620000	 33.1795
6.704000	 33.5541
6.788000	 33.162
6.872000	 33.0744
6.956000	 33.5099
7.040000	 32.9305
7.124000	 32.9195
7.208000	 33.2661
7.292000	 32.8551
7.376000	 32.7696
7.460000	 33.0919
7.544000	 32.8346
7.628000	 32.5376
7.712000	 32.7167
7.796000	 33.0255
7.880000	 32.6059
7.964000	 32.3868
8.048000	 32.6093
8.132000	 32.7426
8.216000	 32.3225
8.300000	 32.1278
8.384000	 32.3951
8.468000	 32.7963
8.552000	 32.4067
8.635999	 31.9029
8.719999	 31.8612
8.804000	 32.1702
8.888000	 32.4564
8.972000	 31.9109
9.056000	 31.6991
9.140000	 31.6427
9.224000	 32.1468
9.308000	 32.18
9.391999	 31.7047
9.475999	 31.2638
9.560000	 31.1011
9.644000	 31.4852
9.728000	 31.5996
9.812000	 31.5743
9.896000	 31.2501
9.980000	 30.9177
10.064	30.82
10.148	30.6975
10.232	31.051
10.316	31.1945
10.4	30.8241
10.484	30.5492
10.568	30.2778
10.652	30.141
10.736	30.3121
10.82	30.5363
10.904	30.7123
10.988	30.3751
11.072	29.9502
11.156	29.6501
11.24	29.5213
11.324	29.4696
11.408	29.718
11.492	30.0578
11.576	30.1292
11.66	29.96
11.744	29.4061
11.828	28.8635
11.912	28.6373
11.996	28.7146
12.08	28.9167
12.164	29.2275
12.248	29.2954
12.332	29.0521
12.416	28.9151
12.5	28.629
12.584	28.1556
12.668	27.9784
12.752	28.1725
12.836	28.1995
12.92	28.257
13.004	28.3551
13.088	28.2704
13.172	28.3393
13.256	28.3796
13.34	27.9898
13.424	27.4828
13.508	27.4237
13.592	27.3659
13.676	27.1229
13.76	27.0421
13.844	27.1683
13.928	27.3578
14.012	27.4304
14.096	27.5007
14.18	27.5918
14.264	27.5369
14.348	27.3611
14.432	27.0801
14.516	26.5505
14.6	26.0205
14.684	25.8307
14.768	25.9121
14.852	26.0884
14.936	26.2305
15.02	26.347
15.104	26.416
15.188	26.3861
15.272	26.3593
15.356	26.3281
15.44	26.1554
15.524	25.8497
15.608	25.5198
15.692	25.2693
15.776	25.1981
15.86	25.2665
15.944	25.2852
16.028	25.189
16.112	25.0795
16.196	25.0272
16.28	25.0286
16.364	25.0763
16.448	25.1905
16.532	25.3384
16.616	25.3481
16.7	25.0884
16.784	24.7137
16.868	24.4779
16.952	24.4144
17.036	24.3695
17.12	24.2544
17.204	24.1022
17.288	23.9159
17.372	23.6641
17.456	23.4333
17.54	23.3882
17.624	23.5337
17.708	23.6994
17.792	23.7792
17.876	23.8055
17.96	23.8156
18.044	23.8056
18.128	23.7976
18.212	23.8002
18.296	23.7322
18.38	23.5089
18.464	23.1663
18.548	22.8289
18.632	22.584
18.716	22.4394
18.8	22.3705
18.884	22.3627
18.968	22.398
19.052	22.4408
19.136	22.4378
19.22	22.3393
19.304	22.1463
19.388	21.9378
19.472	21.8352
19.556	21.9159
19.64	22.1424
19.724	22.3742
19.808	22.465
19.892	22.363
19.976	22.1354
20.06	21.9021
20.144	21.7487
20.228	21.6841
20.312	21.6588
20.396	21.6086
20.48	21.4972
20.564	21.32
20.648	21.0986
20.732	20.8617
20.816	20.6378
20.9	20.463
20.984	20.3765
21.068	20.4069
21.152	20.5452
21.236	20.7426
21.32	20.9332
21.404	21.0639
21.488	21.0982
21.572	20.999
21.656	20.717
21.74	20.2234
21.824	19.5713
21.908	18.9276
21.992	18.5121
22.076	18.4922
22.16	18.8957
22.244	19.5936
22.328	20.3786
22.412	21.0557
22.496	21.4973
22.58	21.6625
22.664	21.569
22.748	21.2827
22.832	20.9055
22.916	20.5558
23	20.3244
23.084	20.2459
23.168	20.2887
23.252	20.3849
23.336	20.4708
23.42	20.5253
23.504	20.5473
23.588	20.5354
23.672	20.4727
23.756	20.3235
23.84	20.0455
23.924	19.6239
24.008	19.0804
24.092	18.4586
24.176	17.802
24.26	17.1592
24.344	16.5957
24.428	16.1951
24.512	16.0706
24.596	16.329
24.68	16.9743
24.764	17.8291
24.848	18.6046
24.932	18.9337
25.016	18.5441
25.1	17.399
25.184	15.7562
25.268	14.0914
25.352	12.9116
25.436	12.6274
25.52	13.3607
25.604	14.9168
25.688	16.7961
25.772	18.3833
25.856	19.199
25.94	19.0048
26.024	17.8487
26.108	16.0266
26.192	14.1243
26.276	12.8417
26.36	12.7695
26.444	14.2032
26.528	17.0682
26.612	21.0126
26.696	25.499
26.78	29.9694
26.864	33.8492
26.948	36.6346
27.028	37.9348

File: LPE453_t53_cm-1.asc
PE IR       SPECTRUM    SPECTRUM    ASCII       PEDS        1.60
  -1
LPD9D0~1.ASC
17/05/16
18:43:10.00
17/05/16
18:43:10.00
tln
$LPE453_t0053$<tbV0>[-7.8,-2.6,8.0,0.0,27,1,0]
370
64

2002,4.07
MIRTGS : RIGHTBACK : INTERNAL 2
MIR : ON : INTERNAL 2
OPTKBR

0.200000
8
8.000000
FILLER
RATIO
SPECTRUM
UNLOCKED 256

DOUBLE
64
COMBINED
1
0
0

1.000000
RATIO

1
0
TRUE
51149
0
LEFT NOT FITTED RIGHT NOT FITTED 0
NONE
NONE
15600
12
4.427000
51148
TRUE
1 0 8 72 0 0 0 0

15798

#HDR
-1
-1
#GR
CM-1
%T
2.38419e-05
0.0
5000
-1.000000
4631
8
37.9348
-10.5479
#DATA
5000	-0.433468
4984	0.382399
4968	0.104498
4952	0.267863
4936	0.413942
4920	-0.104880
4904	0.662636
4888	-0.231337
4872	0.389289
4856	-0.085020
4840	-0.559926
4824	0.332808
4808	0.046300
4792	0.071668
4776	0.183010
4760	-0.155639
4744	0.333547
4728	-0.205564
4712	0.776314
4696	0.447678
4680	-0.503969
4664	1.432108
4648	1.724219
4632	0.701093
4616	-0.582027
4600	-0.122618
4584	-0.432348
4568	0.987935
4552	-0.190639
4536	-1.107978
4520	1.345586
4504	0.660300
4488	16.9047
4472	0.707030
4456	-0.042104
4440	-0.034403
4424	-0.635290
4408	-0.193834
4392	-0.291848
4376	0.001692
4360	0.123834
4344	-0.071835
4328	0.264883
4312	-0.071835
4296	0.195455
4280	0.330853
4264	-0.059604
4248	0.252127
4232	0.304293
4216	-0.323295
4200	-0.090813
4184	0.077223
4168	-0.163936
4152	0.018954
4136	-0.090312
4120	0.128316
4104	-0.001502
4088	0.019764
4072	0.114798
4056	-0.076460
4040	0.086450
4024	0.017070
4008	-0.062513
3992	0.009679
3976	-0.008988
3960	0.064969
3944	-0.028085
3928	0.115275
3912	-0.043463
3896	0.037002
3880	0.108933
3864	0.019240
3848	0.352025
3832	-0.037217
3816	-0.004506
3800	-0.032615
3784	0.037550
3768	0.144314
3752	-0.053215
3736	0.189375
3720	0.147128
3704	0.002002
3688	0.024795
3672	0.067520
3656	0.080800
3640	-0.029349
3624	0.021100
3608	0.079512
3592	0.126481
3576	-0.012660
3560	-0.058746
3544	0.034785
3528	0.076866
3512	0.062561
3496	-0.064826
3480	0.062632
3464	0.156641
3448	0.005602
3432	0.047969
3416	0.065350
3400	0.128793
3384	0.109672
3368	-0.097203
3352	-0.024104
3336	-0.003957
3320	0.219988
3304	-0.034213
3288	0.093650
3272	0.045251
3256	-0.026893
3240	0.191831
3224	-0.039219
3208	-0.017189
3192	0.046443
3176	-0.183701
3160	0.216865
3144	-0.054240
3128	0.183510
3112	0.094413
3096	-0.201845
3080	-0.018429
3064	-0.007891
3048	0.045824
3032	-0.030136
3016	0.083804
3000	0.057697
2984	0.059509
2968	0.044631
2952	0.187635
2936	-0.049781
2920	-0.021672
2904	0.087141
2888	-0.000071
2872	0.097775
2856	0.150752
2840	0.101447
2824	0.044035
2808	0.065302
2792	0.032639
2776	0.055742
2760	-0.009083
2744	0.015425
2728	-0.031352
2712	-0.006294
2696	0.047302
2680	0.111317
2664	0.005316
2648	0.000715
2632	-0.006484
2616	0.141739
2600	0.092506
2584	0.070261
2568	0.158715
2552	-0.000858
2536	-0.063204
2520	-0.025343
2504	0.141596
2488	0.171470
2472	0.003194
2456	0.061035
2440	-0.028085
2424	0.004386
2408	0.083160
2392	-0.017809
2376	0.028705
2360	0.000000
2344	0.158214
2328	0.100493
2312	0.153708
2296	0.330209
2280	0.441241
2264	0.757718
2248	1.102709
2232	1.635813
2216	2.286195
2200	3.287553
2184	4.356026
2168	5.643725
2152	7.233452
2136	8.940196
2120	10.8304
2104	12.7031
2088	14.9061
2072	16.7143
2056	18.5991
2040	20.4857
2024	22.1392
2008	23.6518
1992	25.0665
1976	26.2034
1960	27.3383
1944	28.3815
1928	29.0962
1912	29.841
1896	30.6692
1880	31.0324
1864	31.286
1848	31.9796
1832	32.2013
1816	32.2997
1800	32.7953
1784	32.9581
1768	32.9072
1752	33.2447
1736	33.2243
1720	33.1985
1704	33.4189
1688	33.546
1672	33.2773
1656	33.5163
1640	33.684
1624	33.308
1608	33.4393
1592	33.6461
1576	33.2962
1560	33.3584
1544	33.6594
1528	33.4479
1512	33.1464
1496	33.5162
1480	33.312
1464	32.9757
1448	33.3179
1432	33.4068
1416	32.8764
1400	33.0144
1384	33.2033
1368	32.7098
1352	32.8704
1336	33.1414
1320	32.7739
1304	32.5289
1288	33.0747
1272	32.7334
1256	32.3841
1240	32.622
1224	32.6393
1208	32.0391
1192	32.426
1176	32.6934
1160	31.9423
1144	31.9318
1128	32.4541
1112	31.8007
1096	31.5779
1080	32.2376
1064	31.6707
1048	31.1141
1032	31.5711
1016	31.4259
1000	30.8742
984	 30.735
968	 31.1367
952	 30.4956
936	 30.1804
920	 30.7206
904	 30.0114
888	 29.4845
872	 29.9793
856	 29.8542
840	 28.6442
824	 29.1245
808	 28.9646
792	 28.0074
776	 28.203
760	 28.3166
744	 27.4353
728	 27.0413
712	 27.4487
696	 27.3102
680	 25.8332
664	 26.3927
648	 26.1788
632	 25.2305
616	 25.0223
600	 25.2201
584	 24.2489
568	 23.4935
552	 23.7974
536	 22.5321
520	 22.3191
504	 22.4461
488	 21.4761
472	 20.6228
456	 18.7891
440	 21.3663
424	 20.5366
408	 16.0692
392	 13.2276
376	 20.1952
370	 37.9348