Folder: Masteroppgave/Bakgrunnsmateriale/MATLAB/FTIR/ftir_data/LPE453/Mapping_121 (part 52)

File: LPE453_t121_cm-1.asc
PE IR       SPECTRUM    SPECTRUM    ASCII       PEDS        1.60
  -1
LP0477~1.ASC
17/05/17
00:32:26.00
17/05/17
00:32:26.00
tln
$LPE453_t0121$<tbV0>[-13.0,13.0,8.0,0.0,27,1,0]
370
64

2002,4.07
MIRTGS : RIGHTBACK : INTERNAL 2
MIR : ON : INTERNAL 2
OPTKBR

0.200000
8
8.000000
FILLER
RATIO
SPECTRUM
UNLOCKED 256

DOUBLE
64
COMBINED
1
0
0

1.000000
RATIO

1
0
TRUE
51149
0
LEFT NOT FITTED RIGHT NOT FITTED 0
NONE
NONE
15600
12
4.427000
51148
TRUE
1 0 8 72 0 0 0 0

15798

#HDR
-1
-1
#GR
CM-1
%T
2.38419e-05
0.0
5000
-1.000000
4631
8
34.0246
-4.918360
#DATA
5000	0.035285
4984	-0.044226
4968	0.010704
4952	0.018477
4936	0.041770
4920	0.022482
4904	-0.111389
4888	0.081968
4872	-0.234365
4856	0.346517
4840	0.269198
4824	0.201964
4808	0.172185
4792	0.367116
4776	0.231194
4760	0.097417
4744	0.624155
4728	0.474858
4712	0.324869
4696	0.638532
4680	-0.740933
4664	0.823736
4648	0.998902
4632	0.945115
4616	-0.106430
4600	0.258874
4584	-0.846529
4568	-1.332068
4552	-0.250649
4536	-0.578618
4520	-0.871372
4504	-1.135563
4488	21.776
4472	-1.221442
4456	-0.690841
4440	-1.063752
4424	-0.222945
4408	0.058031
4392	0.259280
4376	0.719213
4360	0.491023
4344	0.343847
4328	0.059843
4312	0.383710
4296	0.256538
4280	0.257992
4264	-0.144100
4248	-0.117278
4232	-0.146627
4216	0.074601
4200	0.244903
4184	0.032329
4168	0.405716
4152	0.339961
4136	0.044727
4120	0.029850
4104	-0.025629
4088	-0.086426
4072	0.260734
4056	0.015687
4040	0.098824
4024	0.147795
4008	-0.024557
3992	0.284147
3976	0.266313
3960	0.127363
3944	-0.094985
3928	-0.087952
3912	0.215435
3896	0.061535
3880	-0.105810
3864	0.141716
3848	0.088858
3832	0.098085
3816	0.252175
3800	0.000834
3784	-0.006031
3768	0.229835
3752	0.033164
3736	0.091171
3720	0.167798
3704	0.001716
3688	0.098371
3672	0.105071
3656	0.170850
3640	0.183129
3624	0.105190
3608	-0.199365
3592	0.037837
3576	0.184512
3560	-0.030636
3544	-0.013184
3528	0.192880
3512	0.236010
3496	0.082421
3480	0.214958
3464	0.110197
3448	0.120925
3432	0.171613
3416	0.058937
3400	0.104331
3384	0.164055
3368	-0.061678
3352	-0.113487
3336	0.073194
3320	-0.038266
3304	0.023818
3288	0.103807
3272	0.021576
3256	0.059223
3240	-0.105023
3224	0.019145
3208	-0.025129
3192	0.002717
3176	-0.068378
3160	0.041007
3144	-0.022220
3128	0.230836
3112	-0.056433
3096	0.091075
3080	0.100517
3064	-0.147914
3048	0.075793
3032	-0.004315
3016	0.053858
3000	-0.079536
2984	0.006031
2968	0.095725
2952	0.054383
2936	-0.078225
2920	0.016093
2904	0.067687
2888	0.046825
2872	-0.019264
2856	-0.013327
2840	0.007557
2824	0.088000
2808	0.102591
2792	0.085139
2776	0.066113
2760	0.094366
2744	0.079107
2728	-0.036001
2712	0.052356
2696	-0.004982
2680	0.109362
2664	0.178384
2648	-0.019550
2632	0.022149
2616	0.059628
2600	-0.005531
2584	-0.017046
2568	-0.051784
2552	0.083208
2536	0.036215
2520	0.005173
2504	0.045514
2488	0.025916
2472	0.080657
2456	0.011849
2440	-0.041723
2424	-0.011086
2408	-0.057363
2392	-0.031375
2376	0.050449
2360	0.075435
2344	0.173425
2328	0.092005
2312	0.372791
2296	0.588726
2280	0.680518
2264	1.077079
2248	1.388382
2232	2.034401
2216	2.842640
2200	3.671145
2184	4.877543
2168	6.094837
2152	7.669186
2136	9.238505
2120	10.965
2104	12.8723
2088	14.613
2072	16.4327
2056	18.2216
2040	19.855
2024	21.4009
2008	22.806
1992	24.1894
1976	25.1693
1960	26.1952
1944	27.1964
1928	27.9926
1912	28.6412
1896	29.2265
1880	29.7614
1864	30.3206
1848	30.7444
1832	30.9963
1816	31.3448
1800	31.6694
1784	31.8387
1768	32.0661
1752	32.248
1736	32.3438
1720	32.378
1704	32.5793
1688	32.8272
1672	32.7425
1656	32.9822
1640	33.0372
1624	33.1326
1608	33.1211
1592	33.2665
1576	33.1148
1560	33.3086
1544	33.3559
1528	33.526
1512	33.413
1496	33.4072
1480	33.5082
1464	33.5328
1448	33.5289
1432	33.6723
1416	33.6686
1400	33.5701
1384	33.619
1368	33.8255
1352	33.674
1336	33.643
1320	33.7958
1304	33.8274
1288	33.7266
1272	33.7472
1256	34.0167
1240	33.9061
1224	33.7521
1208	33.9086
1192	33.9757
1176	33.8274
1160	33.7631
1144	33.8437
1128	33.7952
1112	33.1869
1096	33.3386
1080	33.4728
1064	33.3311
1048	32.9596
1032	33.2061
1016	33.1743
1000	32.6361
984	 32.5361
968	 32.3858
952	 32.3272
936	 31.8
920	 31.7657
904	 31.5927
888	 31.1791
872	 30.7688
856	 30.6794
840	 30.5588
824	 29.933
808	 29.6391
792	 29.4923
776	 29.271
760	 28.4562
744	 28.4242
728	 28.3623
712	 27.6712
696	 26.9993
680	 27.0411
664	 27.0047
648	 25.9137
632	 25.3784
616	 25.8459
600	 25.1001
584	 24.5468
568	 24.6655
552	 24.4029
536	 24.0349
520	 22.9033
504	 22.4333
488	 23.4606
472	 21.0685
456	 20.1555
440	 20.3741
424	 20.5778
408	 18.0324
392	 13.7465
376	 9.981846
370	 -4.918360