Folder: Masteroppgave/Bakgrunnsmateriale/MATLAB/FTIR/ftir_data/LPE453/Mapping_121 (part 27)

File: LPE453_t59.asc
PE IR       SPECTRUM    SPECTRUM    ASCII       PEDS        1.60
  -1
LPE7AD~1.ASC
17/05/16
19:11:27.00
17/05/16
19:11:53.00
tln
$LPE453_t0059$<tbV0>[5.2,0.0,8.0,0.0,27,1,0]
27.028
64

2002,4.07
MIRTGS : RIGHTBACK : INTERNAL 2
MIR : ON : INTERNAL 2
OPTKBR

0.200000
8
8.000000
FILLER
RATIO
SPECTRUM
UNLOCKED 256

DOUBLE
64
COMBINED
1
0
0

0.002000
RATIO

1
0
TRUE
51149
0
LEFT NOT FITTED RIGHT NOT FITTED 0
NONE
NONE
15600
12
4.427000
51148
TRUE
1 0 8 72 0 0 0 0

15798

#HDR
-1
-1
#GR
µM
%T
2.38419e-05
0.0
2.000000
0.002000
12515
8
25.8045
-2.443956
#DATA
2.000000	 0.574278
2.084000	 -0.044318
2.168000	 0.705682
2.252000	 -1.077713
2.336000	 0.171604
2.420000	 0.235128
2.504000	 0.100537
2.588000	 0.032489
2.672000	 -0.101628
2.756000	 0.124257
2.840000	 0.015650
2.924000	 0.027290
3.008000	 -0.021409
3.092000	 0.116564
3.176000	 0.112794
3.260000	 -0.047604
3.344000	 0.036265
3.428000	 0.027959
3.512000	 0.151610
3.596000	 -0.031204
3.680000	 0.062811
3.764000	 0.106464
3.848000	 -0.032060
3.932000	 0.093475
4.016000	 0.023185
4.100000	 0.015386
4.184000	 -0.075144
4.268000	 0.006912
4.352000	 0.004109
4.436000	 0.308668
4.520000	 0.807304
4.604000	 2.266100
4.688000	 4.657934
4.772000	 7.844000
4.856000	 11.1666
4.940000	 14.3695
5.024000	 17.3408
5.108000	 19.4986
5.192000	 21.1943
5.276000	 22.5124
5.359999	 23.5174
5.444000	 24.1331
5.528000	 24.8077
5.612000	 25.0741
5.696000	 25.3768
5.780000	 25.5003
5.864000	 25.7727
5.948000	 25.7504
6.032000	 25.7223
6.116000	 25.7525
6.200000	 25.7446
6.284000	 25.7322
6.368000	 25.599
6.452000	 25.6912
6.536000	 25.6387
6.620000	 25.6198
6.704000	 25.6062
6.788000	 25.5647
6.872000	 25.1842
6.956000	 25.3211
7.040000	 25.3196
7.124000	 25.1513
7.208000	 25.2408
7.292000	 25.0135
7.376000	 25.0845
7.460000	 25.0163
7.544000	 24.948
7.628000	 24.8808
7.712000	 24.7601
7.796000	 24.661
7.880000	 24.6038
7.964000	 24.5364
8.048000	 24.551
8.132000	 24.4196
8.216000	 24.4449
8.300000	 24.4143
8.384000	 24.3006
8.468000	 24.2468
8.552000	 24.1163
8.635999	 24.0838
8.719999	 24.0704
8.804000	 23.8024
8.888000	 23.7844
8.972000	 23.7097
9.056000	 23.5763
9.140000	 23.6182
9.224000	 23.3886
9.308000	 23.1176
9.391999	 23.2313
9.475999	 23.2111
9.560000	 22.9864
9.644000	 23.0721
9.728000	 22.9391
9.812000	 22.8787
9.896000	 22.9506
9.980000	 22.8536
10.064	22.6961
10.148	22.5508
10.232	22.4816
10.316	22.2754
10.4	22.1362
10.484	22.0391
10.568	21.8667
10.652	21.9333
10.736	21.7769
10.82	21.6484
10.904	21.5701
10.988	21.5036
11.072	21.2099
11.156	21.3001
11.24	21.2816
11.324	21.0804
11.408	21.0364
11.492	20.9564
11.576	20.8407
11.66	20.8001
11.744	20.7213
11.828	20.6705
11.912	20.4799
11.996	20.1798
12.08	20.1576
12.164	19.987
12.248	19.8468
12.332	19.7539
12.416	19.6626
12.5	19.6656
12.584	19.6211
12.668	19.3097
12.752	19.0474
12.836	18.9881
12.92	19.0104
13.004	19.1766
13.088	19.094
13.172	18.842
13.256	18.8142
13.34	18.577
13.424	18.2085
13.508	18.3401
13.592	18.352
13.676	18.1683
13.76	17.9614
13.844	17.9093
13.928	18.1277
14.012	18.2382
14.096	18.0602
14.18	17.9037
14.264	17.7886
14.348	17.5776
14.432	17.4728
14.516	17.4249
14.6	17.3558
14.684	17.3139
14.768	17.2078
14.852	17.1185
14.936	17.0727
15.02	16.8318
15.104	16.5422
15.188	16.448
15.272	16.4719
15.356	16.5604
15.44	16.5505
15.524	16.3203
15.608	16.0742
15.692	15.9642
15.776	15.9528
15.86	15.9772
15.944	15.9593
16.028	15.8601
16.112	15.7291
16.196	15.627
16.28	15.5948
16.364	15.6175
16.448	15.5848
16.532	15.4511
16.616	15.3725
16.7	15.4761
16.784	15.6518
16.868	15.7438
16.952	15.7151
17.036	15.5408
17.12	15.2129
17.204	14.8704
17.288	14.6882
17.372	14.6864
17.456	14.7754
17.54	14.8768
17.624	14.9142
17.708	14.819
17.792	14.5983
17.876	14.321
17.96	14.0748
18.044	13.9713
18.128	14.0765
18.212	14.2738
18.296	14.3157
18.38	14.1048
18.464	13.8299
18.548	13.7439
18.632	13.8825
18.716	14.0715
18.8	14.1584
18.884	14.1351
18.968	14.0471
19.052	13.894
19.136	13.6636
19.22	13.406
19.304	13.2142
19.388	13.1287
19.472	13.0969
19.556	13.0368
19.64	12.9237
19.724	12.7977
19.808	12.7046
19.892	12.6485
19.976	12.5958
20.06	12.5116
20.144	12.3963
20.228	12.29
20.312	12.2359
20.396	12.2357
20.48	12.2454
20.564	12.2047
20.648	12.0736
20.732	11.8671
20.816	11.6534
20.9	11.5285
20.984	11.5527
21.068	11.7084
21.152	11.9033
21.236	12.0301
21.32	12.032
21.404	11.912
21.488	11.6896
21.572	11.3613
21.656	10.9227
21.74	10.4267
21.824	10.0231
21.908	9.909397
21.992	10.2004
22.076	10.8433
22.16	11.6303
22.244	12.3093
22.328	12.7166
22.412	12.8145
22.496	12.6609
22.58	12.3363
22.664	11.9132
22.748	11.4567
22.832	11.0243
22.916	10.6705
23	10.4174
23.084	10.258
23.168	10.1793
23.252	10.1945
23.336	10.3497
23.42	10.706
23.504	11.2521
23.588	11.8554
23.672	12.3069
23.756	12.4039
23.84	12.066
23.924	11.4046
24.008	10.6788
24.092	10.1857
24.176	10.127
24.26	10.5004
24.344	11.1538
24.428	11.9082
24.512	12.6175
24.596	13.2437
24.68	13.7681
24.764	14.0908
24.848	13.9891
24.932	13.204
25.016	11.6254
25.1	9.387999
25.184	6.943387
25.268	4.905644
25.352	3.801303
25.436	3.874656
25.52	4.976722
25.604	6.702315
25.688	8.464896
25.772	9.808832
25.856	10.6511
25.94	11.2461
26.024	12.0841
26.108	13.6274
26.192	16.0917
26.276	19.2669
26.36	22.4671
26.444	24.8535
26.528	25.7319
26.612	24.8333
26.696	22.2218
26.78	18.2481
26.864	13.2915
26.948	7.792051
27.028	2.681374

File: LPE453_t59_cm-1.asc
PE IR       SPECTRUM    SPECTRUM    ASCII       PEDS        1.60
  -1
LPE9D9~1.ASC
17/05/16
19:11:27.00
17/05/16
19:11:27.00
tln
$LPE453_t0059$<tbV0>[5.2,0.0,8.0,0.0,27,1,0]
370
64

2002,4.07
MIRTGS : RIGHTBACK : INTERNAL 2
MIR : ON : INTERNAL 2
OPTKBR

0.200000
8
8.000000
FILLER
RATIO
SPECTRUM
UNLOCKED 256

DOUBLE
64
COMBINED
1
0
0

1.000000
RATIO

1
0
TRUE
51149
0
LEFT NOT FITTED RIGHT NOT FITTED 0
NONE
NONE
15600
12
4.427000
51148
TRUE
1 0 8 72 0 0 0 0

15798

#HDR
-1
-1
#GR
CM-1
%T
2.38419e-05
0.0
5000
-1.000000
4631
8
25.8045
-2.477788
#DATA
5000	0.574278
4984	-0.075125
4968	0.599455
4952	0.087809
4936	-0.021505
4920	0.405883
4904	0.021910
4888	0.258970
4872	0.565314
4856	0.512909
4840	0.397658
4824	-0.045824
4808	0.132346
4792	0.244545
4776	0.354003
4760	0.319528
4744	0.929450
4728	0.432085
4712	0.718498
4696	-0.423192
4680	2.116322
4664	0.206136
4648	-0.075459
4632	0.433659
4616	0.655579
4600	0.268077
4584	-0.602555
4568	-0.958037
4552	-1.128506
4536	-0.637054
4520	-0.883722
4504	-2.477788
4488	20.1257
4472	3.647661
4456	-0.228071
4440	-1.025056
4424	-0.325298
4408	0.279808
4392	0.697946
4376	0.438809
4360	0.546503
4344	0.660681
4328	0.321912
4312	0.277781
4296	0.059413
4280	0.167322
4264	0.518751
4248	-0.001621
4232	0.176644
4216	0.198507
4200	0.179982
4184	0.915002
4168	-0.161552
4152	0.278663
4136	0.197410
4120	0.324892
4104	0.340795
4088	0.324702
4072	0.150084
4056	0.209879
4040	0.043940
4024	0.043129
4008	-0.076365
3992	0.091338
3976	-0.220870
3960	0.023031
3944	0.231909
3928	-0.099468
3912	0.071144
3896	0.022912
3880	0.015354
3864	0.032258
3848	0.036025
3832	0.129985
3816	0.125193
3800	0.203800
3784	-0.085902
3768	0.214743
3752	0.039076
3736	-0.101900
3720	0.210285
3704	0.042414
3688	-0.018882
3672	0.016474
3656	0.138449
3640	-0.022149
3624	0.108337
3608	0.053262
3592	0.042676
3576	0.103902
3560	0.014162
3544	-0.050377
3528	0.036525
3512	0.015544
3496	0.042510
3480	0.164175
3464	0.110840
3448	0.067877
3432	-0.058650
3416	0.107002
3400	0.020241
3384	-0.027751
3368	0.109577
3352	0.043869
3336	0.028109
3320	0.037145
3304	-0.009441
3288	0.032019
3272	0.157451
3256	0.154399
3240	0.037646
3224	0.040721
3208	0.158262
3192	0.002288
3176	-0.018954
3160	0.086617
3144	0.129532
3128	0.159907
3112	0.114583
3096	0.005888
3080	-0.050258
3064	-0.039815
3048	0.141954
3032	0.135636
3016	0.043439
3000	-0.033831
2984	0.157523
2968	-0.098109
2952	-0.007057
2936	-0.011420
2920	0.059556
2904	0.056552
2888	0.089383
2872	-0.034618
2856	0.210332
2840	0.155830
2824	0.012850
2808	0.070095
2792	-0.040626
2776	-0.046038
2760	0.044250
2744	0.012731
2728	0.022625
2712	0.092124
2696	0.110936
2680	-0.013208
2664	0.008440
2648	0.115823
2632	0.042700
2616	0.009250
2600	-0.045084
2584	-0.011491
2568	0.109100
2552	-0.043416
2536	-0.020051
2520	0.137186
2504	0.014901
2488	-0.006127
2472	-0.099205
2456	-0.010418
2440	0.012850
2424	0.052642
2408	0.153756
2392	-0.086164
2376	-0.031280
2360	-0.014734
2344	0.018882
2328	-0.017333
2312	-0.069212
2296	0.023913
2280	0.125789
2264	0.128626
2248	0.325059
2232	0.555515
2216	0.686311
2200	1.193141
2184	1.751732
2168	2.423882
2152	3.418779
2136	4.437518
2120	5.693340
2104	7.092857
2088	8.431935
2072	10.235
2056	11.4973
2040	13.0697
2024	14.3972
2008	16.016
1992	17.2022
1976	18.294
1960	19.3824
1944	20.3269
1928	21.0808
1912	21.8743
1896	22.4835
1880	23.0639
1864	23.5812
1848	23.8734
1832	24.2967
1816	24.6352
1800	24.7954
1784	25.0488
1768	25.2236
1752	25.3373
1736	25.4384
1720	25.5806
1704	25.7542
1688	25.7424
1672	25.6494
1656	25.704
1640	25.7472
1624	25.8025
1608	25.6592
1592	25.7403
1576	25.5716
1560	25.7031
1544	25.6157
1528	25.6462
1512	25.6176
1496	25.6386
1480	25.5549
1464	25.4345
1448	25.1671
1432	25.4667
1416	25.2354
1400	25.1128
1384	25.2027
1368	25.0211
1352	25.1453
1336	24.9733
1320	24.9869
1304	24.8454
1288	24.7564
1272	24.6113
1256	24.5357
1240	24.5645
1224	24.3626
1208	24.4237
1192	24.3213
1176	24.2277
1160	24.09
1144	24.0701
1128	23.729
1112	23.6218
1096	23.6727
1080	23.3148
1064	23.2343
1048	23.0121
1032	22.9844
1016	22.9522
1000	22.7999
984	 22.5684
968	 22.2323
952	 21.9865
936	 21.9153
920	 21.6077
904	 21.2388
888	 21.2191
872	 20.9845
856	 20.7943
840	 20.5128
824	 20.0639
808	 19.6947
792	 19.4945
776	 18.9749
760	 18.8735
744	 18.2026
728	 18.0188
712	 18.1909
696	 17.5385
680	 17.2946
664	 16.675
648	 16.5617
632	 15.9667
616	 15.6025
600	 15.4159
584	 15.1986
568	 14.9157
552	 14.0506
536	 13.9424
520	 13.3761
504	 12.6793
488	 12.244
472	 11.9685
456	 9.944677
440	 11.5694
424	 11.835
408	 12.6
392	 4.808783
376	 25.1475
370	 2.681374

File: LPE453_t60.asc
PE IR       SPECTRUM    SPECTRUM    ASCII       PEDS        1.60
  -1
LPCBA9~1.ASC
17/05/16
19:16:04.00
17/05/16
19:16:30.00
tln
$LPE453_t0060$<tbV0>[2.6,0.0,8.0,0.0,27,1,0]
27.028
64

2002,4.07
MIRTGS : RIGHTBACK : INTERNAL 2
MIR : ON : INTERNAL 2
OPTKBR

0.200000
8
8.000000
FILLER
RATIO
SPECTRUM
UNLOCKED 256

DOUBLE
64
COMBINED
1
0
0

0.002000
RATIO

1
0
TRUE
51149
0
LEFT NOT FITTED RIGHT NOT FITTED 0
NONE
NONE
15600
12
4.427000
51148
TRUE
1 0 8 72 0 0 0 0

15798

#HDR
-1
-1
#GR
µM
%T
2.38419e-05
0.0
2.000000
0.002000
12515
8
26.7494
-6.593942
#DATA
2.000000	 0.173497
2.084000	 0.070928
2.168000	 0.973700
2.252000	 -0.457535
2.336000	 0.233399
2.420000	 -0.065133
2.504000	 -0.069538
2.588000	 0.046838
2.672000	 -0.043019
2.756000	 0.093616
2.840000	 0.106247
2.924000	 0.112759
3.008000	 0.012302
3.092000	 -0.020986
3.176000	 -0.017058
3.260000	 -0.007848
3.344000	 0.037897
3.428000	 -0.077011
3.512000	 0.005902
3.596000	 0.115169
3.680000	 0.157056
3.764000	 0.007966
3.848000	 -0.036031
3.932000	 0.053187
4.016000	 0.069545
4.100000	 0.147731
4.184000	 -0.020308
4.268000	 -0.095990
4.352000	 0.033243
4.436000	 0.314226
4.520000	 1.016871
4.604000	 2.735019
4.688000	 5.231342
4.772000	 8.761447
4.856000	 12.4531
4.940000	 15.7152
5.024000	 18.5135
5.108000	 20.6909
5.192000	 22.4355
5.276000	 23.6204
5.359999	 24.5389
5.444000	 25.2099
5.528000	 25.7652
5.612000	 26.0155
5.696000	 26.2437
5.780000	 26.555
5.864000	 26.5614
5.948000	 26.6249
6.032000	 26.7234
6.116000	 26.5971
6.200000	 26.7372
6.284000	 26.5772
6.368000	 26.7048
6.452000	 26.499
6.536000	 26.5493
6.620000	 26.4502
6.704000	 26.4501
6.788000	 26.312
6.872000	 26.2657
6.956000	 26.1962
7.040000	 26.2566
7.124000	 26.3377
7.208000	 26.1154
7.292000	 26.0914
7.376000	 25.9224
7.460000	 25.9585
7.544000	 25.8883
7.628000	 25.7916
7.712000	 25.7568
7.796000	 25.652
7.880000	 25.635
7.964000	 25.5562
8.048000	 25.4423
8.132000	 25.3607
8.216000	 25.3699
8.300000	 25.3948
8.384000	 25.2605
8.468000	 25.0874
8.552000	 25.1992
8.635999	 25.2002
8.719999	 24.924
8.804000	 24.7373
8.888000	 24.7993
8.972000	 24.5739
9.056000	 24.4694
9.140000	 24.2448
9.224000	 24.4127
9.308000	 24.4817
9.391999	 24.1444
9.475999	 24.053
9.560000	 24.073
9.644000	 24.0953
9.728000	 23.8862
9.812000	 23.7683
9.896000	 23.6942
9.980000	 23.7347
10.064	23.7541
10.148	23.4013
10.232	23.2185
10.316	23.1133
10.4	23.0361
10.484	23.0964
10.568	23.0749
10.652	22.8419
10.736	22.6348
10.82	22.6184
10.904	22.8144
10.988	22.4994
11.072	22.3714
11.156	22.3571
11.24	21.9619
11.324	21.941
11.408	21.9681
11.492	21.6934
11.576	21.6564
11.66	21.6676
11.744	21.3981
11.828	21.2387
11.912	21.2016
11.996	21.0348
12.08	21.1605
12.164	21.1943
12.248	20.9301
12.332	20.7965
12.416	20.7106
12.5	20.6665
12.584	20.477
12.668	20.248
12.752	20.1802
12.836	20.1134
12.92	19.8741
13.004	19.6998
13.088	19.6791
13.172	19.6347
13.256	19.5643
13.34	19.7291
13.424	19.7485
13.508	19.5486
13.592	19.5311
13.676	19.2869
13.76	18.9314
13.844	18.8407
13.928	18.7667
14.012	18.7102
14.096	18.5315
14.18	18.3645
14.264	18.4522
14.348	18.5312
14.432	18.4291
14.516	18.2715
14.6	18.178
14.684	17.9705
14.768	17.6895
14.852	17.65
14.936	17.7603
15.02	17.8168
15.104	17.8912
15.188	17.8397
15.272	17.5639
15.356	17.3692
15.44	17.3184
15.524	17.2643
15.608	17.2678
15.692	17.2858
15.776	17.1625
15.86	16.9486
15.944	16.8044
16.028	16.7646
16.112	16.7478
16.196	16.7251
16.28	16.7171
16.364	16.6769
16.448	16.6096
16.532	16.5697
16.616	16.4843
16.7	16.2759
16.784	16.0537
16.868	15.9296
16.952	15.8522
17.036	15.7235
17.12	15.5537
17.204	15.4459
17.288	15.4246
17.372	15.3923
17.456	15.3073
17.54	15.2723
17.624	15.3468
17.708	15.411
17.792	15.3263
17.876	15.1098
17.96	14.8874
18.044	14.7264
18.128	14.5853
18.212	14.4269
18.296	14.307
18.38	14.3018
18.464	14.3872
18.548	14.453
18.632	14.4357
18.716	14.3662
18.8	14.2887
18.884	14.1969
18.968	14.0705
19.052	13.9367
19.136	13.8708
19.22	13.9347
19.304	14.1075
19.388	14.2786
19.472	14.3225
19.556	14.1971
19.64	13.9801
19.724	13.7924
19.808	13.6927
19.892	13.6524
19.976	13.6121
20.06	13.554
20.144	13.5056
20.228	13.4868
20.312	13.4693
20.396	13.4011
20.48	13.2765
20.564	13.1681
20.648	13.175
20.732	13.3231
20.816	13.5135
20.9	13.5815
20.984	13.4247
21.068	13.0896
21.152	12.7469
21.236	12.5632
21.32	12.58
21.404	12.6916
21.488	12.7479
21.572	12.6689
21.656	12.4852
21.74	12.2968
21.824	12.1974
21.908	12.223
21.992	12.3427
22.076	12.4768
22.16	12.5307
22.244	12.4201
22.328	12.1166
22.412	11.6669
22.496	11.1823
22.58	10.7611
22.664	10.4402
22.748	10.1854
22.832	9.942199
22.916	9.692807
23	9.502778
23.084	9.469396
23.168	9.667180
23.252	10.1038
23.336	10.7294
23.42	11.4492
23.504	12.1784
23.588	12.8365
23.672	13.3336
23.756	13.583
23.84	13.5659
23.924	13.3617
24.008	13.1254
24.092	13.0209
24.176	13.1268
24.26	13.3562
24.344	13.4836
24.428	13.2808
24.512	12.6198
24.596	11.5652
24.68	10.4431
24.764	9.778943
24.848	10.0385
24.932	11.4593
25.016	13.8695
25.1	16.7278
25.184	19.2914
25.268	20.9159
25.352	21.2386
25.436	20.1954
25.52	18.0445
25.604	15.2541
25.688	12.4341
25.772	10.2224
25.856	9.134945
25.94	9.400690
26.024	10.89
26.108	13.1491
26.192	15.3999
26.276	16.7879
26.36	16.6347
26.444	14.7245
26.528	11.3543
26.612	7.301378
26.696	3.380857
26.78	0.074743
26.864	-2.549904
26.948	-4.721076
27.028	-6.593942

File: LPE453_t60_cm-1.asc
PE IR       SPECTRUM    SPECTRUM    ASCII       PEDS        1.60
  -1
LP5A55~1.ASC
17/05/16
19:16:04.00
17/05/16
19:16:04.00
tln
$LPE453_t0060$<tbV0>[2.6,0.0,8.0,0.0,27,1,0]
370
64

2002,4.07
MIRTGS : RIGHTBACK : INTERNAL 2
MIR : ON : INTERNAL 2
OPTKBR

0.200000
8
8.000000
FILLER
RATIO
SPECTRUM
UNLOCKED 256

DOUBLE
64
COMBINED
1
0
0

1.000000
RATIO

1
0
TRUE
51149
0
LEFT NOT FITTED RIGHT NOT FITTED 0
NONE
NONE
15600
12
4.427000
51148
TRUE
1 0 8 72 0 0 0 0

15798

#HDR
-1
-1
#GR
CM-1
%T
2.38419e-05
0.0
5000
-1.000000
4631
8
26.7492
-6.593942
#DATA
5000	0.173497
4984	-0.168681
4968	0.077104
4952	0.116539
4936	0.183010
4920	0.339746
4904	0.200533
4888	0.750517
4872	-0.005769
4856	0.305557
4840	0.206971
4824	-0.240612
4808	0.152206
4792	-0.201559
4776	-0.020933
4760	0.719380
4744	0.645494
4728	0.014114
4712	0.669336
4696	0.799393
4680	1.007699
4664	0.590658
4648	-0.413846
4632	0.843882
4616	0.591826
4600	-0.024533
4584	0.230860
4568	-0.193929
4552	-0.165438
4536	0.232815
4520	-0.081515
4504	-0.129365
4488	11.2643
4472	1.786613
4456	0.029540
4440	-0.486278
4424	-0.633668
4408	-0.466537
4392	0.034928
4376	-0.304245
4360	0.046515
4344	0.263404
4328	-0.155377
4312	0.328397
4296	-0.032520
4280	0.270295
4264	0.453734
4248	0.128293
4232	0.316667
4216	-0.017023
4200	-0.039863
4184	0.002527
4168	0.231647
4152	0.224804
4136	0.067496
4120	0.013899
4104	0.139093
4088	0.103878
4072	0.132060
4056	-0.012230
4040	-0.056695
4024	0.008606
4008	0.053167
3992	-0.062417
3976	0.052094
3960	0.128912
3944	-0.045895
3928	0.046515
3912	0.145125
3896	0.074362
3880	0.163435
3864	0.046586
3848	-0.105404
3832	-0.038027
3816	0.055551
3800	0.072312
3784	0.044727
3768	-0.026226
3752	-0.027847
3736	0.026988
3720	0.044751
3704	0.143599
3688	0.067114
3672	0.081682
3656	-0.133776
3640	-0.143456
3624	0.124955
3608	0.196814
3592	0.164866
3576	-0.020503
3560	0.045394
3544	0.065708
3528	0.140929
3512	-0.034999
3496	0.070619
3480	-0.124788
3464	0.002837
3448	0.073528
3432	-0.061321
3416	0.126504
3400	-0.001573
3384	0.011515
3368	-0.048279
3352	-0.029754
3336	0.075507
3320	-0.061011
3304	0.120306
3288	-0.071072
3272	-0.020217
3256	0.077748
3240	-0.034880
3224	-0.008463
3208	0.177979
3192	0.070428
3176	0.009083
3160	0.083255
3144	-0.031948
3128	0.137519
3112	-0.038981
3096	0.000190
3080	0.111961
3064	0.014209
3048	0.083947
3032	0.100612
3016	-0.187849
3000	-0.022554
2984	0.079846
2968	0.042915
2952	0.139331
2936	-0.010728
2920	-0.054526
2904	0.154948
2888	-0.007295
2872	0.001382
2856	0.040912
2840	0.095033
2824	-0.011229
2808	-0.021862
2792	-0.019264
2776	0.112342
2760	0.022935
2744	0.045657
2728	-0.023412
2712	0.017547
2696	0.022816
2680	0.012636
2664	0.024342
2648	-0.004577
2632	0.000596
2616	0.105237
2600	-0.067377
2584	0.037837
2568	0.019645
2552	-0.067996
2536	-0.009512
2520	0.097274
2504	0.039315
2488	0.064754
2472	0.076913
2456	0.032615
2440	0.134587
2424	-0.230574
2408	0.224828
2392	-0.004792
2376	0.045061
2360	0.029277
2344	-0.103640
2328	-0.051236
2312	0.022363
2296	0.042271
2280	0.128293
2264	0.201392
2248	0.450325
2232	0.637435
2216	0.919866
2200	1.363563
2184	2.090644
2168	2.944207
2152	3.847980
2136	5.098104
2120	6.489276
2104	7.904338
2088	9.553647
2072	11.1151
2056	12.6811
2040	14.257
2024	15.7355
2008	17.0696
1992	18.3961
1976	19.4327
1960	20.5712
1944	21.3644
1928	22.3347
1912	22.9427
1896	23.6046
1880	24.1692
1864	24.5841
1848	25.0099
1832	25.3808
1816	25.5192
1800	25.8811
1784	25.993
1768	26.1817
1752	26.3156
1736	26.4316
1720	26.5126
1704	26.5676
1688	26.6758
1672	26.6234
1656	26.7213
1640	26.5758
1624	26.7446
1608	26.7311
1592	26.5849
1576	26.6465
1560	26.6139
1544	26.56
1528	26.538
1512	26.4296
1496	26.5612
1480	26.2462
1464	26.3258
1448	26.4031
1432	26.1963
1416	26.3296
1400	26.2607
1384	26.0793
1368	26.1535
1352	25.9236
1336	26.0129
1320	25.8397
1304	25.7648
1288	25.6512
1272	25.5762
1256	25.5609
1240	25.3777
1224	25.3585
1208	25.3539
1192	25.2419
1176	25.1437
1160	25.2261
1144	24.8428
1128	24.8933
1112	24.5627
1096	24.2194
1080	24.4859
1064	24.1313
1048	24.0526
1032	24.0238
1016	23.7013
1000	23.7752
984	 23.3321
968	 23.0852
952	 23.121
936	 22.7381
920	 22.7413
904	 22.3554
888	 21.9053
872	 21.7717
856	 21.6184
840	 21.2162
824	 21.2248
808	 20.7496
792	 20.3459
776	 19.9821
760	 19.649
744	 19.7058
728	 19.0059
712	 18.663
696	 18.5229
680	 17.8906
664	 17.85
648	 17.3226
632	 17.0431
616	 16.7213
600	 16.3697
584	 15.5478
568	 15.325
552	 14.6067
536	 14.4179
520	 13.9522
504	 13.6733
488	 13.2581
472	 12.6461
456	 12.2476
440	 10.2453
424	 12.8148
408	 12.6426
392	 18.336
376	 8.088183
370	 -6.593942

File: LPE453_t61.asc
PE IR       SPECTRUM    SPECTRUM    ASCII       PEDS        1.60
  -1
LPCBAD~1.ASC
17/05/16
19:20:41.00
17/05/16
19:21:07.00
tln
$LPE453_t0061$<tbV0>[0.0,0.0,8.0,0.0,27,1,0]
27.028
64

2002,4.07
MIRTGS : RIGHTBACK : INTERNAL 2
MIR : ON : INTERNAL 2
OPTKBR

0.200000
8
8.000000
FILLER
RATIO
SPECTRUM
UNLOCKED 256

DOUBLE
64
COMBINED
1
0
0

0.002000
RATIO

1
0
TRUE
51149
0
LEFT NOT FITTED RIGHT NOT FITTED 0
NONE
NONE
15600
12
4.427000
51148
TRUE
1 0 8 72 0 0 0 0

15798

#HDR
-1
-1
#GR
µM
%T
2.38419e-05
0.0
2.000000
0.002000
12515
8
30.3525
-22.3091
#DATA
2.000000	 0.046706
2.084000	 0.447592
2.168000	 0.382796
2.252000	 -0.563211
2.336000	 -0.152838
2.420000	 -0.005028
2.504000	 0.188929
2.588000	 0.040349
2.672000	 0.005343
2.756000	 0.052280
2.840000	 0.010850
2.924000	 0.002829
3.008000	 0.038675
3.092000	 0.091132
3.176000	 0.135523
3.260000	 -0.020484
3.344000	 0.087013
3.428000	 -0.087972
3.512000	 0.106594
3.596000	 -0.053989
3.680000	 0.001020
3.764000	 0.088283
3.848000	 -0.042671
3.932000	 -0.007087
4.016000	 0.052786
4.100000	 -0.016197
4.184000	 0.004904
4.268000	 0.003634
4.352000	 0.169341
4.436000	 0.567753
4.520000	 1.735581
4.604000	 3.946599
4.688000	 7.286069
4.772000	 11.3396
4.856000	 15.4564
4.940000	 18.9877
5.024000	 21.9713
5.108000	 24.2267
5.192000	 26.0339
5.276000	 27.2131
5.359999	 28.1735
5.444000	 28.7994
5.528000	 29.282
5.612000	 29.7344
5.696000	 29.801
5.780000	 29.9206
5.864000	 30.0451
5.948000	 30.2703
6.032000	 30.2614
6.116000	 30.207
6.200000	 30.2474
6.284000	 30.2295
6.368000	 30.206
6.452000	 30.3243
6.536000	 30.0567
6.620000	 30.0957
6.704000	 30.1147
6.788000	 30.1044
6.872000	 29.7585
6.956000	 29.8604
7.040000	 29.8861
7.124000	 29.6695
7.208000	 29.6081
7.292000	 29.6858
7.376000	 29.3532
7.460000	 29.4768
7.544000	 29.5895
7.628000	 29.2586
7.712000	 29.3063
7.796000	 29.3701
7.880000	 29.0815
7.964000	 29.0606
8.048000	 29.1702
8.132000	 28.9802
8.216000	 28.7168
8.300000	 28.7719
8.384000	 29.0771
8.468000	 28.7669
8.552000	 28.454
8.635999	 28.6584
8.719999	 28.724
8.804000	 28.5313
8.888000	 28.2388
8.972000	 28.2106
9.056000	 28.5218
9.140000	 28.3837
9.224000	 27.9289
9.308000	 27.9941
9.391999	 27.8187
9.475999	 27.861
9.560000	 27.7039
9.644000	 27.7252
9.728000	 27.6488
9.812000	 27.6211
9.896000	 27.6907
9.980000	 27.5988
10.064	27.3716
10.148	27.0461
10.232	26.9951
10.316	27.0862
10.4	27.0698
10.484	26.8784
10.568	26.6612
10.652	26.2828
10.736	26.1225
10.82	26.3629
10.904	26.4354
10.988	26.4579
11.072	26.1806
11.156	25.7658
11.24	25.6747
11.324	25.604
11.408	25.5389
11.492	25.7043
11.576	25.8607
11.66	25.6649
11.744	25.3204
11.828	25.1701
11.912	24.9042
11.996	24.918
12.08	24.9427
12.164	24.9088
12.248	24.9608
12.332	24.7754
12.416	24.5359
12.5	24.1914
12.584	24.0688
12.668	24.0023
12.752	24.1588
12.836	24.3641
12.92	24.3419
13.004	24.2885
13.088	24.0716
13.172	23.6964
13.256	23.2784
13.34	23.19
13.424	23.3345
13.508	23.5254
13.592	23.4377
13.676	23.2167
13.76	23.2469
13.844	23.2091
13.928	23.0304
14.012	22.9515
14.096	22.7865
14.18	22.5118
14.264	22.348
14.348	22.3379
14.432	22.2208
14.516	22.003
14.6	21.9941
14.684	22.1144
14.768	22.0881
14.852	21.969
14.936	21.8548
15.02	21.646
15.104	21.4684
15.188	21.4609
15.272	21.4652
15.356	21.4563
15.44	21.4749
15.524	21.4223
15.608	21.2782
15.692	21.081
15.776	20.8707
15.86	20.7187
15.944	20.6364
16.028	20.5749
16.112	20.4861
16.196	20.3193
16.28	20.093
16.364	19.887
16.448	19.705
16.532	19.5588
16.616	19.5674
16.7	19.7559
16.784	19.9321
16.868	19.9478
16.952	19.9239
17.036	20.0274
17.12	20.1443
17.204	20.0119
17.288	19.6427
17.372	19.3083
17.456	19.1577
17.54	19.1209
17.624	19.1147
17.708	19.1505
17.792	19.2274
17.876	19.2562
17.96	19.1495
18.044	18.9485
18.128	18.7938
18.212	18.7544
18.296	18.7807
18.38	18.8381
18.464	18.9566
18.548	19.1131
18.632	19.1821
18.716	19.0631
18.8	18.8046
18.884	18.5441
18.968	18.3795
19.052	18.3206
19.136	18.3019
19.22	18.2282
19.304	18.0477
19.388	17.7918
19.472	17.5294
19.556	17.319
19.64	17.2003
19.724	17.2056
19.808	17.3353
19.892	17.5315
19.976	17.7002
20.06	17.7837
20.144	17.8081
20.228	17.8414
20.312	17.903
20.396	17.9267
20.48	17.8115
20.564	17.5123
20.648	17.0785
20.732	16.6269
20.816	16.2857
20.9	16.1397
20.984	16.195
21.068	16.3708
21.152	16.5353
21.236	16.5676
21.32	16.4204
21.404	16.1467
21.488	15.8678
21.572	15.699
21.656	15.6877
21.74	15.7932
21.824	15.9146
21.908	15.9567
21.992	15.8827
22.076	15.7209
22.16	15.5371
22.244	15.3793
22.328	15.2597
22.412	15.1796
22.496	15.1513
22.58	15.1964
22.664	15.3191
22.748	15.4748
22.832	15.5778
22.916	15.5319
23	15.3017
23.084	14.9336
23.168	14.5497
23.252	14.2868
23.336	14.2518
23.42	14.4608
23.504	14.8384
23.588	15.226
23.672	15.4418
23.756	15.3482
23.84	14.9232
23.924	14.2978
24.008	13.6834
24.092	13.2633
24.176	13.1099
24.26	13.1323
24.344	13.1184
24.428	12.8685
24.512	12.2892
24.596	11.4527
24.68	10.6052
24.764	10.0855
24.848	10.1159
24.932	10.7499
25.016	11.8207
25.1	12.9612
25.184	13.7982
25.268	14.141
25.352	14.0208
25.436	13.6766
25.52	13.4492
25.604	13.6324
25.688	14.3669
25.772	15.5912
25.856	17.0972
25.94	18.5894
26.024	19.7659
26.108	20.4089
26.192	20.4453
26.276	19.8659
26.36	18.6615
26.444	16.7946
26.528	14.1579
26.612	10.6453
26.696	6.085051
26.78	0.341597
26.864	-6.625780
26.948	-14.5602
27.028	-22.3091