Folder: Masteroppgave/Bakgrunnsmateriale/MATLAB/FTIR/ftir_data/LPE453/Mapping_121 (part 51)

File: LPE453_t119.asc
PE IR       SPECTRUM    SPECTRUM    ASCII       PEDS        1.60
  -1
LP9798~1.ASC
17/05/17
00:23:13.00
17/05/17
00:23:39.00
tln
$LPE453_t0119$<tbV0>[-7.8,13.0,8.0,0.0,27,1,0]
27.028
64

2002,4.07
MIRTGS : RIGHTBACK : INTERNAL 2
MIR : ON : INTERNAL 2
OPTKBR

0.200000
8
8.000000
FILLER
RATIO
SPECTRUM
UNLOCKED 256

DOUBLE
64
COMBINED
1
0
0

0.002000
RATIO

1
0
TRUE
51149
0
LEFT NOT FITTED RIGHT NOT FITTED 0
NONE
NONE
15600
12
4.427000
51148
TRUE
1 0 8 72 0 0 0 0

15798

#HDR
-1
-1
#GR
µM
%T
2.38419e-05
0.0
2.000000
0.002000
12515
8
34.7157
-2.406913
#DATA
2.000000	 0.275731
2.084000	 0.279480
2.168000	 0.854268
2.252000	 -0.322779
2.336000	 0.226934
2.420000	 0.397059
2.504000	 -0.016624
2.588000	 -0.049209
2.672000	 0.188740
2.756000	 0.104264
2.840000	 0.203875
2.924000	 0.066960
3.008000	 0.032199
3.092000	 -0.092984
3.176000	 0.010317
3.260000	 0.047530
3.344000	 -0.028014
3.428000	 0.073141
3.512000	 0.039141
3.596000	 0.093902
3.680000	 0.050342
3.764000	 0.012745
3.848000	 0.049547
3.932000	 0.114742
4.016000	 -0.019975
4.100000	 0.074969
4.184000	 0.032378
4.268000	 0.334191
4.352000	 0.520267
4.436000	 1.495065
4.520000	 3.342552
4.604000	 6.514814
4.688000	 10.4505
4.772000	 14.7858
4.856000	 18.892
4.940000	 22.2268
5.024000	 24.9194
5.108000	 27.2796
5.192000	 28.8359
5.276000	 30.1525
5.359999	 30.9068
5.444000	 31.9073
5.528000	 32.3853
5.612000	 33.03
5.696000	 33.1414
5.780000	 33.5929
5.864000	 33.7984
5.948000	 33.9152
6.032000	 34.2864
6.116000	 34.0998
6.200000	 34.3259
6.284000	 34.4492
6.368000	 34.2688
6.452000	 34.5874
6.536000	 34.5858
6.620000	 34.3204
6.704000	 34.5223
6.788000	 34.5887
6.872000	 34.1804
6.956000	 34.4704
7.040000	 34.3435
7.124000	 34.2189
7.208000	 33.9967
7.292000	 34.3327
7.376000	 34.2501
7.460000	 33.7828
7.544000	 33.8594
7.628000	 34.0612
7.712000	 34.0312
7.796000	 33.6334
7.880000	 33.5741
7.964000	 33.58
8.048000	 33.7668
8.132000	 33.5247
8.216000	 33.241
8.300000	 33.227
8.384000	 33.4584
8.468000	 33.469
8.552000	 33.2535
8.635999	 32.8998
8.719999	 32.8511
8.804000	 33.0513
8.888000	 33.0727
8.972000	 32.9533
9.056000	 32.5573
9.140000	 32.311
9.224000	 32.4992
9.308000	 32.5242
9.391999	 32.6046
9.475999	 32.5423
9.560000	 32.0963
9.644000	 31.9509
9.728000	 31.9804
9.812000	 31.964
9.896000	 32.117
9.980000	 32.0914
10.064	32.077
10.148	31.7959
10.232	31.7077
10.316	31.4402
10.4	31.3366
10.484	31.367
10.568	31.3607
10.652	31.6538
10.736	31.5982
10.82	31.1133
10.904	30.9905
10.988	30.6499
11.072	30.5004
11.156	30.6163
11.24	30.615
11.324	30.6564
11.408	30.8347
11.492	30.6708
11.576	30.4573
11.66	30.313
11.744	30.06
11.828	29.8555
11.912	29.8491
11.996	29.8793
12.08	29.8748
12.164	30.0578
12.248	30.1615
12.332	29.9133
12.416	29.8921
12.5	29.7071
12.584	29.4047
12.668	29.2466
12.752	29.12
12.836	28.9593
12.92	29.062
13.004	29.186
13.088	29.2687
13.172	29.3847
13.256	29.411
13.34	29.1866
13.424	28.9111
13.508	28.674
13.592	28.5079
13.676	28.3888
13.76	28.3486
13.844	28.3384
13.928	28.4056
14.012	28.3774
14.096	28.2347
14.18	28.2809
14.264	28.4045
14.348	28.4729
14.432	28.4236
14.516	28.2036
14.6	28.0315
14.684	27.9646
14.768	27.7757
14.852	27.453
14.936	27.2616
15.02	27.2411
15.104	27.2064
15.188	27.1996
15.272	27.2422
15.356	27.2927
15.44	27.4129
15.524	27.5211
15.608	27.5028
15.692	27.3789
15.776	27.2389
15.86	27.2311
15.944	27.3629
16.028	27.3591
16.112	27.0772
16.196	26.752
16.28	26.5699
16.364	26.4061
16.448	26.1695
16.532	25.9731
16.616	25.9015
16.7	25.8857
16.784	25.8468
16.868	25.8164
16.952	25.8434
17.036	25.8914
17.12	25.9412
17.204	26.0513
17.288	26.1932
17.372	26.2482
17.456	26.1967
17.54	26.0923
17.624	25.9283
17.708	25.7156
17.792	25.5651
17.876	25.5327
17.96	25.5048
18.044	25.3761
18.128	25.2046
18.212	25.0943
18.296	25.0419
18.38	24.9844
18.464	24.923
18.548	24.8891
18.632	24.8409
18.716	24.7087
18.8	24.5197
18.884	24.3765
18.968	24.3366
19.052	24.3779
19.136	24.4718
19.22	24.6108
19.304	24.7617
19.388	24.8351
19.472	24.7494
19.556	24.5152
19.64	24.2439
19.724	24.0669
19.808	24.0515
19.892	24.1699
19.976	24.3297
20.06	24.4215
20.144	24.3633
20.228	24.1232
20.312	23.7257
20.396	23.2389
20.48	22.7506
20.564	22.3448
20.648	22.0885
20.732	22.0199
20.816	22.1373
20.9	22.3968
20.984	22.7245
21.068	23.0365
21.152	23.2551
21.236	23.3241
21.32	23.2197
21.404	22.9654
21.488	22.6311
21.572	22.3134
21.656	22.0953
21.74	22.0167
21.824	22.0727
21.908	22.2292
21.992	22.4368
22.076	22.6342
22.16	22.7585
22.244	22.7767
22.328	22.6907
22.412	22.5479
22.496	22.4131
22.58	22.3401
22.664	22.3587
22.748	22.4645
22.832	22.6284
22.916	22.7994
23	22.9081
23.084	22.8937
23.168	22.731
23.252	22.4463
23.336	22.0989
23.42	21.7205
23.504	21.2965
23.588	20.7469
23.672	19.9783
23.756	18.9675
23.84	17.8
23.924	16.6504
24.008	15.7077
24.092	15.1007
24.176	14.8415
24.26	14.8636
24.344	15.0711
24.428	15.3837
24.512	15.7333
24.596	16.0505
24.68	16.2734
24.764	16.3768
24.848	16.4223
24.932	16.5704
25.016	17.0157
25.1	17.8833
25.184	19.227
25.268	20.9489
25.352	22.7659
25.436	24.2377
25.52	24.8956
25.604	24.4012
25.688	22.7141
25.772	20.1877
25.856	17.4334
25.94	14.981
26.024	13.1448
26.108	11.9766
26.192	11.3613
26.276	11.1807
26.36	11.436
26.444	12.2353
26.528	13.6578
26.612	15.638
26.696	17.8068
26.78	19.5098
26.864	19.908
26.948	18.268
27.028	14.5922

File: LPE453_t119_cm-1.asc
PE IR       SPECTRUM    SPECTRUM    ASCII       PEDS        1.60
  -1
LP0CFC~1.ASC
17/05/17
00:23:13.00
17/05/17
00:23:13.00
tln
$LPE453_t0119$<tbV0>[-7.8,13.0,8.0,0.0,27,1,0]
370
64

2002,4.07
MIRTGS : RIGHTBACK : INTERNAL 2
MIR : ON : INTERNAL 2
OPTKBR

0.200000
8
8.000000
FILLER
RATIO
SPECTRUM
UNLOCKED 256

DOUBLE
64
COMBINED
1
0
0

1.000000
RATIO

1
0
TRUE
51149
0
LEFT NOT FITTED RIGHT NOT FITTED 0
NONE
NONE
15600
12
4.427000
51148
TRUE
1 0 8 72 0 0 0 0

15798

#HDR
-1
-1
#GR
CM-1
%T
2.38419e-05
0.0
5000
-1.000000
4631
8
34.7155
-2.741217
#DATA
5000	0.275731
4984	-0.046277
4968	0.205540
4952	0.102734
4936	0.126409
4920	-0.046777
4904	-0.122022
4888	0.268936
4872	0.220251
4856	0.172710
4840	0.064420
4824	0.242304
4808	0.101757
4792	0.307607
4776	0.179791
4760	-0.247693
4744	-0.253963
4728	0.340604
4712	0.271272
4696	0.596404
4680	0.191855
4664	1.519489
4648	0.078868
4632	0.813961
4616	0.752639
4600	0.049448
4584	-0.304675
4568	-0.046205
4552	-0.887918
4536	-0.165295
4520	-0.961661
4504	7.775306
4488	14.5488
4472	-2.338790
4456	-1.554536
4440	-0.266122
4424	-0.468420
4408	0.653719
4392	0.770998
4376	0.857257
4360	0.672221
4344	0.848221
4328	0.470018
4312	0.214767
4296	0.438785
4280	0.209712
4264	-0.004959
4248	-0.046277
4232	-0.020742
4216	0.219607
4200	0.261950
4184	-0.037264
4168	0.175309
4152	0.232744
4136	0.432777
4120	0.301432
4104	0.205516
4088	0.083827
4072	0.095200
4056	0.090146
4040	0.009202
4024	0.043034
4008	0.076270
3992	-0.012755
3976	0.232791
3960	0.140643
3944	0.245285
3928	0.038409
3912	0.131344
3896	0.203347
3880	0.020813
3864	-0.049114
3848	0.265145
3832	-0.026178
3816	-0.098299
3800	0.132727
3784	0.006008
3768	0.138449
3752	0.225758
3736	0.211095
3720	0.032138
3704	-0.171327
3688	0.168156
3672	-0.073981
3656	0.157976
3640	0.005626
3624	0.111293
3608	-0.067710
3592	0.091123
3576	0.020742
3560	0.098276
3544	0.133037
3528	0.136208
3512	0.028777
3496	-0.111317
3480	0.248742
3464	-0.077700
3448	-0.046324
3432	0.068044
3416	-0.006747
3400	0.101590
3384	0.100350
3368	0.004482
3352	0.030255
3336	-0.027012
3320	0.048375
3304	0.030803
3288	0.032162
3272	0.103330
3256	0.204443
3240	0.046634
3224	-0.097298
3208	0.048899
3192	0.108885
3176	0.029778
3160	0.039339
3144	0.120520
3128	0.192236
3112	0.112390
3096	0.068545
3080	0.034737
3064	0.071454
3048	0.055146
3032	0.113821
3016	0.034832
3000	-0.113010
2984	0.137758
2968	0.088620
2952	-0.099992
2936	-0.110769
2920	0.097823
2904	0.059723
2888	0.061130
2872	0.040793
2856	0.087332
2840	-0.011849
2824	0.036740
2808	-0.078129
2792	0.106191
2776	0.047111
2760	-0.024485
2744	0.019168
2728	0.141024
2712	0.065255
2696	-0.062704
2680	0.014638
2664	0.023579
2648	-0.003838
2632	0.102591
2616	-0.046515
2600	0.050902
2584	0.216698
2568	0.045728
2552	0.030922
2536	0.005459
2520	0.082635
2504	0.008440
2488	-0.031852
2472	-0.000834
2456	-0.001478
2440	0.089359
2424	0.213003
2408	0.029206
2392	0.057649
2376	0.050663
2360	0.063323
2344	0.323462
2328	0.352549
2312	0.483703
2296	0.545978
2280	0.821900
2264	1.210212
2248	1.732444
2232	2.404737
2216	3.163313
2200	4.254055
2184	5.403089
2168	6.880640
2152	8.391976
2136	10.1637
2120	11.8837
2104	13.9211
2088	15.6337
2072	17.2202
2056	19.26
2040	20.7635
2024	22.257
2008	23.6332
1992	24.8448
1976	25.8632
1960	27.0913
1944	28.0721
1928	28.7632
1912	29.4049
1896	30.1257
1880	30.6472
1864	30.9578
1848	31.506
1832	32.0228
1816	32.3334
1800	32.4341
1784	32.9923
1768	33.1515
1752	33.0958
1736	33.3631
1720	33.8091
1704	33.8014
1688	33.8259
1672	34.0245
1656	34.3143
1640	34.1063
1624	34.1119
1608	34.4231
1592	34.4756
1576	34.2173
1560	34.4226
1544	34.7048
1528	34.5687
1512	34.3249
1496	34.4147
1480	34.5277
1464	34.3692
1448	34.3653
1432	34.4377
1416	34.3895
1400	34.1277
1384	34.0484
1368	34.3388
1352	34.1954
1336	33.7221
1320	33.9538
1304	34.1518
1288	33.7979
1272	33.549
1256	33.57
1240	33.8093
1224	33.3727
1208	33.2262
1192	33.4758
1176	33.4106
1160	32.917
1144	32.8872
1128	33.0297
1112	32.8388
1096	32.3674
1080	32.5931
1064	32.6171
1048	32.2021
1032	32.0039
1016	32.0608
1000	32.1026
984	 31.7682
968	 31.4134
952	 31.3602
936	 31.7341
920	 31.0414
904	 30.502
888	 30.5989
872	 30.7442
856	 30.2572
840	 29.8448
824	 29.9739
808	 29.8784
792	 29.3049
776	 28.9994
760	 29.3633
744	 28.8587
728	 28.3553
712	 28.3148
696	 28.4769
680	 27.9346
664	 27.2293
648	 27.3996
632	 27.2102
616	 26.6549
600	 25.8926
584	 25.9441
568	 25.9705
552	 25.227
536	 24.8122
520	 24.6308
504	 24.0867
488	 22.687
472	 23.3039
456	 22.2805
440	 22.4315
424	 20.7708
408	 15.7244
392	 24.876
376	 15.2276
370	 14.5922

File: LPE453_t120.asc
PE IR       SPECTRUM    SPECTRUM    ASCII       PEDS        1.60
  -1
LP9372~1.ASC
17/05/17
00:27:50.00
17/05/17
00:28:16.00
tln
$LPE453_t0120$<tbV0>[-10.4,13.0,8.0,0.0,27,1,0]
27.028
64

2002,4.07
MIRTGS : RIGHTBACK : INTERNAL 2
MIR : ON : INTERNAL 2
OPTKBR

0.200000
8
8.000000
FILLER
RATIO
SPECTRUM
UNLOCKED 256

DOUBLE
64
COMBINED
1
0
0

0.002000
RATIO

1
0
TRUE
51149
0
LEFT NOT FITTED RIGHT NOT FITTED 0
NONE
NONE
15600
12
4.427000
51148
TRUE
1 0 8 72 0 0 0 0

15798

#HDR
-1
-1
#GR
µM
%T
2.38419e-05
0.0
2.000000
0.002000
12515
8
35.4148
-27.5637
#DATA
2.000000	 0.173974
2.084000	 0.617058
2.168000	 0.921486
2.252000	 -0.537748
2.336000	 -0.042554
2.420000	 0.141390
2.504000	 0.075787
2.588000	 0.097685
2.672000	 0.100494
2.756000	 0.037483
2.840000	 -0.007217
2.924000	 -0.084999
3.008000	 -0.085435
3.092000	 -0.027264
3.176000	 0.109374
3.260000	 0.113200
3.344000	 0.013788
3.428000	 -0.023218
3.512000	 0.145426
3.596000	 -0.004431
3.680000	 -0.053589
3.764000	 0.027775
3.848000	 -0.101749
3.932000	 0.007051
4.016000	 -0.011716
4.100000	 0.103759
4.184000	 0.099971
4.268000	 0.230518
4.352000	 0.589116
4.436000	 1.427970
4.520000	 3.483676
4.604000	 6.408845
4.688000	 10.5551
4.772000	 14.7653
4.856000	 18.8006
4.940000	 22.4045
5.024000	 25.1904
5.108000	 27.4345
5.192000	 28.9803
5.276000	 30.4283
5.359999	 31.3066
5.444000	 32.0677
5.528000	 32.7263
5.612000	 33.2452
5.696000	 33.5116
5.780000	 33.7391
5.864000	 34.1619
5.948000	 34.2496
6.032000	 34.6733
6.116000	 34.6845
6.200000	 34.7586
6.284000	 34.979
6.368000	 34.9171
6.452000	 35.0092
6.536000	 35.2673
6.620000	 35.2176
6.704000	 35.1117
6.788000	 35.3456
6.872000	 34.9915
6.956000	 35.1328
7.040000	 35.2752
7.124000	 35.1797
7.208000	 34.9572
7.292000	 35.2828
7.376000	 35.4147
7.460000	 35.0092
7.544000	 34.7661
7.628000	 34.9574
7.712000	 34.9979
7.796000	 34.75
7.880000	 34.6881
7.964000	 34.63
8.048000	 34.8804
8.132000	 34.6962
8.216000	 34.3624
8.300000	 34.2817
8.384000	 34.5041
8.468000	 34.3953
8.552000	 34.3209
8.635999	 34.0254
8.719999	 33.8551
8.804000	 33.9349
8.888000	 33.992
8.972000	 34.0207
9.056000	 33.9241
9.140000	 33.3724
9.224000	 33.1389
9.308000	 33.3287
9.391999	 33.385
9.475999	 33.553
9.560000	 33.097
9.644000	 32.9506
9.728000	 32.7328
9.812000	 32.5117
9.896000	 32.4332
9.980000	 32.7446
10.064	32.7889
10.148	32.6182
10.232	32.5676
10.316	32.147
10.4	32.0169
10.484	31.9459
10.568	32.1125
10.652	32.0633
10.736	32.016
10.82	31.9348
10.904	31.5837
10.988	31.2998
11.072	31.1928
11.156	31.3047
11.24	31.2958
11.324	31.1774
11.408	31.1135
11.492	31.0515
11.576	30.9916
11.66	30.7371
11.744	30.4909
11.828	30.466
11.912	30.2699
11.996	30.2011
12.08	30.1115
12.164	30.1054
12.248	30.2689
12.332	30.1371
12.416	30.0192
12.5	29.8796
12.584	29.652
12.668	29.4857
12.752	29.3425
12.836	29.3041
12.92	29.3145
13.004	29.275
13.088	29.3812
13.172	29.5344
13.256	29.5407
13.34	29.3932
13.424	29.2719
13.508	29.1333
13.592	28.9387
13.676	28.7134
13.76	28.6456
13.844	28.5256
13.928	28.2825
14.012	28.1269
14.096	28.0158
14.18	28.1287
14.264	28.3137
14.348	28.325
14.432	28.3261
14.516	28.3075
14.6	28.2696
14.684	28.1755
14.768	27.8963
14.852	27.6465
14.936	27.5177
15.02	27.3068
15.104	27.1347
15.188	27.1658
15.272	27.119
15.356	26.8954
15.44	26.7795
15.524	26.8247
15.608	26.8832
15.692	26.9594
15.776	27.0402
15.86	26.9881
15.944	26.812
16.028	26.69
16.112	26.6594
16.196	26.5984
16.28	26.4524
16.364	26.2564
16.448	26.0967
16.532	26.0851
16.616	26.1927
16.7	26.2176
16.784	26.0388
16.868	25.7558
16.952	25.5658
17.036	25.5823
17.12	25.7505
17.204	25.9184
17.288	26.0017
17.372	26.0341
17.456	26.0727
17.54	26.1096
17.624	26.0692
17.708	25.9147
17.792	25.741
17.876	25.678
17.96	25.6995
18.044	25.6545
18.128	25.4852
18.212	25.2843
18.296	25.1214
18.38	24.9545
18.464	24.7418
18.548	24.5407
18.632	24.4416
18.716	24.4523
18.8	24.4993
18.884	24.5122
18.968	24.4729
19.052	24.3955
19.136	24.2986
19.22	24.2116
19.304	24.1847
19.388	24.2422
19.472	24.3302
19.556	24.355
19.64	24.283
19.724	24.1826
19.808	24.1507
19.892	24.2152
19.976	24.3118
20.06	24.3519
20.144	24.2959
20.228	24.1667
20.312	24.0115
20.396	23.8581
20.48	23.6894
20.564	23.4641
20.648	23.1614
20.732	22.8106
20.816	22.4811
20.9	22.245
20.984	22.1447
21.068	22.1856
21.152	22.3398
21.236	22.5487
21.32	22.7346
21.404	22.8272
21.488	22.8041
21.572	22.7065
21.656	22.6077
21.74	22.5557
21.824	22.5463
21.908	22.5428
21.992	22.5303
22.076	22.5455
22.16	22.6476
22.244	22.8527
22.328	23.0969
22.412	23.2568
22.496	23.2311
22.58	23.0215
22.664	22.726
22.748	22.4847
22.832	22.3738
22.916	22.353
23	22.2769
23.084	21.9997
23.168	21.4444
23.252	20.6543
23.336	19.7754
23.42	18.9708
23.504	18.3705
23.588	18.0395
23.672	17.9926
23.756	18.2205
23.84	18.6865
23.924	19.3082
24.008	19.9456
24.092	20.4074
24.176	20.5052
24.26	20.1477
24.344	19.387
24.428	18.4274
24.512	17.6357
24.596	17.3284
24.68	17.6876
24.764	18.7121
24.848	20.1578
24.932	21.6704
25.016	22.9655
25.1	23.9239
25.184	24.5818
25.268	25.0722
25.352	25.527
25.436	26.0412
25.52	26.6492
25.604	27.3381
25.688	27.9982
25.772	28.4537
25.856	28.5172
25.94	28.0611
26.024	27.0134
26.108	25.3438
26.192	22.8683
26.276	19.2495
26.36	14.1122
26.444	7.335441
26.528	-0.739506
26.612	-9.242034
26.696	-17.0207
26.78	-23.0059
26.864	-26.5492
26.948	-27.5603
27.028	-26.5445

File: LPE453_t120_cm-1.asc
PE IR       SPECTRUM    SPECTRUM    ASCII       PEDS        1.60
  -1
LP0377~1.ASC
17/05/17
00:27:50.00
17/05/17
00:27:50.00
tln
$LPE453_t0120$<tbV0>[-10.4,13.0,8.0,0.0,27,1,0]
370
64

2002,4.07
MIRTGS : RIGHTBACK : INTERNAL 2
MIR : ON : INTERNAL 2
OPTKBR

0.200000
8
8.000000
FILLER
RATIO
SPECTRUM
UNLOCKED 256

DOUBLE
64
COMBINED
1
0
0

1.000000
RATIO

1
0
TRUE
51149
0
LEFT NOT FITTED RIGHT NOT FITTED 0
NONE
NONE
15600
12
4.427000
51148
TRUE
1 0 8 72 0 0 0 0

15798

#HDR
-1
-1
#GR
CM-1
%T
2.38419e-05
0.0
5000
-1.000000
4631
8
35.4139
-27.547
#DATA
5000	0.173974
4984	0.490713
4968	0.047278
4952	0.113201
4936	0.214385
4920	0.012016
4904	0.485467
4888	-0.000405
4872	-0.141572
4856	0.277280
4840	0.147819
4824	0.397586
4808	0.241541
4792	0.516557
4776	-0.056385
4760	-0.227093
4744	-0.301527
4728	0.356364
4712	0.277328
4696	-0.123786
4680	-0.758957
4664	-0.373387
4648	0.495195
4632	1.736640
4616	0.550699
4600	0.604891
4584	-0.288796
4568	0.081229
4552	-0.087046
4536	-0.190782
4520	-0.629234
4504	1.280093
4488	10.0607
4472	-0.542116
4456	0.691318
4440	-0.532722
4424	-0.108098
4408	-0.221824
4392	0.524878
4376	0.371623
4360	-0.034856
4344	0.561428
4328	-0.085353
4312	0.093173
4296	-0.144934
4280	-0.109815
4264	-0.135564
4248	0.033473
4232	0.213265
4216	0.262618
4200	0.103449
4184	-0.076866
4168	-0.407147
4152	0.269651
4136	0.204968
4120	0.098109
4104	0.202107
4088	0.106096
4072	0.087881
4056	0.278210
4040	-0.023889
4024	0.066542
4008	0.174045
3992	0.057125
3976	0.114941
3960	0.069355
3944	0.124287
3928	0.099301
3912	0.037360
3896	-0.086903
3880	0.205421
3864	0.097680
3848	0.109219
3832	0.247383
3816	0.166249
3800	0.044703
3784	0.183892
3768	-0.048017
3752	0.075387
3736	0.160908
3720	-0.028967
3704	0.231790
3688	-0.079345
3672	0.087165
3656	0.076293
3640	0.073671
3624	0.090765
3608	-0.077700
3592	0.091743
3576	0.056505
3560	0.267601
3544	0.041103
3528	0.035309
3512	0.248599
3496	0.089716
3480	0.093412
3464	-0.101709
3448	0.077819
3432	-0.016570
3416	0.009322
3400	0.012850
3384	-0.036382
3368	0.042676
3352	0.080466
3336	0.015830
3320	-0.007939
3304	-0.032258
3288	0.080370
3272	0.034332
3256	0.064444
3240	0.028848
3224	-0.022864
3208	0.075292
3192	0.043058
3176	0.035953
3160	0.022268
3144	0.001335
3128	-0.054121
3112	0.113916
3096	0.054812
3080	0.082492
3064	0.091552
3048	0.000381
3032	-0.030159
3016	0.057601
3000	-0.159811
2984	-0.010752
2968	0.023627
2952	-0.026845
2936	-0.011777
2920	-0.008273
2904	-0.044107
2888	0.019907
2872	0.110673
2856	0.208520
2840	0.060582
2824	-0.098800
2808	-0.032091
2792	0.086021
2776	0.004792
2760	0.004601
2744	0.032544
2728	0.013351
2712	-0.061941
2696	0.033068
2680	0.140452
2664	-0.073957
2648	-0.001358
2632	0.045275
2616	0.116229
2600	-0.100469
2584	0.023698
2568	0.041031
2552	0.031471
2536	-0.000071
2520	0.056934
2504	0.032162
2488	-0.048446
2472	0.022935
2456	0.010919
2440	0.101566
2424	0.133323
2408	0.062179
2392	0.110697
2376	0.136518
2360	0.065612
2344	0.207328
2328	0.166034
2312	0.444293
2296	0.599598
2280	0.958800
2264	1.193284
2248	1.766371
2232	2.438855
2216	3.316164
2200	4.174685
2184	5.428957
2168	6.748747
2152	8.584952
2136	10.2132
2120	11.9689
2104	13.7902
2088	15.5794
2072	17.5332
2056	19.1814
2040	20.9612
2024	22.4284
2008	23.7961
1992	25.0803
1976	26.2414
1960	27.2626
1944	28.2509
1928	28.8797
1912	29.6626
1896	30.408
1880	30.9161
1864	31.3575
1848	31.8521
1832	32.1896
1816	32.5884
1800	32.7305
1784	33.197
1768	33.4527
1752	33.5271
1736	33.6719
1720	34.1146
1704	34.1793
1688	34.2065
1672	34.3835
1656	34.6637
1640	34.6445
1624	34.6468
1608	34.8235
1592	34.973
1576	34.9599
1560	34.9724
1544	35.1211
1528	35.242
1512	35.2188
1496	35.1289
1480	35.2522
1464	35.2386
1448	35.0622
1432	35.2583
1416	35.2201
1400	35.1607
1384	34.9956
1368	35.2113
1352	35.3657
1336	34.9886
1320	34.8396
1304	35.0112
1288	34.8605
1272	34.656
1256	34.6219
1240	34.8613
1224	34.5615
1208	34.2709
1192	34.5003
1176	34.3746
1160	34.0815
1144	33.914
1128	33.9235
1112	33.9489
1096	33.4641
1080	33.2155
1064	33.3933
1048	33.209
1032	32.851
1016	32.4871
1000	32.8255
984	 32.6387
968	 32.1149
952	 31.9616
936	 32.0248
920	 31.7412
904	 31.1975
888	 31.2632
872	 31.0863
856	 30.6318
840	 30.2823
824	 30.078
808	 30.0468
792	 29.5706
776	 29.3166
760	 29.5152
744	 29.2481
728	 28.6522
712	 28.0724
696	 28.3214
680	 28.1179
664	 27.1992
648	 26.7814
632	 27.0335
616	 26.5424
600	 26.2303
584	 25.758
568	 26.0885
552	 25.5143
536	 24.4357
520	 24.2038
504	 24.1667
488	 23.662
472	 22.4233
456	 22.5399
440	 22.5331
424	 18.0466
408	 17.6508
392	 26.5733
376	 -7.628297
370	 -26.5445

File: LPE453_t121.asc
PE IR       SPECTRUM    SPECTRUM    ASCII       PEDS        1.60
  -1
LP9772~1.ASC
17/05/17
00:32:26.00
17/05/17
00:32:53.00
tln
$LPE453_t0121$<tbV0>[-13.0,13.0,8.0,0.0,27,1,0]
27.028
64

2002,4.07
MIRTGS : RIGHTBACK : INTERNAL 2
MIR : ON : INTERNAL 2
OPTKBR

0.200000
8
8.000000
FILLER
RATIO
SPECTRUM
UNLOCKED 256

DOUBLE
64
COMBINED
1
0
0

0.002000
RATIO

1
0
TRUE
51149
0
LEFT NOT FITTED RIGHT NOT FITTED 0
NONE
NONE
15600
12
4.427000
51148
TRUE
1 0 8 72 0 0 0 0

15798

#HDR
-1
-1
#GR
µM
%T
2.38419e-05
0.0
2.000000
0.002000
12515
8
34.0253
-4.918360
#DATA
2.000000	 0.035285
2.084000	 0.494540
2.168000	 0.528395
2.252000	 -1.079771
2.336000	 0.251672
2.420000	 0.007189
2.504000	 0.244527
2.588000	 0.141596
2.672000	 0.047585
2.756000	 0.086961
2.840000	 0.155135
2.924000	 0.083671
3.008000	 0.041258
3.092000	 0.036808
3.176000	 -0.054933
3.260000	 -0.096488
3.344000	 0.026966
3.428000	 0.027452
3.512000	 -0.048830
3.596000	 0.052502
3.680000	 0.075593
3.764000	 0.069541
3.848000	 -0.011072
3.932000	 0.047149
4.016000	 0.024499
4.100000	 -0.044293
4.184000	 -0.017505
4.268000	 0.183050
4.352000	 0.543851
4.436000	 1.279046
4.520000	 3.022471
4.604000	 5.807141
4.688000	 9.506597
4.772000	 13.7808
4.856000	 17.8746
4.940000	 21.3715
5.024000	 24.2943
5.108000	 26.3146
5.192000	 28.0999
5.276000	 29.2511
5.359999	 30.2829
5.444000	 30.9237
5.528000	 31.4837
5.612000	 31.8603
5.696000	 32.1871
5.780000	 32.3409
5.864000	 32.5605
5.948000	 32.7727
6.032000	 32.9561
6.116000	 33.0592
6.200000	 33.0145
6.284000	 33.2748
6.368000	 33.212
6.452000	 33.2725
6.536000	 33.5506
6.620000	 33.4027
6.704000	 33.3748
6.788000	 33.5712
6.872000	 33.4403
6.956000	 33.4753
7.040000	 33.6828
7.124000	 33.6077
7.208000	 33.6184
7.292000	 33.8027
7.376000	 33.724
7.460000	 33.6063
7.544000	 33.7451
7.628000	 33.8465
7.712000	 33.7738
7.796000	 33.676
7.880000	 33.7663
7.964000	 34.0204
8.048000	 33.9136
8.132000	 33.7954
8.216000	 33.8864
8.300000	 33.9175
8.384000	 33.9816
8.468000	 33.9049
8.552000	 33.7306
8.635999	 33.7651
8.719999	 33.8224
8.804000	 33.8024
8.888000	 33.7857
8.972000	 33.3388
9.056000	 33.2188
9.140000	 33.331
9.224000	 33.4533
9.308000	 33.4682
9.391999	 33.343
9.475999	 33.198
9.560000	 32.95
9.644000	 33.0924
9.728000	 33.2381
9.812000	 33.2224
9.896000	 32.8985
9.980000	 32.6512
10.064	32.6104
10.148	32.5188
10.232	32.6068
10.316	32.3865
10.4	32.3997
10.484	32.3424
10.568	32.2216
10.652	31.8874
10.736	31.7269
10.82	31.7665
10.904	31.6905
10.988	31.5639
11.072	31.6024
11.156	31.5762
11.24	31.2883
11.324	30.8598
11.408	30.7773
11.492	30.7129
11.576	30.5814
11.66	30.6695
11.744	30.6678
11.828	30.6786
11.912	30.543
11.996	30.3762
12.08	30.1651
12.164	29.8298
12.248	29.5832
12.332	29.5033
12.416	29.7686
12.5	29.7968
12.584	29.6282
12.668	29.3589
12.752	29.273
12.836	29.3029
12.92	29.2198
13.004	28.9815
13.088	28.6413
13.172	28.4425
13.256	28.405
13.34	28.3319
13.424	28.4088
13.508	28.4171
13.592	28.3842
13.676	28.3943
13.76	28.3288
13.844	28.0818
13.928	27.8312
14.012	27.7306
14.096	27.543
14.18	27.359
14.264	27.1806
14.348	27.0123
14.432	27.0271
14.516	27.103
14.6	27.1324
14.684	27.0704
14.768	26.9654
14.852	26.9358
14.936	26.9718
15.02	27.011
15.104	26.9694
15.188	26.8266
15.272	26.5678
15.356	26.1887
15.44	25.8964
15.524	25.8343
15.608	25.8367
15.692	25.717
15.776	25.4853
15.86	25.3384
15.944	25.4211
16.028	25.635
16.112	25.8106
16.196	25.8653
16.28	25.7935
16.364	25.6684
16.448	25.5549
16.532	25.423
16.616	25.2344
16.7	25.0072
16.784	24.7699
16.868	24.5552
16.952	24.4054
17.036	24.3781
17.12	24.5369
17.204	24.8367
17.288	25.0721
17.372	25.077
17.456	24.9162
17.54	24.7539
17.624	24.6453
17.708	24.5806
17.792	24.598
17.876	24.6961
17.96	24.7398
18.044	24.6064
18.128	24.3705
18.212	24.2251
18.296	24.2464
18.38	24.3174
18.464	24.297
18.548	24.1817
18.632	24.0626
18.716	23.9728
18.8	23.8387
18.884	23.5862
18.968	23.2528
19.052	22.9746
19.136	22.8598
19.22	22.8942
19.304	22.954
19.388	22.9218
19.472	22.7779
19.556	22.602
19.64	22.483
19.724	22.4417
19.808	22.4353
19.892	22.4294
19.976	22.441
20.06	22.5161
20.144	22.6751
20.228	22.8944
20.312	23.1294
20.396	23.3349
20.48	23.4547
20.564	23.4184
20.648	23.1775
20.732	22.7549
20.816	22.2416
20.9	21.7563
20.984	21.3881
21.068	21.1692
21.152	21.0799
21.236	21.0628
21.32	21.0445
21.404	20.9595
21.488	20.7827
21.572	20.5411
21.656	20.2971
21.74	20.1169
21.824	20.0491
21.908	20.1161
21.992	20.3135
22.076	20.6047
22.16	20.9146
22.244	21.1486
22.328	21.2333
22.412	21.1445
22.496	20.9302
22.58	20.6781
22.664	20.4712
22.748	20.3546
22.832	20.33
22.916	20.3753
23	20.484
23.084	20.657
23.168	20.8837
23.252	21.1198
23.336	21.2777
23.42	21.2602
23.504	21.0099
23.588	20.559
23.672	20.0199
23.756	19.5443
23.84	19.2591
23.924	19.2151
24.008	19.3702
24.092	19.6084
24.176	19.789
24.26	19.7882
24.344	19.5095
24.428	18.9101
24.512	18.0055
24.596	16.8706
24.68	15.6556
24.764	14.573
24.848	13.8085
24.932	13.4953
25.016	13.6426
25.1	14.0978
25.184	14.5981
25.268	14.8832
25.352	14.7841
25.436	14.3178
25.52	13.6704
25.604	13.0792
25.688	12.7985
25.772	12.9748
25.856	13.5779
25.94	14.3829
26.024	15.0797
26.108	15.4349
26.192	15.3415
26.276	14.8067
26.36	13.9489
26.444	12.827
26.528	11.3861
26.612	9.610365
26.696	7.428422
26.78	4.705332
26.864	1.499928
26.948	-1.911826
27.028	-4.918360