Folder: Masteroppgave/Bakgrunnsmateriale/MATLAB/FTIR/ftir_data/LPE453/Mapping_121 (part 36)

File: LPE453_t81_cm-1.asc
PE IR       SPECTRUM    SPECTRUM    ASCII       PEDS        1.60
  -1
LP5BD0~1.ASC
17/05/16
21:00:14.00
17/05/16
21:00:14.00
tln
$LPE453_t0081$<tbV0>[5.2,5.2,8.0,0.0,27,1,0]
370
64

2002,4.07
MIRTGS : RIGHTBACK : INTERNAL 2
MIR : ON : INTERNAL 2
OPTKBR

0.200000
8
8.000000
FILLER
RATIO
SPECTRUM
UNLOCKED 256

DOUBLE
64
COMBINED
1
0
0

1.000000
RATIO

1
0
TRUE
51149
0
LEFT NOT FITTED RIGHT NOT FITTED 0
NONE
NONE
15600
12
4.427000
51148
TRUE
1 0 8 72 0 0 0 0

15798

#HDR
-1
-1
#GR
CM-1
%T
2.38419e-05
0.0
5000
-1.000000
4631
8
31.7959
-15.8376
#DATA
5000	0.067949
4984	-0.225424
4968	0.116467
4952	-0.072717
4936	0.314879
4920	0.441098
4904	0.496053
4888	0.057053
4872	0.435853
4856	-0.248074
4840	0.141906
4824	0.092959
4808	0.233292
4792	0.310349
4776	0.159215
4760	-0.198101
4744	-0.211143
4728	0.753450
4712	-0.529980
4696	0.439953
4680	0.691723
4664	0.408005
4648	1.283264
4632	1.118183
4616	-0.887918
4600	-1.055073
4584	0.597810
4568	-0.116133
4552	0.165605
4536	0.237870
4520	0.051307
4504	-3.029513
4488	21.0454
4472	-1.261711
4456	0.138092
4440	-0.670409
4424	0.280451
4408	0.127792
4392	-0.002360
4376	0.570178
4360	0.391769
4344	0.358462
4328	0.146770
4312	0.375247
4296	0.019907
4280	-0.027346
4264	-0.109887
4248	0.177001
4232	0.234317
4216	0.105428
4200	0.081706
4184	0.389099
4168	0.130963
4152	-0.018978
4136	0.131177
4120	-0.073504
4104	0.123667
4088	0.141882
4072	0.048589
4056	0.152850
4040	-0.121593
4024	-0.084638
4008	0.106716
3992	0.141263
3976	-0.005054
3960	-0.063824
3944	-0.051617
3928	0.116252
3912	0.070405
3896	0.069808
3880	0.251674
3864	0.169634
3848	0.063991
3832	-0.040125
3816	0.010848
3800	0.041651
3784	0.109863
3768	0.083708
3752	-0.011324
3736	0.027680
3720	0.161361
3704	0.101900
3688	0.155830
3672	-0.060486
3656	0.069785
3640	-0.041079
3624	-0.047016
3608	0.139188
3592	0.100278
3576	0.178122
3560	0.068879
3544	0.016760
3528	0.013160
3512	-0.041007
3496	0.134420
3480	0.131821
3464	0.051450
3448	0.159001
3432	-0.021362
3416	0.016856
3400	0.087428
3384	0.077199
3368	0.032305
3352	-0.022840
3336	0.019192
3320	0.221514
3304	-0.035524
3288	0.020599
3272	0.086236
3256	0.114107
3240	0.021719
3224	-0.118088
3208	0.149178
3192	0.169396
3176	-0.056242
3160	-0.140285
3144	0.029587
3128	-0.029349
3112	0.064516
3096	-0.110673
3080	0.071787
3064	0.091338
3048	0.047278
3032	0.135445
3016	0.004720
3000	-0.051665
2984	-0.090146
2968	0.147366
2952	0.027203
2936	0.036597
2920	-0.046515
2904	0.063014
2888	-0.016641
2872	0.014376
2856	0.155520
2840	0.044298
2824	0.084495
2808	0.109219
2792	-0.000953
2776	0.029277
2760	0.085759
2744	-0.001430
2728	-0.014448
2712	0.015234
2696	0.048327
2680	0.015425
2664	0.023460
2648	0.078082
2632	-0.043416
2616	0.032901
2600	0.077533
2584	0.029134
2568	-0.054216
2552	0.015068
2536	0.024342
2520	0.110936
2504	-0.018429
2488	-0.116467
2472	0.039601
2456	0.059294
2440	-0.065779
2424	0.023984
2408	0.021719
2392	-0.036835
2376	0.040626
2360	0.087928
2344	0.081515
2328	-0.050878
2312	0.176787
2296	0.163888
2280	0.418949
2264	0.605154
2248	0.910353
2232	1.270127
2216	1.965332
2200	2.818036
2184	3.831076
2168	5.113196
2152	6.550526
2136	8.137798
2120	9.838366
2104	11.6736
2088	13.5123
2072	15.3503
2056	17.1952
2040	18.9387
2024	20.652
2008	22.0584
1992	23.3926
1976	24.5976
1960	25.6729
1944	26.5587
1928	27.3541
1912	28.1004
1896	28.7042
1880	29.261
1864	29.6069
1848	29.9931
1832	30.4063
1816	30.5524
1800	30.8974
1784	30.9832
1768	31.2773
1752	31.2991
1736	31.4445
1720	31.3858
1704	31.6389
1688	31.7067
1672	31.6402
1656	31.7801
1640	31.6868
1624	31.6523
1608	31.6155
1592	31.673
1576	31.7218
1560	31.6754
1544	31.6304
1528	31.5461
1512	31.3714
1496	31.3264
1480	31.321
1464	31.3137
1448	31.0516
1432	31.1694
1416	31.2361
1400	31.1861
1384	31.1862
1368	31.0312
1352	30.9199
1336	31.0477
1320	30.8352
1304	30.7607
1288	30.7587
1272	30.6587
1256	30.5703
1240	30.6128
1224	30.3751
1208	30.2964
1192	30.4016
1176	30.2592
1160	29.9701
1144	30.0055
1128	29.8511
1112	29.747
1096	29.5132
1080	29.4933
1064	29.4175
1048	29.2046
1032	29.1311
1016	28.9563
1000	28.9411
984	 28.5447
968	 28.5691
952	 28.5111
936	 28.0009
920	 28.0155
904	 27.7809
888	 27.4647
872	 27.3633
856	 27.2114
840	 27.0094
824	 26.6234
808	 26.3441
792	 26.0786
776	 25.6995
760	 25.5388
744	 25.2074
728	 24.8926
712	 24.6712
696	 24.0127
680	 23.6641
664	 23.4751
648	 22.9366
632	 22.7749
616	 22.2472
600	 21.441
584	 21.179
568	 21.2828
552	 20.3024
536	 20.1112
520	 20.0221
504	 18.9373
488	 18.0152
472	 18.426
456	 16.5933
440	 15.9258
424	 13.7408
408	 16.5683
392	 22.6302
376	 -15.7162
370	 -5.098295

File: LPE453_t82.asc
PE IR       SPECTRUM    SPECTRUM    ASCII       PEDS        1.60
  -1
LPC3B1~1.ASC
17/05/16
21:04:51.00
17/05/16
21:05:17.00
tln
$LPE453_t0082$<tbV0>[2.6,5.2,8.0,0.0,27,1,0]
27.028
64

2002,4.07
MIRTGS : RIGHTBACK : INTERNAL 2
MIR : ON : INTERNAL 2
OPTKBR

0.200000
8
8.000000
FILLER
RATIO
SPECTRUM
UNLOCKED 256

DOUBLE
64
COMBINED
1
0
0

0.002000
RATIO

1
0
TRUE
51149
0
LEFT NOT FITTED RIGHT NOT FITTED 0
NONE
NONE
15600
12
4.427000
51148
TRUE
1 0 8 72 0 0 0 0

15798

#HDR
-1
-1
#GR
µM
%T
2.38419e-05
0.0
2.000000
0.002000
12515
8
33.0471
-1.408590
#DATA
2.000000	 -0.358366
2.084000	 0.416546
2.168000	 0.204708
2.252000	 -1.278204
2.336000	 0.125085
2.420000	 0.067642
2.504000	 0.286513
2.588000	 0.060790
2.672000	 0.074234
2.756000	 0.085739
2.840000	 0.092591
2.924000	 0.061110
3.008000	 0.097871
3.092000	 -0.046164
3.176000	 0.149014
3.260000	 0.153204
3.344000	 -0.035691
3.428000	 -0.041502
3.512000	 -0.030627
3.596000	 0.040484
3.680000	 0.133673
3.764000	 0.019223
3.848000	 0.105875
3.932000	 0.036959
4.016000	 0.011139
4.100000	 0.091689
4.184000	 0.082362
4.268000	 0.163721
4.352000	 0.341694
4.436000	 1.109161
4.520000	 2.889912
4.604000	 5.831912
4.688000	 9.880813
4.772000	 14.5473
4.856000	 18.8252
4.940000	 22.3317
5.024000	 25.2302
5.108000	 27.3553
5.192000	 29.047
5.276000	 30.2548
5.359999	 31.1009
5.444000	 31.5413
5.528000	 32.0659
5.612000	 32.25
5.696000	 32.5873
5.780000	 32.6074
5.864000	 32.8934
5.948000	 32.802
6.032000	 32.9491
6.116000	 32.8402
6.200000	 32.8015
6.284000	 32.793
6.368000	 33.019
6.452000	 32.7951
6.536000	 32.7473
6.620000	 32.8685
6.704000	 32.4428
6.788000	 32.6567
6.872000	 32.4526
6.956000	 32.2086
7.040000	 32.4538
7.124000	 32.3658
7.208000	 32.1914
7.292000	 32.4497
7.376000	 32.404
7.460000	 32.0824
7.544000	 31.9026
7.628000	 32.1324
7.712000	 31.9792
7.796000	 31.6717
7.880000	 31.8749
7.964000	 31.9521
8.048000	 31.7271
8.132000	 31.4794
8.216000	 31.6908
8.300000	 31.6732
8.384000	 31.372
8.468000	 31.3332
8.552000	 31.4378
8.635999	 31.5256
8.719999	 31.1031
8.804000	 30.939
8.888000	 30.8237
8.972000	 31.3053
9.056000	 31.1458
9.140000	 30.8866
9.224000	 30.5764
9.308000	 30.7015
9.391999	 30.834
9.475999	 30.7128
9.560000	 30.2958
9.644000	 30.188
9.728000	 30.0759
9.812000	 30.4559
9.896000	 30.4007
9.980000	 30.2188
10.064	30.0773
10.148	29.8339
10.232	29.52
10.316	29.6749
10.4	29.7873
10.484	29.8768
10.568	29.6264
10.652	29.206
10.736	28.9756
10.82	28.9425
10.904	29.0365
10.988	29.1614
11.072	29.1844
11.156	28.9428
11.24	28.642
11.324	28.509
11.408	28.2367
11.492	28.2306
11.576	28.3425
11.66	28.4807
11.744	28.6045
11.828	28.434
11.912	28.1996
11.996	27.8833
12.08	27.5091
12.164	27.2054
12.248	27.2747
12.332	27.4798
12.416	27.5878
12.5	27.5731
12.584	27.5421
12.668	27.4437
12.752	27.0848
12.836	26.8057
12.92	26.7298
13.004	26.5584
13.088	26.6408
13.172	26.7547
13.256	26.816
13.34	26.8628
13.424	26.8542
13.508	26.9389
13.592	26.7535
13.676	26.228
13.76	25.955
13.844	25.8728
13.928	25.7184
14.012	25.6218
14.096	25.5858
14.18	25.526
14.264	25.327
14.348	25.0973
14.432	25.0741
14.516	25.1343
14.6	25.0341
14.684	24.8477
14.768	24.6715
14.852	24.5781
14.936	24.6643
15.02	24.808
15.104	24.8012
15.188	24.6111
15.272	24.4614
15.356	24.4992
15.44	24.5012
15.524	24.2659
15.608	23.9705
15.692	23.8729
15.776	23.8225
15.86	23.5346
15.944	23.2146
16.028	23.1652
16.112	23.2146
16.196	23.1518
16.28	23.1043
16.364	23.2194
16.448	23.4207
16.532	23.5035
16.616	23.3963
16.7	23.2593
16.784	23.2253
16.868	23.2076
16.952	23.0641
17.036	22.8058
17.12	22.5661
17.204	22.4366
17.288	22.368
17.372	22.2554
17.456	22.0816
17.54	21.9099
17.624	21.7658
17.708	21.6332
17.792	21.5508
17.876	21.5983
17.96	21.7806
18.044	22.0148
18.128	22.2146
18.212	22.324
18.296	22.2845
18.38	22.063
18.464	21.7168
18.548	21.3736
18.632	21.1325
18.716	21.0122
18.8	20.9871
18.884	21.0189
18.968	21.0359
19.052	20.9397
19.136	20.6955
19.22	20.3873
19.304	20.1439
19.388	20.0261
19.472	20.012
19.556	20.0653
19.64	20.1784
19.724	20.3427
19.808	20.5128
19.892	20.619
19.976	20.6098
20.06	20.4839
20.144	20.3045
20.228	20.1766
20.312	20.1702
20.396	20.2527
20.48	20.3069
20.564	20.229
20.648	20.0148
20.732	19.7529
20.816	19.5358
20.9	19.3851
20.984	19.2591
21.068	19.1121
21.152	18.9452
21.236	18.8029
21.32	18.7453
21.404	18.8024
21.488	18.941
21.572	19.0731
21.656	19.1002
21.74	18.9741
21.824	18.7423
21.908	18.5287
21.992	18.4454
22.076	18.5197
22.16	18.6753
22.244	18.7825
22.328	18.7513
22.412	18.5644
22.496	18.2699
22.58	17.9476
22.664	17.6728
22.748	17.4958
22.832	17.4383
22.916	17.493
23	17.5957
23.084	17.6574
23.168	17.5992
23.252	17.3992
23.336	17.1029
23.42	16.8264
23.504	16.6876
23.588	16.7532
23.672	17.0123
23.756	17.3627
23.84	17.6384
23.924	17.6658
24.008	17.3172
24.092	16.5623
24.176	15.5335
24.26	14.5092
24.344	13.8849
24.428	13.9849
24.512	14.9104
24.596	16.4452
24.68	18.0979
24.764	19.2703
24.848	19.5104
24.932	18.6129
25.016	16.7165
25.1	14.2067
25.184	11.6589
25.268	9.652567
25.352	8.637029
25.436	8.808935
25.52	10.0812
25.604	12.2067
25.688	14.8702
25.772	17.7506
25.856	20.5727
25.94	23.2127
26.024	25.677
26.108	28.017
26.192	30.1666
26.276	31.8896
26.36	32.7491
26.444	32.5395
26.528	31.389
26.612	29.7947
26.696	28.1818
26.78	26.6279
26.864	24.8326
26.948	22.5428
27.028	20.2991

File: LPE453_t82_cm-1.asc
PE IR       SPECTRUM    SPECTRUM    ASCII       PEDS        1.60
  -1
LP5B50~1.ASC
17/05/16
21:04:51.00
17/05/16
21:04:51.00
tln
$LPE453_t0082$<tbV0>[2.6,5.2,8.0,0.0,27,1,0]
370
64

2002,4.07
MIRTGS : RIGHTBACK : INTERNAL 2
MIR : ON : INTERNAL 2
OPTKBR

0.200000
8
8.000000
FILLER
RATIO
SPECTRUM
UNLOCKED 256

DOUBLE
64
COMBINED
1
0
0

1.000000
RATIO

1
0
TRUE
51149
0
LEFT NOT FITTED RIGHT NOT FITTED 0
NONE
NONE
15600
12
4.427000
51148
TRUE
1 0 8 72 0 0 0 0

15798

#HDR
-1
-1
#GR
CM-1
%T
2.38419e-05
0.0
5000
-1.000000
4631
8
33.047
-1.407837
#DATA
5000	-0.358366
4984	0.470376
4968	0.316429
4952	0.361442
4936	0.285530
4920	0.026082
4904	0.035858
4888	0.200128
4872	0.293588
4856	0.407123
4840	0.213718
4824	-0.065898
4808	-0.068616
4792	0.577640
4776	0.344133
4760	0.244927
4744	0.399923
4728	0.382542
4712	-0.068306
4696	0.920915
4680	1.078939
4664	0.938725
4648	0.239038
4632	0.140976
4616	0.398349
4600	0.827002
4584	0.848388
4568	-0.413465
4552	0.059795
4536	-0.231909
4520	0.394296
4504	1.902580
4488	24.4859
4472	-0.252294
4456	-0.849413
4440	-1.273941
4424	-0.139760
4408	-0.053548
4392	0.708007
4376	0.797438
4360	0.412845
4344	0.278568
4328	0.813627
4312	0.016307
4296	-0.221228
4280	0.100612
4264	0.038695
4248	-0.036931
4232	0.279998
4216	0.157189
4200	0.141882
4184	0.449132
4168	0.392580
4152	-0.055575
4136	0.054049
4120	0.190114
4104	0.236201
4088	0.004601
4072	0.030779
4056	-0.135350
4040	-0.017070
4024	0.050091
4008	0.053286
3992	0.250840
3976	0.128221
3960	0.056409
3944	0.140810
3928	0.066208
3912	0.127863
3896	0.159549
3880	0.105667
3864	0.060415
3848	-0.051045
3832	0.111603
3816	-0.006818
3800	0.394940
3784	-0.026822
3768	0.019764
3752	0.048780
3736	-0.017118
3720	0.187730
3704	-0.003433
3688	0.038671
3672	0.109219
3656	0.015997
3640	0.112295
3624	0.136208
3608	0.003099
3592	-0.030040
3576	0.178647
3560	-0.029468
3544	0.049972
3528	0.211095
3512	0.073528
3496	0.202155
3480	0.057244
3464	-0.002861
3448	-0.145196
3432	0.038242
3416	0.053954
3400	0.256037
3384	0.057768
3368	0.096035
3352	0.002121
3336	0.106191
3320	0.082468
3304	-0.062108
3288	0.015807
3272	0.069475
3256	0.109744
3240	0.026988
3224	-0.175976
3208	0.099325
3192	0.096988
3176	0.090289
3160	0.037598
3144	0.188422
3128	0.175809
3112	0.054216
3096	0.172281
3080	-0.029730
3064	0.123119
3048	-0.077581
3032	0.060415
3016	0.184679
3000	-0.041794
2984	0.045251
2968	0.064373
2952	0.078248
2936	0.000047
2920	-0.060915
2904	0.004148
2888	0.081229
2872	0.171136
2856	0.072574
2840	-0.013065
2824	0.000739
2808	0.157952
2792	0.110197
2776	0.100302
2760	0.012016
2744	0.110292
2728	0.190472
2712	0.093078
2696	-0.112056
2680	0.067901
2664	0.092887
2648	0.047421
2632	-0.004792
2616	0.018858
2600	0.105834
2584	0.012922
2568	0.020956
2552	0.048637
2536	0.105047
2520	-0.051808
2504	-0.021982
2488	-0.035738
2472	-0.026607
2456	-0.007748
2440	0.084710
2424	0.074720
2408	0.047755
2392	0.060963
2376	0.066518
2360	0.047326
2344	0.164842
2328	0.147342
2312	0.171542
2296	0.376892
2280	0.668072
2264	0.890779
2248	1.253962
2232	1.929283
2216	2.720236
2200	3.588461
2184	4.788327
2168	6.249833
2152	7.876849
2136	9.539389
2120	11.4293
2104	13.5115
2088	15.4911
2072	17.4105
2056	19.1954
2040	20.8393
2024	22.3625
2008	23.8951
1992	25.0978
1976	26.1609
1960	27.2119
1944	28.1814
1928	28.9714
1912	29.522
1896	30.2469
1880	30.5782
1864	31.1602
1848	31.3791
1832	31.6367
1816	32.0196
1800	32.241
1784	32.2315
1768	32.4693
1752	32.6252
1736	32.5518
1720	32.7232
1704	32.8624
1688	32.7225
1672	32.8695
1656	32.9667
1640	32.7685
1624	32.9222
1608	32.7993
1592	32.7938
1576	32.8754
1560	32.9605
1544	32.7351
1528	32.7391
1512	32.8477
1496	32.5319
1480	32.5692
1464	32.5862
1448	32.59
1432	32.2366
1416	32.5159
1400	32.2954
1384	32.1283
1368	32.5182
1352	32.3498
1336	32.0197
1320	31.9864
1304	32.101
1288	31.6822
1272	31.8213
1256	31.9535
1240	31.6849
1224	31.6126
1208	31.7484
1192	31.3509
1176	31.2921
1160	31.5649
1144	31.0756
1128	30.7906
1112	31.3134
1096	30.9563
1080	30.5657
1064	30.8398
1048	30.3233
1032	30.0835
1016	30.4848
1000	30.1815
984	 29.7649
968	 29.6818
952	 29.837
936	 29.0721
920	 28.9826
904	 29.1878
888	 28.6364
872	 28.2164
856	 28.5281
840	 28.2196
824	 27.2907
808	 27.5459
792	 27.5147
776	 26.7751
760	 26.7438
744	 26.8658
728	 25.9937
712	 25.6045
696	 25.0699
680	 24.7998
664	 24.8317
648	 24.5106
632	 23.691
616	 23.1153
600	 23.304
584	 22.5588
568	 21.7961
552	 22.1903
536	 21.0853
520	 20.3503
504	 20.5663
488	 20.3053
472	 18.8802
456	 18.4912
440	 17.5288
424	 16.7471
408	 14.8775
392	 9.884667
376	 30.1073
370	 20.2991

File: LPE453_t83.asc
PE IR       SPECTRUM    SPECTRUM    ASCII       PEDS        1.60
  -1
LPC3B5~1.ASC
17/05/16
21:09:28.00
17/05/16
21:09:54.00
tln
$LPE453_t0083$<tbV0>[0.0,5.2,8.0,0.0,27,1,0]
27.028
64

2002,4.07
MIRTGS : RIGHTBACK : INTERNAL 2
MIR : ON : INTERNAL 2
OPTKBR

0.200000
8
8.000000
FILLER
RATIO
SPECTRUM
UNLOCKED 256

DOUBLE
64
COMBINED
1
0
0

0.002000
RATIO

1
0
TRUE
51149
0
LEFT NOT FITTED RIGHT NOT FITTED 0
NONE
NONE
15600
12
4.427000
51148
TRUE
1 0 8 72 0 0 0 0

15798

#HDR
-1
-1
#GR
µM
%T
2.38419e-05
0.0
2.000000
0.002000
12515
8
35.2099
-2.187054
#DATA
2.000000	 0.232791
2.084000	 0.563605
2.168000	 -0.251065
2.252000	 -0.776325
2.336000	 -0.191921
2.420000	 0.227777
2.504000	 -0.128676
2.588000	 0.114854
2.672000	 0.102443
2.756000	 0.072683
2.840000	 0.115458
2.924000	 0.063793
3.008000	 0.037752
3.092000	 0.059908
3.176000	 0.217521
3.260000	 -0.108154
3.344000	 0.086275
3.428000	 -0.044547
3.512000	 -0.043617
3.596000	 0.031659
3.680000	 -0.007391
3.764000	 -0.098391
3.848000	 0.061027
3.932000	 0.115363
4.016000	 0.116092
4.100000	 0.012561
4.184000	 0.023015
4.268000	 0.196247
4.352000	 0.581319
4.436000	 1.614805
4.520000	 3.830298
4.604000	 7.255671
4.688000	 11.7775
4.772000	 16.5271
4.856000	 20.946
4.940000	 24.6166
5.024000	 27.3681
5.108000	 29.7555
5.192000	 31.0912
5.276000	 32.4031
5.359999	 33.2061
5.444000	 33.5025
5.528000	 34.304
5.612000	 34.2378
5.696000	 34.8146
5.780000	 34.6375
5.864000	 35.0261
5.948000	 34.8634
6.032000	 34.9098
6.116000	 35.0808
6.200000	 34.6633
6.284000	 35.0275
6.368000	 34.7868
6.452000	 34.6316
6.536000	 34.9949
6.620000	 34.6382
6.704000	 34.714
6.788000	 34.9773
6.872000	 34.3033
6.956000	 34.5695
7.040000	 34.8644
7.124000	 34.3118
7.208000	 34.2161
7.292000	 34.6681
7.376000	 34.4315
7.460000	 33.8685
7.544000	 34.2064
7.628000	 34.4821
7.712000	 34.0781
7.796000	 33.6988
7.880000	 34.0954
7.964000	 34.3925
8.048000	 33.8593
8.132000	 33.4845
8.216000	 33.6512
8.300000	 34.0456
8.384000	 33.9002
8.468000	 33.3572
8.552000	 33.0711
8.635999	 33.6162
8.719999	 33.6426
8.804000	 33.6318
8.888000	 33.0105
8.972000	 32.8567
9.056000	 33.1431
9.140000	 33.4527
9.224000	 33.2982
9.308000	 32.9289
9.391999	 32.5831
9.475999	 32.3982
9.560000	 32.8298
9.644000	 32.9963
9.728000	 32.809
9.812000	 32.6103
9.896000	 32.1262
9.980000	 32.0104
10.064	32.1884
10.148	32.5649
10.232	32.6743
10.316	32.2846
10.4	31.8161
10.484	31.507
10.568	31.3611
10.652	31.6375
10.736	31.8358
10.82	32.0282
10.904	31.8849
10.988	31.4965
11.072	31.0878
11.156	30.6502
11.24	30.5034
11.324	30.8181
11.408	31.0428
11.492	31.2822
11.576	31.3217
11.66	31.2011
11.744	30.7363
11.828	30.3877
11.912	30.1961
11.996	29.9895
12.08	30.0902
12.164	30.4734
12.248	30.492
12.332	30.3423
12.416	30.4845
12.5	30.2931
12.584	29.7138
12.668	29.281
12.752	29.0106
12.836	28.9493
12.92	29.0092
13.004	29.1272
13.088	29.2775
13.172	29.5109
13.256	29.5411
13.34	29.3714
13.424	29.2277
13.508	29.0247
13.592	28.6958
13.676	28.2764
13.76	28.0428
13.844	27.9679
13.928	27.9484
14.012	28.0994
14.096	28.3752
14.18	28.5741
14.264	28.4358
14.348	28.1261
14.432	28.0301
14.516	28.099
14.6	27.974
14.684	27.6421
14.768	27.2402
14.852	26.9046
14.936	26.8677
15.02	27.0404
15.104	27.0998
15.188	27.0251
15.272	27.0027
15.356	27.05
15.44	27.1215
15.524	27.2355
15.608	27.3464
15.692	27.3624
15.776	27.2141
15.86	26.8684
15.944	26.4026
16.028	25.9793
16.112	25.6979
16.196	25.5828
16.28	25.6366
16.364	25.7779
16.448	25.8357
16.532	25.7258
16.616	25.5534
16.7	25.4832
16.784	25.5886
16.868	25.8287
16.952	26.057
17.036	26.0808
17.12	25.8429
17.204	25.496
17.288	25.1971
17.372	24.9179
17.456	24.5861
17.54	24.2808
17.624	24.1142
17.708	24.0532
17.792	24.0076
17.876	23.9696
17.96	23.9811
18.044	24.0597
18.128	24.2113
18.212	24.3998
18.296	24.5189
18.38	24.4967
18.464	24.3982
18.548	24.3499
18.632	24.3916
18.716	24.4469
18.8	24.4253
18.884	24.3127
18.968	24.1661
19.052	24.0469
19.136	23.9578
19.22	23.8312
19.304	23.5947
19.388	23.2458
19.472	22.8614
19.556	22.5413
19.64	22.3475
19.724	22.2945
19.808	22.3735
19.892	22.5561
19.976	22.7664
20.06	22.8817
20.144	22.8021
20.228	22.5431
20.312	22.2514
20.396	22.1072
20.48	22.195
20.564	22.4535
20.648	22.7424
20.732	22.9514
20.816	23.051
20.9	23.0703
20.984	23.033
21.068	22.9298
21.152	22.7342
21.236	22.4343
21.32	22.0443
21.404	21.5973
21.488	21.1378
21.572	20.7103
21.656	20.3452
21.74	20.0606
21.824	19.8691
21.908	19.7913
21.992	19.8458
22.076	20.0178
22.16	20.2435
22.244	20.4227
22.328	20.474
22.412	20.386
22.496	20.2221
22.58	20.0609
22.664	19.9414
22.748	19.8435
22.832	19.7301
22.916	19.6013
23	19.5257
23.084	19.6131
23.168	19.95
23.252	20.5395
23.336	21.312
23.42	22.1348
23.504	22.859
23.588	23.3505
23.672	23.5052
23.756	23.2605
23.84	22.6625
23.924	21.8498
24.008	21.0184
24.092	20.3649
24.176	19.9893
24.26	19.8576
24.344	19.8373
24.428	19.814
24.512	19.7974
24.596	19.9381
24.68	20.4781
24.764	21.6186
24.848	23.3685
24.932	25.4788
25.016	27.4929
25.1	28.9424
25.184	29.3514
25.268	28.4086
25.352	26.0559
25.436	22.5216
25.52	18.2574
25.604	13.7728
25.688	9.620553
25.772	6.275127
25.856	4.034415
25.94	2.962382
26.024	2.899178
26.108	3.521703
26.192	4.405015
26.276	5.121875
26.36	5.317187
26.444	4.753671
26.528	3.436189
26.612	1.601360
26.696	-0.130314
26.78	-0.861883
26.864	0.298637
26.948	3.819807
27.028	9.101724

File: LPE453_t83_cm-1.asc
PE IR       SPECTRUM    SPECTRUM    ASCII       PEDS        1.60
  -1
LP5BD5~1.ASC
17/05/16
21:09:28.00
17/05/16
21:09:28.00
tln
$LPE453_t0083$<tbV0>[0.0,5.2,8.0,0.0,27,1,0]
370
64

2002,4.07
MIRTGS : RIGHTBACK : INTERNAL 2
MIR : ON : INTERNAL 2
OPTKBR

0.200000
8
8.000000
FILLER
RATIO
SPECTRUM
UNLOCKED 256

DOUBLE
64
COMBINED
1
0
0

1.000000
RATIO

1
0
TRUE
51149
0
LEFT NOT FITTED RIGHT NOT FITTED 0
NONE
NONE
15600
12
4.427000
51148
TRUE
1 0 8 72 0 0 0 0

15798

#HDR
-1
-1
#GR
CM-1
%T
2.38419e-05
0.0
5000
-1.000000
4631
8
35.2099
-2.217388
#DATA
5000	0.232791
4984	0.300693
4968	0.391483
4952	0.193023
4936	0.429034
4920	0.222158
4904	-0.214076
4888	-0.000524
4872	0.222110
4856	0.226807
4840	0.161933
4824	0.762343
4808	0.486421
4792	0.274538
4776	0.479936
4760	0.290679
4744	0.199985
4728	0.571393
4712	0.132822
4696	0.413846
4680	-0.891447
4664	-1.330852
4648	0.001335
4632	0.498127
4616	-0.257492
4600	0.031280
4584	-0.514674
4568	-1.005005
4552	-0.249457
4536	-1.509189
4520	-0.423955
4504	4.259324
4488	17.87
4472	-0.649785
4456	-1.432728
4440	-0.744032
4424	-0.396394
4408	0.185871
4392	0.673913
4376	0.931620
4360	0.866746
4344	0.345826
4328	0.604557
4312	0.638628
4296	0.296831
4280	-0.192689
4264	0.076460
4248	0.081539
4232	0.240492
4216	0.461959
4200	0.135540
4184	0.023388
4168	0.615549
4152	0.207853
4136	0.283837
4120	0.231790
4104	-0.045442
4088	-0.051403
4072	0.174736
4056	0.200033
4040	0.110316
4024	-0.035214
4008	-0.018644
3992	-0.141787
3976	0.175476
3960	0.159287
3944	0.012993
3928	0.043797
3912	-0.016880
3896	-0.114059
3880	0.053596
3864	0.115513
3848	-0.026607
3832	0.145840
3816	0.025987
3800	-0.012016
3784	0.007820
3768	0.003743
3752	0.100421
3736	0.097131
3720	-0.017881
3704	0.112271
3688	0.212717
3672	0.057053
3656	0.022530
3640	-0.107312
3624	0.107455
3608	0.190973
3592	0.039482
3576	-0.100946
3560	0.159049
3544	0.132799
3528	0.050115
3512	0.190067
3496	0.183582
3480	-0.049614
3464	0.186729
3448	0.207710
3432	-0.150084
3416	0.085759
3400	0.132918
3384	0.066089
3368	0.093173
3352	0.026917
3336	0.141191
3320	0.027036
3304	0.039672
3288	0.113606
3272	-0.067234
3256	0.006985
3240	0.133752
3224	0.120282
3208	0.079178
3192	0.061678
3176	-0.043535
3160	0.260281
3144	0.165748
3128	-0.143575
3112	0.160551
3096	-0.042319
3080	0.068879
3064	-0.081562
3048	0.191521
3032	-0.039982
3016	0.005531
3000	-0.078248
2984	0.021934
2968	0.112652
2952	0.050187
2936	-0.101280
2920	-0.053358
2904	0.074982
2888	0.036597
2872	0.015330
2856	0.006604
2840	-0.014495
2824	0.058293
2808	-0.002908
2792	0.049209
2776	0.055813
2760	0.054216
2744	0.007200
2728	0.057411
2712	0.043964
2696	0.095438
2680	0.045895
2664	-0.035905
2648	0.032234
2632	-0.078773
2616	0.012826
2600	0.052952
2584	0.072479
2568	0.085425
2552	-0.094389
2536	0.073122
2520	0.095701
2504	0.002360
2488	0.051236
2472	0.047373
2456	-0.015664
2440	0.014829
2424	-0.076603
2408	-0.000190
2392	-0.013065
2376	0.050425
2360	0.154638
2344	0.186753
2328	0.255751
2312	0.550341
2296	0.608825
2280	0.897574
2264	1.311612
2248	1.871371
2232	2.532720
2216	3.562951
2200	4.610514
2184	6.082820
2168	7.620120
2152	9.401988
2136	11.4184
2120	13.3632
2104	15.5205
2088	17.4778
2072	19.4458
2056	21.278
2040	23.1176
2024	24.6467
2008	26.1437
1992	27.2478
1976	28.432
1960	29.6323
1944	30.2706
1928	30.9657
1912	31.9047
1896	32.3897
1880	32.5972
1864	33.2872
1848	33.6422
1832	33.5988
1816	34.0089
1800	34.5862
1784	34.3055
1768	34.4784
1752	34.8847
1736	34.6826
1720	34.6499
1704	35.0594
1688	35.0594
1672	34.6952
1656	34.9442
1640	35.1997
1624	34.8363
1608	34.6448
1592	35.0158
1576	34.9456
1560	34.6685
1544	34.8372
1528	34.9687
1512	34.6668
1496	34.5285
1480	34.9178
1464	34.7132
1448	34.1924
1432	34.7849
1416	34.8233
1400	34.2479
1384	34.3421
1368	34.7063
1352	34.2231
1336	33.8666
1320	34.4038
1304	34.3579
1288	33.785
1272	33.9523
1256	34.3949
1240	33.772
1224	33.4339
1208	33.9636
1192	33.8645
1176	33.1561
1160	33.5213
1144	33.7022
1128	33.1369
1112	32.9093
1096	33.4093
1080	33.191
1064	32.5637
1048	32.732
1032	32.9207
1016	32.4506
1000	32.0628
984	 32.6029
968	 32.1855
952	 31.4305
936	 31.6939
920	 32.0038
904	 31.1393
888	 30.5733
872	 31.2305
856	 31.099
840	 30.2159
824	 30.3548
808	 30.4049
792	 29.4717
776	 28.9752
760	 29.4764
744	 29.1955
728	 28.0813
712	 28.1993
696	 28.0755
680	 27.5413
664	 27.0945
648	 27.1132
632	 27.0443
616	 25.5879
600	 25.4913
584	 25.8301
568	 24.1382
552	 24.1855
536	 24.4116
520	 23.808
504	 22.4364
488	 22.2236
472	 22.6237
456	 19.7926
440	 19.8679
424	 23.3381
408	 19.7964
392	 18.7733
376	 1.967668
370	 9.101724