Folder: Masteroppgave/Bakgrunnsmateriale/MATLAB/FTIR/ftir_data/LPE453/Mapping_121 (part 32)

File: LPE453_t71_cm-1.asc
PE IR       SPECTRUM    SPECTRUM    ASCII       PEDS        1.60
  -1
LPDAD0~1.ASC
17/05/16
20:13:31.00
17/05/16
20:13:31.00
tln
$LPE453_t0071$<tbV0>[2.6,2.6,8.0,0.0,27,1,0]
370
64

2002,4.07
MIRTGS : RIGHTBACK : INTERNAL 2
MIR : ON : INTERNAL 2
OPTKBR

0.200000
8
8.000000
FILLER
RATIO
SPECTRUM
UNLOCKED 256

DOUBLE
64
COMBINED
1
0
0

1.000000
RATIO

1
0
TRUE
51149
0
LEFT NOT FITTED RIGHT NOT FITTED 0
NONE
NONE
15600
12
4.427000
51148
TRUE
1 0 8 72 0 0 0 0

15798

#HDR
-1
-1
#GR
CM-1
%T
2.38419e-05
0.0
5000
-1.000000
4631
8
29.7876
-31.8484
#DATA
5000	0.293374
4984	0.726199
4968	-0.336074
4952	0.548768
4936	0.035762
4920	-0.058770
4904	0.365591
4888	0.053143
4872	0.167298
4856	-0.168299
4840	0.692653
4824	0.043201
4808	0.350570
4792	0.125217
4776	-0.044894
4760	-0.359702
4744	-0.079178
4728	-0.607728
4712	0.647354
4696	2.230930
4680	-0.038528
4664	1.480317
4648	1.146793
4632	0.368523
4616	0.667262
4600	0.340461
4584	0.212502
4568	0.461030
4552	0.034689
4536	-0.419449
4520	-0.649046
4504	-0.131249
4488	20.8035
4472	0.066542
4456	-1.336789
4440	-1.230144
4424	-0.361323
4408	0.266957
4392	0.663852
4376	0.637936
4360	0.646805
4344	0.330996
4328	0.252723
4312	-0.064563
4296	-0.023508
4280	0.063991
4264	-0.293374
4248	0.180387
4232	0.236535
4216	0.289869
4200	0.395250
4184	-0.181460
4168	0.146365
4152	0.123834
4136	0.130724
4120	-0.063896
4104	0.100445
4088	0.061655
4072	-0.101280
4056	0.115799
4040	0.082445
4024	-0.013399
4008	0.120353
3992	0.249958
3976	-0.021767
3960	0.099182
3944	0.036644
3928	0.129675
3912	0.089073
3896	0.050878
3880	0.046110
3864	0.062346
3848	0.098824
3832	0.166130
3816	0.151991
3800	0.197696
3784	0.134873
3768	0.051331
3752	0.048160
3736	0.050806
3720	0.018572
3704	0.176739
3688	0.069808
3672	0.026178
3656	0.031328
3640	-0.075268
3624	0.043201
3608	0.175762
3592	0.038957
3576	0.149822
3560	-0.041031
3544	0.199747
3528	0.043821
3512	-0.060963
3496	0.146126
3480	-0.039124
3464	-0.180792
3448	0.058174
3432	0.066995
3416	0.065350
3400	0.103640
3384	-0.037217
3368	0.063705
3352	-0.014734
3336	0.094580
3320	0.045204
3304	0.082564
3288	0.060629
3272	-0.005483
3256	0.075435
3240	0.012946
3224	0.053548
3208	0.187325
3192	-0.029993
3176	0.045680
3160	0.055384
3144	0.035238
3128	0.021791
3112	0.095105
3096	-0.065445
3080	0.209760
3064	0.046825
3048	0.015401
3032	0.060987
3016	0.059700
3000	0.098252
2984	-0.006103
2968	-0.032138
2952	-0.079894
2936	0.110530
2920	0.071859
2904	-0.008511
2888	0.058197
2872	-0.033020
2856	-0.008964
2840	0.089335
2824	0.094318
2808	-0.072884
2792	0.055480
2776	-0.050568
2760	-0.003361
2744	0.027656
2728	-0.035047
2712	-0.002694
2696	0.007033
2680	-0.019717
2664	0.026011
2648	-0.062704
2632	0.122857
2616	-0.009536
2600	0.029754
2584	-0.034856
2568	-0.018715
2552	0.139713
2536	-0.004792
2520	0.061535
2504	0.022435
2488	0.127935
2472	0.130724
2456	-0.039076
2440	-0.009083
2424	-0.148653
2408	0.083422
2392	-0.007176
2376	-0.001168
2360	-0.079631
2344	-0.000715
2328	-0.034475
2312	0.163412
2296	0.183796
2280	0.260806
2264	0.683546
2248	0.726604
2232	1.125597
2216	1.723980
2200	2.400422
2184	3.293371
2168	4.564547
2152	5.709815
2136	7.246756
2120	8.723139
2104	10.6181
2088	12.3589
2072	13.9581
2056	15.7692
2040	17.3696
2024	18.969
2008	20.3601
1992	21.5847
1976	22.8775
1960	23.8661
1944	24.7104
1928	25.5335
1912	26.2146
1896	26.7955
1880	27.2153
1864	27.6673
1848	28.1538
1832	28.4839
1816	28.6722
1800	28.9462
1784	29.2312
1768	29.3181
1752	29.3564
1736	29.5054
1720	29.6666
1704	29.6399
1688	29.6836
1672	29.6827
1656	29.7404
1640	29.7363
1624	29.678
1608	29.5571
1592	29.7261
1576	29.6918
1560	29.6231
1544	29.6187
1528	29.4958
1512	29.4363
1496	29.5307
1480	29.2701
1464	29.2892
1448	29.3859
1432	29.1487
1416	29.2426
1400	29.2697
1384	29.0472
1368	29.0526
1352	29.0316
1336	28.9538
1320	28.94
1304	28.8777
1288	28.7153
1272	28.7325
1256	28.5987
1240	28.5269
1224	28.4695
1208	28.3409
1192	28.3353
1176	28.2534
1160	28.0372
1144	27.8896
1128	27.9278
1112	27.5665
1096	27.6201
1080	27.5073
1064	27.3306
1048	27.1499
1032	26.985
1016	26.7842
1000	26.8828
984	 26.6581
968	 26.431
952	 26.2416
936	 25.8335
920	 25.772
904	 25.5534
888	 25.2942
872	 25.1234
856	 24.9955
840	 24.6038
824	 24.395
808	 23.9897
792	 23.7865
776	 23.4371
760	 23.2838
744	 22.6378
728	 22.6044
712	 22.0309
696	 21.8962
680	 21.5526
664	 21.0107
648	 21.0716
632	 20.3516
616	 19.6296
600	 19.8897
584	 18.9704
568	 18.838
552	 18.1577
536	 18.1271
520	 17.9312
504	 16.9354
488	 17.0146
472	 14.9729
456	 15.4876
440	 14.0189
424	 14.2465
408	 19.0785
392	 10.3174
376	 -6.789350
370	 -31.8484

File: LPE453_t72.asc
PE IR       SPECTRUM    SPECTRUM    ASCII       PEDS        1.60
  -1
LPCFA1~1.ASC
17/05/16
20:18:07.00
17/05/16
20:18:34.00
tln
$LPE453_t0072$<tbV0>[0.0,2.6,8.0,0.0,27,1,0]
27.028
64

2002,4.07
MIRTGS : RIGHTBACK : INTERNAL 2
MIR : ON : INTERNAL 2
OPTKBR

0.200000
8
8.000000
FILLER
RATIO
SPECTRUM
UNLOCKED 256

DOUBLE
64
COMBINED
1
0
0

0.002000
RATIO

1
0
TRUE
51149
0
LEFT NOT FITTED RIGHT NOT FITTED 0
NONE
NONE
15600
12
4.427000
51148
TRUE
1 0 8 72 0 0 0 0

15798

#HDR
-1
-1
#GR
µM
%T
2.38419e-05
0.0
2.000000
0.002000
12515
8
33.1836
-0.816187
#DATA
2.000000	 0.122928
2.084000	 0.599628
2.168000	 0.403916
2.252000	 -0.611689
2.336000	 -0.521829
2.420000	 0.211990
2.504000	 0.186568
2.588000	 0.076074
2.672000	 0.106609
2.756000	 0.073918
2.840000	 -0.071746
2.924000	 0.134100
3.008000	 0.096424
3.092000	 0.266973
3.176000	 0.091734
3.260000	 0.150409
3.344000	 0.023604
3.428000	 0.026304
3.512000	 0.062710
3.596000	 -0.029828
3.680000	 0.028627
3.764000	 0.078346
3.848000	 0.059682
3.932000	 0.059507
4.016000	 0.086877
4.100000	 0.030648
4.184000	 -0.038379
4.268000	 0.052856
4.352000	 0.341671
4.436000	 1.062583
4.520000	 2.885165
4.604000	 5.809253
4.688000	 9.955887
4.772000	 14.4949
4.856000	 18.767
4.940000	 22.3393
5.024000	 25.2277
5.108000	 27.4198
5.192000	 29.0465
5.276000	 30.2524
5.359999	 31.135
5.444000	 31.6687
5.528000	 32.1454
5.612000	 32.3996
5.696000	 32.707
5.780000	 32.859
5.864000	 32.9004
5.948000	 32.9532
6.032000	 33.0297
6.116000	 32.9669
6.200000	 33.1014
6.284000	 32.8313
6.368000	 33.1275
6.452000	 32.7292
6.536000	 32.9967
6.620000	 32.9498
6.704000	 32.5057
6.788000	 32.8435
6.872000	 32.4983
6.956000	 32.4989
7.040000	 32.7529
7.124000	 32.4242
7.208000	 32.4263
7.292000	 32.6677
7.376000	 32.4729
7.460000	 32.0306
7.544000	 32.3713
7.628000	 32.2707
7.712000	 31.8979
7.796000	 31.9117
7.880000	 32.3118
7.964000	 31.9939
8.048000	 31.4727
8.132000	 31.6371
8.216000	 32.0672
8.300000	 31.7055
8.384000	 31.3548
8.468000	 31.3173
8.552000	 31.6387
8.635999	 31.6055
8.719999	 31.1957
8.804000	 30.9485
8.888000	 31.1145
8.972000	 31.4872
9.056000	 31.3436
9.140000	 30.7965
9.224000	 30.466
9.308000	 30.813
9.391999	 31.11
9.475999	 31.1008
9.560000	 30.4906
9.644000	 30.2517
9.728000	 30.252
9.812000	 30.3345
9.896000	 30.7051
9.980000	 30.2814
10.064	30.1042
10.148	29.5808
10.232	29.6725
10.316	29.8534
10.4	29.8909
10.484	30.0219
10.568	29.6089
10.652	29.2968
10.736	29.0552
10.82	28.959
10.904	29.2314
10.988	29.4472
11.072	29.2855
11.156	29.0908
11.24	28.7302
11.324	28.2578
11.408	28.2249
11.492	28.3624
11.576	28.6943
11.66	28.8797
11.744	28.7463
11.828	28.4281
11.912	28.1331
11.996	27.7509
12.08	27.5325
12.164	27.655
12.248	27.6953
12.332	27.6098
12.416	27.7643
12.5	27.8886
12.584	27.575
12.668	27.2779
12.752	27.0367
12.836	26.7412
12.92	26.7169
13.004	26.8426
13.088	26.9629
13.172	27.046
13.256	27.0382
13.34	26.7722
13.424	26.3559
13.508	26.2225
13.592	26.3451
13.676	26.1664
13.76	25.7656
13.844	25.3924
13.928	25.2382
14.012	25.4043
14.096	25.681
14.18	25.8418
14.264	25.8102
14.348	25.7037
14.432	25.6452
14.516	25.5637
14.6	25.2585
14.684	24.837
14.768	24.5065
14.852	24.3124
14.936	24.2568
15.02	24.2901
15.104	24.348
15.188	24.4211
15.272	24.5371
15.356	24.6663
15.44	24.7181
15.524	24.6637
15.608	24.5563
15.692	24.3981
15.776	24.172
15.86	23.9489
15.944	23.7306
16.028	23.457
16.112	23.2123
16.196	23.0902
16.28	23.0633
16.364	23.1241
16.448	23.2348
16.532	23.2653
16.616	23.2502
16.7	23.3386
16.784	23.4385
16.868	23.3624
16.952	23.1653
17.036	23.0255
17.12	22.9581
17.204	22.8118
17.288	22.4873
17.372	22.1016
17.456	21.8895
17.54	21.9195
17.624	22.0294
17.708	22.0719
17.792	22.0498
17.876	21.9947
17.96	21.8832
18.044	21.7527
18.128	21.7366
18.212	21.8817
18.296	22.0456
18.38	22.0739
18.464	21.9873
18.548	21.9148
18.632	21.9083
18.716	21.9258
18.8	21.9393
18.884	21.9487
18.968	21.9088
19.052	21.733
19.136	21.3861
19.22	20.9339
19.304	20.5001
19.388	20.1886
19.472	20.0442
19.556	20.0486
19.64	20.1339
19.724	20.2243
19.808	20.274
19.892	20.2804
19.976	20.2548
20.06	20.1946
20.144	20.0844
20.228	19.9241
20.312	19.7494
20.396	19.6218
20.48	19.5888
20.564	19.6466
20.648	19.7234
20.732	19.7153
20.816	19.5478
20.9	19.2384
20.984	18.8922
21.068	18.6375
21.152	18.5446
21.236	18.5866
21.32	18.6732
21.404	18.724
21.488	18.724
21.572	18.7055
21.656	18.6948
21.74	18.6804
21.824	18.6435
21.908	18.6121
21.992	18.6661
22.076	18.8826
22.16	19.2536
22.244	19.6593
22.328	19.9323
22.412	19.9574
22.496	19.7544
22.58	19.4416
22.664	19.1524
22.748	18.9589
22.832	18.8352
22.916	18.6953
23	18.4633
23.084	18.0903
23.168	17.5821
23.252	16.9921
23.336	16.3798
23.42	15.7741
23.504	15.1989
23.588	14.6651
23.672	14.1909
23.756	13.8487
23.84	13.7451
23.924	13.9745
24.008	14.5886
24.092	15.5693
24.176	16.7827
24.26	17.9633
24.344	18.7378
24.428	18.7646
24.512	17.7943
24.596	15.8091
24.68	13.0646
24.764	10.0704
24.848	7.428501
24.932	5.854098
25.016	5.946451
25.1	7.983430
25.184	11.7989
25.268	16.6968
25.352	21.5808
25.436	25.2636
25.52	26.8982
25.604	26.2045
25.688	23.5132
25.772	19.7062
25.856	15.8927
25.94	13.0799
26.024	11.9283
26.108	12.5625
26.192	14.6246
26.276	17.4434
26.36	20.2674
26.444	22.4208
26.528	23.4489
26.612	23.0996
26.696	21.4064
26.78	18.7017
26.864	15.4019
26.948	11.7092
27.028	7.647943

File: LPE453_t72_cm-1.asc
PE IR       SPECTRUM    SPECTRUM    ASCII       PEDS        1.60
  -1
LPDA50~1.ASC
17/05/16
20:18:07.00
17/05/16
20:18:07.00
tln
$LPE453_t0072$<tbV0>[0.0,2.6,8.0,0.0,27,1,0]
370
64

2002,4.07
MIRTGS : RIGHTBACK : INTERNAL 2
MIR : ON : INTERNAL 2
OPTKBR

0.200000
8
8.000000
FILLER
RATIO
SPECTRUM
UNLOCKED 256

DOUBLE
64
COMBINED
1
0
0

1.000000
RATIO

1
0
TRUE
51149
0
LEFT NOT FITTED RIGHT NOT FITTED 0
NONE
NONE
15600
12
4.427000
51148
TRUE
1 0 8 72 0 0 0 0

15798

#HDR
-1
-1
#GR
CM-1
%T
2.38419e-05
0.0
5000
-1.000000
4631
8
33.1835
-0.964546
#DATA
5000	0.122928
4984	0.611281
4968	-0.045752
4952	0.181126
4936	0.101280
4920	-0.309872
4904	0.203871
4888	0.422501
4872	0.178694
4856	-0.227999
4840	0.240206
4824	0.204324
4808	0.316119
4792	0.761747
4776	-0.403809
4760	0.648951
4744	0.085997
4728	0.190377
4712	-0.394678
4696	0.322604
4680	-0.320196
4664	1.261782
4648	-0.192809
4632	1.442646
4616	0.301551
4600	0.156903
4584	-0.123476
4568	-0.328230
4552	-0.593972
4536	-0.034928
4520	-0.022149
4504	0.926375
4488	3.869509
4472	-0.158166
4456	-0.211715
4440	-0.639104
4424	0.068402
4408	-0.060939
4392	-0.339078
4376	-0.011420
4360	0.054693
4344	0.173377
4328	0.388646
4312	0.066971
4296	0.090837
4280	-0.489711
4264	0.334024
4248	-0.020480
4232	0.268054
4216	0.380969
4200	0.232696
4184	0.608062
4168	-0.516581
4152	0.479745
4136	0.069975
4120	0.238132
4104	0.089764
4088	-0.209832
4072	-0.120639
4056	0.148463
4040	0.173878
4024	0.071883
4008	-0.079917
3992	0.185608
3976	0.207996
3960	-0.079059
3944	0.015282
3928	0.163865
3912	0.073409
3896	0.291967
3880	-0.072932
3864	0.075960
3848	0.111103
3832	0.013351
3816	-0.066518
3800	0.124001
3784	-0.032854
3768	0.068283
3752	0.103378
3736	-0.013875
3720	-0.136446
3704	0.097298
3688	0.110626
3672	0.035667
3656	0.058913
3640	0.046253
3624	0.051116
3608	0.068569
3592	0.049996
3576	0.088119
3560	0.025177
3544	0.047135
3528	-0.092029
3512	0.189137
3496	0.097966
3480	0.081968
3464	-0.039696
3448	0.126934
3432	-0.005102
3416	0.077939
3400	0.185418
3384	0.097513
3368	0.111532
3352	0.007724
3336	0.101351
3320	0.074219
3304	0.077581
3288	0.017070
3272	-0.006937
3256	0.105309
3240	0.203776
3224	-0.016045
3208	0.011825
3192	0.032234
3176	0.018024
3160	0.066852
3144	0.086498
3128	0.026845
3112	0.113725
3096	0.054359
3080	-0.072002
3064	0.092768
3048	0.106143
3032	0.090742
3016	-0.012803
3000	0.131201
2984	0.001120
2968	0.020861
2952	0.027346
2936	0.016236
2920	0.033593
2904	0.022101
2888	0.005435
2872	0.087761
2856	0.056457
2840	-0.020551
2824	0.079560
2808	-0.087952
2792	0.117158
2776	-0.023484
2760	0.006127
2744	-0.006914
2728	0.058865
2712	0.039529
2696	0.009965
2680	0.046038
2664	0.088381
2648	0.089836
2632	-0.075697
2616	-0.109767
2600	0.068616
2584	0.047516
2568	0.030708
2552	0.075316
2536	0.115156
2520	0.066113
2504	0.125575
2488	0.021362
2472	0.087499
2456	0.046944
2440	0.029993
2424	0.198268
2408	0.104546
2392	-0.035333
2376	0.117301
2360	0.038957
2344	0.040602
2328	0.197887
2312	0.275158
2296	0.375628
2280	0.641894
2264	0.847649
2248	1.276946
2232	1.890492
2216	2.653312
2200	3.656959
2184	4.813575
2168	6.266498
2152	7.555103
2136	9.622669
2120	11.3924
2104	13.4547
2088	15.4412
2072	17.3574
2056	19.1763
2040	20.7656
2024	22.365
2008	23.8646
1992	25.1318
1976	26.2825
1960	27.327
1944	28.122
1928	28.9389
1912	29.6771
1896	30.2326
1880	30.7972
1864	31.1841
1848	31.4706
1832	31.8218
1816	32.1414
1800	32.2694
1784	32.3659
1768	32.7408
1752	32.6554
1736	32.7322
1720	32.892
1704	32.8724
1688	32.7859
1672	33.1214
1656	32.9817
1640	32.9058
1624	33.1139
1608	32.9354
1592	32.8194
1576	33.0583
1560	33.0584
1544	32.6628
1528	33.0267
1512	32.9933
1496	32.5573
1480	32.6617
1464	32.8348
1448	32.4941
1432	32.6578
1416	32.7657
1400	32.3056
1384	32.4767
1368	32.6397
1352	32.3097
1336	32.115
1320	32.5558
1304	32.0993
1288	31.8393
1272	32.2594
1256	32.0128
1240	31.4937
1224	31.9237
1208	31.8395
1192	31.3318
1176	31.5194
1160	31.6397
1144	31.0938
1128	31.075
1112	31.4933
1096	30.9263
1080	30.5426
1064	31.1278
1048	30.5825
1032	30.2463
1016	30.5193
1000	30.2627
984	 29.5683
968	 29.8817
952	 29.947
936	 29.1748
920	 29.0987
904	 29.3176
888	 28.576
872	 28.2867
856	 28.8826
840	 28.1614
824	 27.6077
808	 27.6522
792	 27.3974
776	 26.6914
760	 27.0355
744	 26.294
728	 25.8816
712	 25.514
696	 25.6833
680	 24.7384
664	 24.3171
648	 24.7183
632	 24.0433
616	 23.0684
600	 23.2902
584	 22.9549
568	 22.0085
552	 21.7278
536	 21.9133
520	 20.8748
504	 20.281
488	 19.5922
472	 18.5502
456	 18.6139
440	 18.9977
424	 14.6839
408	 17.833
392	 26.8289
376	 23.28
370	 7.647943

File: LPE453_t73.asc
PE IR       SPECTRUM    SPECTRUM    ASCII       PEDS        1.60
  -1
LPCFA5~1.ASC
17/05/16
20:22:44.00
17/05/16
20:23:10.00
tln
$LPE453_t0073$<tbV0>[-2.6,2.6,8.0,0.0,27,1,0]
27.028
64

2002,4.07
MIRTGS : RIGHTBACK : INTERNAL 2
MIR : ON : INTERNAL 2
OPTKBR

0.200000
8
8.000000
FILLER
RATIO
SPECTRUM
UNLOCKED 256

DOUBLE
64
COMBINED
1
0
0

0.002000
RATIO

1
0
TRUE
51149
0
LEFT NOT FITTED RIGHT NOT FITTED 0
NONE
NONE
15600
12
4.427000
51148
TRUE
1 0 8 72 0 0 0 0

15798

#HDR
-1
-1
#GR
µM
%T
2.38419e-05
0.0
2.000000
0.002000
12515
8
33.4363
-2.010767
#DATA
2.000000	 0.027704
2.084000	 0.446871
2.168000	 -0.153101
2.252000	 -0.527224
2.336000	 -0.113982
2.420000	 0.113554
2.504000	 0.056362
2.588000	 0.034068
2.672000	 -0.060662
2.756000	 0.038570
2.840000	 0.040514
2.924000	 0.229369
3.008000	 0.077784
3.092000	 0.110273
3.176000	 0.058306
3.260000	 0.037952
3.344000	 -0.132477
3.428000	 0.033227
3.512000	 0.053442
3.596000	 -0.008635
3.680000	 0.032659
3.764000	 0.086349
3.848000	 0.022916
3.932000	 0.013929
4.016000	 0.059639
4.100000	 -0.029006
4.184000	 -0.014402
4.268000	 0.144951
4.352000	 0.417206
4.436000	 1.161231
4.520000	 3.042208
4.604000	 6.029954
4.688000	 10.1817
4.772000	 14.7198
4.856000	 19.1547
4.940000	 22.6864
5.024000	 25.661
5.108000	 27.6366
5.192000	 29.4426
5.276000	 30.593
5.359999	 31.3441
5.444000	 32.0374
5.528000	 32.329
5.612000	 32.8143
5.696000	 32.8354
5.780000	 33.1658
5.864000	 33.1211
5.948000	 33.2217
6.032000	 33.1969
6.116000	 33.3251
6.200000	 33.1123
6.284000	 33.4342
6.368000	 32.9843
6.452000	 33.1405
6.536000	 33.1801
6.620000	 32.8601
6.704000	 33.1622
6.788000	 32.9248
6.872000	 32.6637
6.956000	 32.9764
7.040000	 32.8556
7.124000	 32.579
7.208000	 32.8232
7.292000	 32.5812
7.376000	 32.3074
7.460000	 32.7238
7.544000	 32.5884
7.628000	 32.1094
7.712000	 32.3141
7.796000	 32.6128
7.880000	 32.2574
7.964000	 31.9841
8.048000	 32.1515
8.132000	 32.2995
8.216000	 31.8871
8.300000	 31.6975
8.384000	 31.7934
8.468000	 32.2143
8.552000	 31.9273
8.635999	 31.4625
8.719999	 31.2668
8.804000	 31.671
8.888000	 31.7171
8.972000	 31.5238
9.056000	 31.17
9.140000	 30.9069
9.224000	 31.256
9.308000	 31.2061
9.391999	 31.1994
9.475999	 30.8781
9.560000	 30.6352
9.644000	 30.7423
9.728000	 30.831
9.812000	 30.9875
9.896000	 30.5738
9.980000	 30.068
10.064	30.0554
10.148	30.1676
10.232	30.4888
10.316	30.5481
10.4	30.1907
10.484	29.75
10.568	29.4682
10.652	29.6344
10.736	29.628
10.82	29.9057
10.904	29.9242
10.988	29.8022
11.072	29.3575
11.156	28.9774
11.24	28.7646
11.324	28.924
11.408	28.9459
11.492	29.0149
11.576	29.1588
11.66	29.0374
11.744	28.7716
11.828	28.3619
11.912	28.0535
11.996	28.0558
12.08	28.2411
12.164	28.4564
12.248	28.5367
12.332	28.5018
12.416	28.1957
12.5	27.9582
12.584	27.6698
12.668	27.3149
12.752	27.2086
12.836	27.2337
12.92	27.3143
13.004	27.4106
13.088	27.3217
13.172	27.3507
13.256	27.3756
13.34	27.0614
13.424	26.7415
13.508	26.617
13.592	26.4454
13.676	26.2008
13.76	26.1576
13.844	26.3868
13.928	26.5832
14.012	26.5541
14.096	26.4749
14.18	26.3866
14.264	26.3069
14.348	26.1315
14.432	25.7812
14.516	25.4608
14.6	25.2394
14.684	25.105
14.768	25.0364
14.852	24.939
14.936	24.9476
15.02	25.1124
15.104	25.2206
15.188	25.2574
15.272	25.2385
15.356	25.1134
15.44	25.0093
15.524	24.8941
15.608	24.5977
15.692	24.2352
15.776	23.9533
15.86	23.7545
15.944	23.722
16.028	23.8613
16.112	23.992
16.196	24.0666
16.28	24.2046
16.364	24.3958
16.448	24.4988
16.532	24.4629
16.616	24.3179
16.7	24.0718
16.784	23.7682
16.868	23.4962
16.952	23.262
17.036	22.9945
17.12	22.7079
17.204	22.5144
17.288	22.456
17.372	22.4399
17.456	22.3665
17.54	22.2444
17.624	22.1538
17.708	22.1505
17.792	22.2358
17.876	22.3663
17.96	22.4574
18.044	22.4201
18.128	22.2551
18.212	22.1033
18.296	22.1236
18.38	22.2946
18.464	22.4161
18.548	22.3244
18.632	22.0537
18.716	21.7661
18.8	21.5815
18.884	21.5145
18.968	21.5362
19.052	21.627
19.136	21.7577
19.22	21.8571
19.304	21.8392
19.388	21.6725
19.472	21.4191
19.556	21.2027
19.64	21.1129
19.724	21.1348
19.808	21.1731
19.892	21.1522
19.976	21.0715
20.06	20.9625
20.144	20.8281
20.228	20.6429
20.312	20.4103
20.396	20.1862
20.48	20.0356
20.564	19.9607
20.648	19.8968
20.732	19.768
20.816	19.5472
20.9	19.2852
20.984	19.0781
21.068	19.0109
21.152	19.0993
21.236	19.2813
21.32	19.4614
21.404	19.561
21.488	19.5469
21.572	19.4152
21.656	19.1653
21.74	18.8081
21.824	18.3999
21.908	18.0611
21.992	17.9305
22.076	18.089
22.16	18.5123
22.244	19.0799
22.328	19.6396
22.412	20.0616
22.496	20.2584
22.58	20.1923
22.664	19.8733
22.748	19.3698
22.832	18.8026
22.916	18.3275
23	18.0711
23.084	18.0755
23.168	18.298
23.252	18.6473
23.336	19.0159
23.42	19.3331
23.504	19.5639
23.588	19.678
23.672	19.6287
23.756	19.3634
23.84	18.8525
23.924	18.1265
24.008	17.2925
24.092	16.5231
24.176	16.0039
24.26	15.8901
24.344	16.2458
24.428	16.9797
24.512	17.8401
24.596	18.4775
24.68	18.5575
24.764	17.9135
24.848	16.6341
24.932	15.0637
25.016	13.6689
25.1	12.8524
25.184	12.843
25.268	13.6041
25.352	14.9037
25.436	16.3288
25.52	17.4711
25.604	18.0914
25.688	18.1148
25.772	17.6061
25.856	16.6761
25.94	15.4265
26.024	13.911
26.108	12.1411
26.192	10.119
26.276	7.895774
26.36	5.596294
26.444	3.483849
26.528	1.884424
26.612	1.110583
26.696	1.242932
26.78	2.000058
26.864	2.872476
26.948	3.455914
27.028	3.775787

File: LPE453_t73_cm-1.asc
PE IR       SPECTRUM    SPECTRUM    ASCII       PEDS        1.60
  -1
LPDAD5~1.ASC
17/05/16
20:22:44.00
17/05/16
20:22:44.00
tln
$LPE453_t0073$<tbV0>[-2.6,2.6,8.0,0.0,27,1,0]
370
64

2002,4.07
MIRTGS : RIGHTBACK : INTERNAL 2
MIR : ON : INTERNAL 2
OPTKBR

0.200000
8
8.000000
FILLER
RATIO
SPECTRUM
UNLOCKED 256

DOUBLE
64
COMBINED
1
0
0

1.000000
RATIO

1
0
TRUE
51149
0
LEFT NOT FITTED RIGHT NOT FITTED 0
NONE
NONE
15600
12
4.427000
51148
TRUE
1 0 8 72 0 0 0 0

15798

#HDR
-1
-1
#GR
CM-1
%T
2.38419e-05
0.0
5000
-1.000000
4631
8
33.4359
-2.370214
#DATA
5000	0.027704
4984	0.707864
4968	0.350856
4952	-0.296306
4936	0.216984
4920	-0.056195
4904	0.264167
4888	0.629305
4872	-0.049734
4856	0.098538
4840	-0.222539
4824	0.270700
4808	0.295424
4792	0.295639
4776	-0.243496
4760	0.389313
4744	1.108717
4728	-0.336503
4712	-1.143670
4696	0.422143
4680	1.250791
4664	-0.342845
4648	2.327036
4632	0.212740
4616	-0.330281
4600	0.512361
4584	0.589513
4568	-0.104665
4552	-0.158333
4536	0.088953
4520	0.131750
4504	1.347017
4488	14.8949
4472	-2.000093
4456	-0.116562
4440	-0.472927
4424	-0.984883
4408	0.507354
4392	0.342869
4376	0.297546
4360	0.214195
4344	0.429391
4328	0.530743
4312	-0.321960
4296	0.149488
4280	-0.117802
4264	0.508379
4248	0.121855
4232	0.024032
4216	-0.149750
4200	0.298166
4184	0.140190
4168	-0.012612
4152	0.220870
4136	0.106287
4120	0.118947
4104	0.300097
4088	0.070381
4072	0.102925
4056	-0.113630
4040	0.211000
4024	0.032663
4008	0.047588
3992	-0.046443
3976	0.018262
3960	0.352025
3944	0.072407
3928	0.005483
3912	-0.102376
3896	0.143074
3880	-0.110888
3864	0.034165
3848	0.004220
3832	0.093054
3816	-0.044560
3800	0.076174
3784	0.071716
3768	0.060653
3752	-0.090718
3736	-0.003528
3720	0.047612
3704	0.001144
3688	0.072860
3672	0.036168
3656	-0.021481
3640	0.080418
3624	0.035023
3608	-0.177288
3592	0.136494
3576	0.126433
3560	0.046014
3544	0.066804
3528	0.048470
3512	0.001430
3496	0.312495
3480	0.012207
3464	0.099134
3448	-0.149059
3432	-0.029850
3416	0.284266
3400	0.021338
3384	-0.105381
3368	0.137519
3352	0.061655
3336	0.013256
3320	0.091814
3304	0.120139
3288	0.121021
3272	-0.035095
3256	0.000095
3240	-0.002861
3224	-0.034809
3208	-0.147533
3192	0.193047
3176	-0.064682
3160	-0.099039
3144	0.094819
3128	0.162696
3112	0.053000
3096	0.114417
3080	-0.022816
3064	0.020360
3048	0.038456
3032	0.077891
3016	0.071096
3000	-0.126028
2984	-0.083518
2968	0.103998
2952	0.030541
2936	0.101733
2920	0.040817
2904	0.009489
2888	0.116086
2872	0.152230
2856	0.021672
2840	-0.033497
2824	0.037717
2808	0.026082
2792	0.062012
2776	0.038361
2760	0.020098
2744	-0.077056
2728	0.012755
2712	0.052523
2696	0.024962
2680	0.072765
2664	0.035548
2648	0.011730
2632	-0.010275
2616	0.055193
2600	0.006198
2584	0.062322
2568	0.009298
2552	0.031638
2536	-0.012302
2520	0.042319
2504	0.104641
2488	0.054073
2472	0.013184
2456	-0.011420
2440	-0.015950
2424	0.128078
2408	0.146484
2392	-0.021266
2376	0.057744
2360	-0.039124
2344	0.134944
2328	0.220656
2312	0.166177
2296	0.450611
2280	0.644111
2264	0.953483
2248	1.334595
2232	2.066016
2216	2.834177
2200	3.783869
2184	5.029749
2168	6.413555
2152	8.120417
2136	9.883999
2120	11.8216
2104	13.734
2088	15.7103
2072	17.7026
2056	19.4815
2040	21.1673
2024	22.7119
2008	24.2096
1992	25.5412
1976	26.637
1960	27.5104
1944	28.4932
1928	29.3551
1912	29.8997
1896	30.5705
1880	31.0392
1864	31.396
1848	31.8223
1832	32.2005
1816	32.1825
1800	32.5626
1784	32.812
1768	32.7072
1752	32.9468
1736	33.1677
1720	33.0914
1704	33.1309
1688	33.2477
1672	33.1439
1656	33.2125
1640	33.3679
1624	33.134
1608	33.0714
1592	33.4282
1576	33.1249
1560	33.0482
1544	33.1722
1528	33.1463
1512	32.8318
1496	33.1729
1480	32.9901
1464	32.6972
1448	32.8035
1432	33.0262
1416	32.7438
1400	32.6166
1384	32.8468
1368	32.4236
1352	32.4116
1336	32.7983
1320	32.3772
1304	32.1196
1288	32.5209
1272	32.2877
1256	31.9907
1240	32.1987
1224	32.2132
1208	31.7483
1192	31.8174
1176	32.1954
1160	31.4972
1144	31.3036
1128	31.7003
1112	31.4082
1096	30.8673
1080	31.2394
1064	31.1793
1048	30.6448
1032	30.7907
1016	30.8854
1000	30.0048
984	 30.2104
968	 30.5296
952	 29.6809
936	 29.6597
920	 29.9664
904	 29.4168
888	 28.7897
872	 28.9572
856	 28.9882
840	 28.0701
824	 28.4009
808	 28.3509
792	 27.4751
776	 27.2694
760	 27.3311
744	 26.7053
728	 26.1381
712	 26.5222
696	 26.0595
680	 25.0858
664	 25.1791
648	 25.0164
632	 23.8293
616	 24.1159
600	 24.1806
584	 22.6979
568	 22.1672
552	 22.2824
536	 21.9632
520	 21.8628
504	 21.1735
488	 20.0213
472	 19.1681
456	 18.0022
440	 19.5056
424	 19.6765
408	 17.8196
392	 17.363
376	 1.184034
370	 3.775787