Folder: Masteroppgave/Bakgrunnsmateriale/MATLAB/FTIR/ftir_data/LPE453/Mapping_121 (part 33)

File: LPE453_t74.asc
PE IR       SPECTRUM    SPECTRUM    ASCII       PEDS        1.60
  -1
LPDFA9~1.ASC
17/05/16
20:27:21.00
17/05/16
20:27:47.00
tln
$LPE453_t0074$<tbV0>[-5.2,2.6,8.0,0.0,27,1,0]
27.028
64

2002,4.07
MIRTGS : RIGHTBACK : INTERNAL 2
MIR : ON : INTERNAL 2
OPTKBR

0.200000
8
8.000000
FILLER
RATIO
SPECTRUM
UNLOCKED 256

DOUBLE
64
COMBINED
1
0
0

0.002000
RATIO

1
0
TRUE
51149
0
LEFT NOT FITTED RIGHT NOT FITTED 0
NONE
NONE
15600
12
4.427000
51148
TRUE
1 0 8 72 0 0 0 0

15798

#HDR
-1
-1
#GR
µM
%T
2.38419e-05
0.0
2.000000
0.002000
12515
8
41.5278
-3.379224
#DATA
2.000000	 -0.005245
2.084000	 0.045936
2.168000	 0.668783
2.252000	 -1.044683
2.336000	 0.683229
2.420000	 0.484954
2.504000	 0.128269
2.588000	 -0.144629
2.672000	 0.083979
2.756000	 0.036584
2.840000	 -0.010397
2.924000	 0.046886
3.008000	 0.151871
3.092000	 0.122976
3.176000	 0.004333
3.260000	 0.108688
3.344000	 0.112100
3.428000	 0.118924
3.512000	 -0.029482
3.596000	 0.081111
3.680000	 0.026677
3.764000	 0.016100
3.848000	 0.093408
3.932000	 0.109159
4.016000	 0.021636
4.100000	 0.071243
4.184000	 0.155332
4.268000	 0.154629
4.352000	 0.521571
4.436000	 1.249501
4.520000	 3.289742
4.604000	 6.534965
4.688000	 10.93
4.772000	 15.5771
4.856000	 20.0356
4.940000	 23.8739
5.024000	 26.8117
5.108000	 28.7641
5.192000	 30.5542
5.276000	 31.7359
5.359999	 32.577
5.444000	 33.2766
5.528000	 33.6752
5.612000	 34.0195
5.696000	 34.1603
5.780000	 34.2183
5.864000	 34.3307
5.948000	 34.4439
6.032000	 34.4707
6.116000	 34.6815
6.200000	 34.2824
6.284000	 34.5654
6.368000	 34.368
6.452000	 34.2754
6.536000	 34.5136
6.620000	 34.2607
6.704000	 34.3259
6.788000	 34.2994
6.872000	 33.8123
6.956000	 34.2059
7.040000	 34.2294
7.124000	 33.7198
7.208000	 33.9734
7.292000	 34.0805
7.376000	 33.7487
7.460000	 33.5196
7.544000	 33.9144
7.628000	 33.7847
7.712000	 33.2701
7.796000	 33.4965
7.880000	 33.8633
7.964000	 33.6001
8.048000	 33.2228
8.132000	 33.2601
8.216000	 33.5728
8.300000	 33.4425
8.384000	 32.9972
8.468000	 33.0026
8.552000	 33.1808
8.635999	 33.3815
8.719999	 32.829
8.804000	 32.5815
8.888000	 32.6186
8.972000	 32.8451
9.056000	 32.8671
9.140000	 32.6294
9.224000	 32.2331
9.308000	 32.0669
9.391999	 32.5217
9.475999	 32.6628
9.560000	 32.4917
9.644000	 32.0795
9.728000	 31.8449
9.812000	 31.9457
9.896000	 32.2287
9.980000	 32.3764
10.064	32.0738
10.148	31.7648
10.232	31.3831
10.316	31.3636
10.4	31.4548
10.484	31.6412
10.568	31.868
10.652	31.6537
10.736	31.3793
10.82	30.7879
10.904	30.6811
10.988	30.8359
11.072	30.9348
11.156	30.8509
11.24	30.8475
11.324	30.7898
11.408	30.5135
11.492	30.1115
11.576	29.8775
11.66	30.071
11.744	30.1164
11.828	30.163
11.912	30.2923
11.996	30.367
12.08	30.1429
12.164	29.7638
12.248	29.2152
12.332	29.0446
12.416	29.0298
12.5	28.994
12.584	29.2915
12.668	29.508
12.752	29.6115
12.836	29.5004
12.92	29.1446
13.004	28.7561
13.088	28.2837
13.172	28.2171
13.256	28.3412
13.34	28.3
13.424	28.1736
13.508	28.0856
13.592	28.2728
13.676	28.4268
13.76	28.2912
13.844	28.1127
13.928	27.9594
14.012	27.6954
14.096	27.4113
14.18	27.2075
14.264	26.9932
14.348	26.9012
14.432	26.9342
14.516	27.0147
14.6	27.088
14.684	27.1713
14.768	27.3592
14.852	27.3869
14.936	27.2753
15.02	27.2832
15.104	27.1256
15.188	26.6596
15.272	26.2002
15.356	25.9128
15.44	25.7774
15.524	25.7206
15.608	25.6688
15.692	25.6139
15.776	25.6253
15.86	25.8345
15.944	26.1354
16.028	26.1857
16.112	25.9383
16.196	25.6588
16.28	25.4798
16.364	25.3595
16.448	25.2551
16.532	25.1339
16.616	24.9767
16.7	24.8166
16.784	24.7137
16.868	24.6678
16.952	24.5719
17.036	24.3832
17.12	24.2949
17.204	24.5012
17.288	24.8501
17.372	24.973
17.456	24.7454
17.54	24.4072
17.624	24.2117
17.708	24.1552
17.792	24.1046
17.876	23.9974
17.96	23.8512
18.044	23.6958
18.128	23.5776
18.212	23.5549
18.296	23.6263
18.38	23.7062
18.464	23.7208
18.548	23.6831
18.632	23.6353
18.716	23.5792
18.8	23.5083
18.884	23.4634
18.968	23.5063
19.052	23.646
19.136	23.8171
19.22	23.9296
19.304	23.9245
19.388	23.7896
19.472	23.5491
19.556	23.2682
19.64	23.0373
19.724	22.9301
19.808	22.9421
19.892	22.9795
19.976	22.912
20.06	22.6642
20.144	22.2815
20.228	21.9172
20.312	21.7501
20.396	21.872
20.48	22.2164
20.564	22.5819
20.648	22.7468
20.732	22.598
20.816	22.1853
20.9	21.6867
20.984	21.3071
21.068	21.1779
21.152	21.3104
21.236	21.6082
21.32	21.9279
21.404	22.1521
21.488	22.2388
21.572	22.2159
21.656	22.1292
21.74	22.0082
21.824	21.8789
21.908	21.7855
21.992	21.7754
22.076	21.8552
22.16	21.9574
22.244	21.9707
22.328	21.8221
22.412	21.5279
22.496	21.2086
22.58	20.9964
22.664	20.9665
22.748	21.1014
22.832	21.3141
22.916	21.504
23	21.5951
23.084	21.5466
23.168	21.3508
23.252	21.0322
23.336	20.6437
23.42	20.253
23.504	19.9167
23.588	19.6703
23.672	19.5296
23.756	19.4992
23.84	19.6127
23.924	19.9437
24.008	20.5695
24.092	21.5193
24.176	22.7364
24.26	24.0501
24.344	25.2209
24.428	26.0495
24.512	26.3963
24.596	26.2701
24.68	25.8102
24.764	25.2186
24.848	24.6612
24.932	24.1945
25.016	23.7465
25.1	23.2125
25.184	22.4454
25.268	21.3758
25.352	20.112
25.436	18.8744
25.52	17.9442
25.604	17.5839
25.688	17.9591
25.772	19.0121
25.856	20.4912
25.94	22.2535
26.024	24.3496
26.108	26.9624
26.192	30.1203
26.276	33.5354
26.36	36.4413
26.444	38.202
26.528	38.6258
26.612	38.1347
26.696	37.4276
26.78	37.1132
26.864	37.5195
26.948	38.8766
27.028	41.5278

File: LPE453_t74_cm-1.asc
PE IR       SPECTRUM    SPECTRUM    ASCII       PEDS        1.60
  -1
LPEA5B~1.ASC
17/05/16
20:27:21.00
17/05/16
20:27:21.00
tln
$LPE453_t0074$<tbV0>[-5.2,2.6,8.0,0.0,27,1,0]
370
64

2002,4.07
MIRTGS : RIGHTBACK : INTERNAL 2
MIR : ON : INTERNAL 2
OPTKBR

0.200000
8
8.000000
FILLER
RATIO
SPECTRUM
UNLOCKED 256

DOUBLE
64
COMBINED
1
0
0

1.000000
RATIO

1
0
TRUE
51149
0
LEFT NOT FITTED RIGHT NOT FITTED 0
NONE
NONE
15600
12
4.427000
51148
TRUE
1 0 8 72 0 0 0 0

15798

#HDR
-1
-1
#GR
CM-1
%T
2.38419e-05
0.0
5000
-1.000000
4631
8
41.6514
-3.650784
#DATA
5000	-0.005245
4984	-0.100326
4968	-0.324463
4952	0.533461
4936	0.213599
4920	0.210762
4904	-0.044965
4888	0.099086
4872	0.013613
4856	0.207662
4840	-0.131225
4824	-0.146579
4808	0.273942
4792	0.010919
4776	0.774431
4760	-0.050354
4744	0.414347
4728	1.368069
4712	-0.103092
4696	-0.374245
4680	1.198887
4664	1.454806
4648	1.779532
4632	0.094294
4616	0.709486
4600	0.009536
4584	-0.746607
4568	-1.532578
4552	-2.216148
4536	-1.619505
4520	-1.820254
4504	-1.306891
4488	41.2571
4472	-3.500509
4456	-1.260828
4440	-1.024341
4424	-0.289487
4408	0.453996
4392	1.250004
4376	1.209926
4360	1.264715
4344	0.588226
4328	0.608134
4312	0.475358
4296	0.270700
4280	0.637030
4264	-0.191211
4248	-0.097298
4232	0.697731
4216	0.074172
4200	-0.163221
4184	0.449299
4168	0.160741
4152	0.074839
4136	0.501370
4120	0.347948
4104	0.026059
4088	0.094819
4072	0.041294
4056	0.208234
4040	0.210857
4024	0.027561
4008	0.073981
3992	0.144624
3976	-0.014853
3960	0.071763
3944	0.150823
3928	0.003933
3912	0.265622
3896	0.167346
3880	0.273489
3864	-0.144672
3848	-0.000500
3832	0.013732
3816	0.119948
3800	0.023031
3784	0.005197
3768	0.035452
3752	0.062203
3736	0.016283
3720	-0.096392
3704	0.057268
3688	0.190854
3672	0.110483
3656	0.027036
3640	0.120258
3624	0.011849
3608	-0.069403
3592	0.009751
3576	0.048637
3560	0.218558
3544	-0.009155
3528	-0.018382
3512	0.127005
3496	0.167202
3480	0.097250
3464	-0.060677
3448	-0.058197
3432	-0.041651
3416	0.083851
3400	0.017809
3384	0.024342
3368	-0.064134
3352	0.078153
3336	0.016093
3320	0.090432
3304	-0.024294
3288	0.181317
3272	0.079607
3256	-0.016188
3240	0.311088
3224	0.136208
3208	-0.168299
3192	0.056910
3176	0.099158
3160	-0.009489
3144	-0.018978
3128	0.252342
3112	0.128364
3096	-0.117278
3080	-0.003433
3064	0.102663
3048	0.106596
3032	0.153875
3016	0.019907
3000	0.002813
2984	0.129461
2968	0.126123
2952	-0.071883
2936	0.132775
2920	0.126838
2904	0.154209
2888	0.097799
2872	0.068378
2856	0.122427
2840	0.041627
2824	0.065612
2808	0.131869
2792	0.020027
2776	0.035667
2760	0.163650
2744	0.046944
2728	0.034713
2712	-0.029063
2696	0.022268
2680	0.084662
2664	0.125861
2648	0.003838
2632	0.163316
2616	0.104856
2600	0.092029
2584	0.105667
2568	0.099325
2552	0.008559
2536	0.101828
2520	0.065708
2504	-0.147318
2488	-0.005054
2472	0.091433
2456	0.040507
2440	0.062966
2424	-0.031447
2408	-0.133514
2392	0.155615
2376	0.047111
2360	0.121235
2344	0.147557
2328	0.218319
2312	0.417375
2296	0.555944
2280	0.800633
2264	1.062870
2248	1.487803
2232	2.216315
2216	3.076577
2200	4.165220
2184	5.508160
2168	6.935000
2152	8.625268
2136	10.5991
2120	12.5835
2104	14.492
2088	16.6067
2072	18.5521
2056	20.4232
2040	22.2237
2024	23.9039
2008	25.2914
1992	26.6794
1976	27.8014
1960	28.6691
1944	29.6431
1928	30.4855
1912	31.1073
1896	31.709
1880	32.1915
1864	32.6088
1848	33.0124
1832	33.3811
1816	33.4642
1800	33.8657
1784	33.9836
1768	34.1227
1752	34.27
1736	34.3063
1720	34.2013
1704	34.3496
1688	34.4433
1672	34.3918
1656	34.4952
1640	34.6317
1624	34.4389
1608	34.2288
1592	34.5536
1576	34.4199
1560	34.2817
1544	34.4362
1528	34.5116
1512	34.2742
1496	34.2418
1480	34.3465
1464	34.0149
1448	33.9355
1432	34.2882
1416	34.1508
1400	33.7868
1384	34.0063
1368	34.0545
1352	33.6216
1336	33.747
1320	33.9539
1304	33.5021
1288	33.3579
1272	33.824
1256	33.6095
1240	33.2179
1224	33.4116
1208	33.5301
1192	32.992
1176	33.1021
1160	33.3846
1144	32.7267
1128	32.6179
1112	32.8662
1096	32.6974
1080	32.0462
1064	32.5513
1048	32.5252
1032	31.8468
1016	32.0346
1000	32.3141
984	 31.6804
968	 31.3819
952	 31.7436
936	 31.5524
920	 30.6348
904	 30.9328
888	 30.8599
872	 30.233
856	 30.1069
840	 30.2818
824	 29.9025
808	 29.0686
792	 29.4243
776	 29.2906
760	 28.1964
744	 28.1434
728	 28.3461
712	 27.5732
696	 26.9026
680	 27.2153
664	 27.2532
648	 25.7854
632	 25.7146
616	 25.5668
600	 24.8765
584	 24.2971
568	 24.2385
552	 23.5898
536	 23.6205
520	 23.9361
504	 22.9614
488	 22.2715
472	 21.4208
456	 21.7732
440	 21.057
424	 19.6775
408	 26.3935
392	 18.026
376	 38.2593
370	 41.5278

File: LPE453_t75.asc
PE IR       SPECTRUM    SPECTRUM    ASCII       PEDS        1.60
  -1
LPDFAD~1.ASC
17/05/16
20:31:57.00
17/05/16
20:32:24.00
tln
$LPE453_t0075$<tbV0>[-7.8,2.6,8.0,0.0,27,1,0]
27.028
64

2002,4.07
MIRTGS : RIGHTBACK : INTERNAL 2
MIR : ON : INTERNAL 2
OPTKBR

0.200000
8
8.000000
FILLER
RATIO
SPECTRUM
UNLOCKED 256

DOUBLE
64
COMBINED
1
0
0

0.002000
RATIO

1
0
TRUE
51149
0
LEFT NOT FITTED RIGHT NOT FITTED 0
NONE
NONE
15600
12
4.427000
51148
TRUE
1 0 8 72 0 0 0 0

15798

#HDR
-1
-1
#GR
µM
%T
2.38419e-05
0.0
2.000000
0.002000
12515
8
45.4204
-12.7852
#DATA
2.000000	 0.034594
2.084000	 -0.287813
2.168000	 0.362972
2.252000	 -0.142302
2.336000	 0.207111
2.420000	 0.039332
2.504000	 0.100352
2.588000	 -0.169291
2.672000	 0.051225
2.756000	 -0.083418
2.840000	 0.084806
2.924000	 0.097309
3.008000	 -0.103461
3.092000	 -0.003993
3.176000	 0.044626
3.260000	 0.115379
3.344000	 0.082142
3.428000	 -0.063094
3.512000	 0.044987
3.596000	 -0.099805
3.680000	 0.054618
3.764000	 0.038396
3.848000	 0.025486
3.932000	 -0.060306
4.016000	 0.034187
4.100000	 0.024919
4.184000	 0.117614
4.268000	 0.154235
4.352000	 0.404285
4.436000	 1.331426
4.520000	 3.335197
4.604000	 6.592624
4.688000	 10.8369
4.772000	 15.7778
4.856000	 20.2553
4.940000	 23.9995
5.024000	 26.8842
5.108000	 29.1448
5.192000	 30.9538
5.276000	 31.9983
5.359999	 32.9795
5.444000	 33.4607
5.528000	 34.1088
5.612000	 34.2618
5.696000	 34.6633
5.780000	 34.4951
5.864000	 34.8702
5.948000	 34.753
6.032000	 35.0356
6.116000	 34.6574
6.200000	 35.1044
6.284000	 34.6854
6.368000	 34.804
6.452000	 34.888
6.536000	 34.4354
6.620000	 34.8023
6.704000	 34.7189
6.788000	 34.2846
6.872000	 34.8221
6.956000	 34.6557
7.040000	 34.2396
7.124000	 34.6286
7.208000	 34.6434
7.292000	 33.9336
7.376000	 34.1062
7.460000	 34.5307
7.544000	 34.0662
7.628000	 33.7729
7.712000	 34.0992
7.796000	 34.3364
7.880000	 33.8256
7.964000	 33.6727
8.048000	 33.9665
8.132000	 34.321
8.216000	 33.7563
8.300000	 33.342
8.384000	 33.6487
8.468000	 34.1033
8.552000	 33.861
8.635999	 33.2574
8.719999	 32.9541
8.804000	 33.4357
8.888000	 33.6691
8.972000	 33.5698
9.056000	 33.0248
9.140000	 32.8206
9.224000	 33.0679
9.308000	 33.4925
9.391999	 33.2908
9.475999	 33.0158
9.560000	 32.3629
9.644000	 32.339
9.728000	 32.6474
9.812000	 32.9477
9.896000	 32.9651
9.980000	 32.6984
10.064	32.1782
10.148	31.9262
10.232	32.0602
10.316	32.4556
10.4	32.496
10.484	32.3702
10.568	31.9816
10.652	31.677
10.736	31.3209
10.82	31.2257
10.904	31.6066
10.988	31.9257
11.072	31.8869
11.156	31.6983
11.24	31.2679
11.324	30.9748
11.408	30.8747
11.492	30.7911
11.576	30.9771
11.66	31.1718
11.744	31.3121
11.828	31.2627
11.912	31.0388
11.996	30.5401
12.08	30.2753
12.164	30.2473
12.248	30.0984
12.332	30.1978
12.416	30.4971
12.5	30.5345
12.584	30.4388
12.668	30.2654
12.752	30.1046
12.836	29.6977
12.92	29.4264
13.004	29.2857
13.088	29.1024
13.172	29.2603
13.256	29.6135
13.34	29.6948
13.424	29.6627
13.508	29.6456
13.592	29.4904
13.676	29.2897
13.76	28.9741
13.844	28.4849
13.928	28.1945
14.012	28.14
14.096	28.0985
14.18	28.075
14.264	28.1843
14.348	28.2967
14.432	28.2813
14.516	28.2604
14.6	28.32
14.684	28.3163
14.768	28.1534
14.852	27.8846
14.936	27.53
15.02	27.1797
15.104	27.0821
15.188	27.2425
15.272	27.3471
15.356	27.2816
15.44	27.2254
15.524	27.2951
15.608	27.4836
15.692	27.7278
15.776	27.8281
15.86	27.6332
15.944	27.2555
16.028	26.9249
16.112	26.7178
16.196	26.5356
16.28	26.326
16.364	26.1852
16.448	26.1765
16.532	26.1971
16.616	26.1547
16.7	26.0875
16.784	26.0364
16.868	26.0003
16.952	25.9875
17.036	26.0037
17.12	26.0344
17.204	26.0706
17.288	26.101
17.372	26.0722
17.456	25.9148
17.54	25.6247
17.624	25.2783
17.708	24.9631
17.792	24.7246
17.876	24.5793
17.96	24.5352
18.044	24.5861
18.128	24.6845
18.212	24.7368
18.296	24.6682
18.38	24.5334
18.464	24.4986
18.548	24.6521
18.632	24.8667
18.716	24.9445
18.8	24.8606
18.884	24.7648
18.968	24.7512
19.052	24.7298
19.136	24.5614
19.22	24.2448
19.304	23.9254
19.388	23.7436
19.472	23.7275
19.556	23.8125
19.64	23.9128
19.724	23.9563
19.808	23.8916
19.892	23.7098
19.976	23.4602
20.06	23.2325
20.144	23.1122
20.228	23.1427
20.312	23.3069
20.396	23.5309
20.48	23.7177
20.564	23.7947
20.648	23.7447
20.732	23.6122
20.816	23.4719
20.9	23.3846
20.984	23.3654
21.068	23.381
21.152	23.3857
21.236	23.3498
21.32	23.2722
21.404	23.1622
21.488	23.022
21.572	22.8445
21.656	22.6356
21.74	22.4296
21.824	22.2898
21.908	22.2748
21.992	22.3874
22.076	22.5546
22.16	22.6481
22.244	22.5474
22.328	22.2086
22.412	21.6723
22.496	21.0505
22.58	20.4646
22.664	19.9999
22.748	19.6784
22.832	19.4654
22.916	19.2959
23	19.1141
23.084	18.8971
23.168	18.6639
23.252	18.4646
23.336	18.3585
23.42	18.3551
23.504	18.4415
23.588	18.5947
23.672	18.8045
23.756	19.0881
23.84	19.4391
23.924	19.8212
24.008	20.1584
24.092	20.3525
24.176	20.3513
24.26	20.1503
24.344	19.7729
24.428	19.2626
24.512	18.7092
24.596	18.1936
24.68	17.8424
24.764	17.8575
24.848	18.4309
24.932	19.6988
25.016	21.6467
25.1	24.0822
25.184	26.6713
25.268	29.0784
25.352	31.1046
25.436	32.6992
25.52	33.9975
25.604	35.2575
25.688	36.8037
25.772	38.8235
25.856	41.1972
25.94	43.5205
26.024	45.123
26.108	45.2706
26.192	43.4509
26.276	39.5302
26.36	33.7833
26.444	27.0236
26.528	20.3871
26.612	15.0219
26.696	11.6937
26.78	10.4997
26.864	10.9575
26.948	12.4128
27.028	14.4263

File: LPE453_t75_cm-1.asc
PE IR       SPECTRUM    SPECTRUM    ASCII       PEDS        1.60
  -1
LPEADA~1.ASC
17/05/16
20:31:57.00
17/05/16
20:31:57.00
tln
$LPE453_t0075$<tbV0>[-7.8,2.6,8.0,0.0,27,1,0]
370
64

2002,4.07
MIRTGS : RIGHTBACK : INTERNAL 2
MIR : ON : INTERNAL 2
OPTKBR

0.200000
8
8.000000
FILLER
RATIO
SPECTRUM
UNLOCKED 256

DOUBLE
64
COMBINED
1
0
0

1.000000
RATIO

1
0
TRUE
51149
0
LEFT NOT FITTED RIGHT NOT FITTED 0
NONE
NONE
15600
12
4.427000
51148
TRUE
1 0 8 72 0 0 0 0

15798

#HDR
-1
-1
#GR
CM-1
%T
2.38419e-05
0.0
5000
-1.000000
4631
8
45.2929
-13.88
#DATA
5000	0.034594
4984	0.712227
4968	0.165271
4952	-0.261521
4936	0.261092
4920	0.059723
4904	0.129413
4888	0.220298
4872	-0.041770
4856	0.012111
4840	0.404381
4824	0.119447
4808	0.347208
4792	-0.476598
4776	0.060081
4760	-0.074028
4744	0.490450
4728	1.820731
4712	1.228666
4696	0.406765
4680	0.647854
4664	1.383423
4648	0.367760
4632	-0.346016
4616	0.538492
4600	0.279450
4584	0.186324
4568	-0.022435
4552	0.509262
4536	-0.473713
4520	-0.796675
4504	-5.003166
4488	15.2301
4472	0.844860
4456	0.470757
4440	-0.165557
4424	0.217914
4408	-0.229358
4392	-0.163936
4376	-0.040245
4360	0.135183
4344	0.095605
4328	0.109934
4312	0.171232
4296	0.018215
4280	0.176548
4264	0.385165
4248	0.097131
4232	-0.157999
4216	-0.075650
4200	-0.081872
4184	-0.106811
4168	0.412702
4152	0.057911
4136	-0.085473
4120	0.157642
4104	0.168299
4088	0.149774
4072	-0.047469
4056	0.088286
4040	0.063776
4024	0.140810
4008	-0.179839
3992	0.137305
3976	0.078678
3960	0.126600
3944	-0.071549
3928	0.097560
3912	0.111985
3896	0.033307
3880	0.055146
3864	-0.169491
3848	0.163483
3832	0.116729
3816	-0.190424
3800	0.239777
3784	0.066542
3768	-0.149822
3752	0.088000
3736	0.196361
3720	0.104761
3704	0.094699
3688	0.008964
3672	0.243282
3656	0.011897
3640	0.119781
3624	-0.102782
3608	0.023627
3592	0.042772
3576	-0.031113
3560	0.017404
3544	0.088167
3528	0.111627
3512	0.211334
3496	0.038075
3480	0.067949
3464	0.092148
3448	0.118732
3432	-0.014233
3416	0.149083
3400	0.045657
3384	0.147724
3368	0.093412
3352	0.164246
3336	0.043630
3320	-0.046539
3304	-0.002741
3288	-0.059151
3272	-0.045013
3256	0.173234
3240	0.166797
3224	0.034451
3208	0.086808
3192	-0.011134
3176	0.029945
3160	0.128078
3144	0.049781
3128	0.014019
3112	-0.074768
3096	0.111627
3080	0.069046
3064	0.115013
3048	-0.008535
3032	0.073647
3016	0.042557
3000	0.035023
2984	0.075483
2968	0.012183
2952	0.083875
2936	0.049328
2920	-0.025868
2904	0.173091
2888	0.039768
2872	0.111126
2856	0.036954
2840	0.031971
2824	0.024080
2808	0.059914
2792	0.087451
2776	-0.056314
2760	0.049877
2744	0.023484
2728	0.090360
2712	-0.076103
2696	-0.044822
2680	0.060510
2664	-0.025582
2648	0.039911
2632	0.013399
2616	0.052285
2600	0.015497
2584	-0.022053
2568	0.074458
2552	0.007891
2536	-0.033831
2520	-0.104665
2504	0.128197
2488	-0.004887
2472	0.048589
2456	0.074100
2440	0.024223
2424	0.058341
2408	-0.002121
2392	0.132369
2376	0.101447
2360	0.098991
2344	0.142502
2328	0.161862
2312	0.448179
2296	0.447034
2280	0.766539
2264	1.077461
2248	1.489639
2232	2.210259
2216	3.144454
2200	4.116725
2184	5.413556
2168	7.044672
2152	8.556985
2136	10.4809
2120	12.5332
2104	14.6236
2088	16.6929
2072	18.8148
2056	20.7582
2040	22.3053
2024	24.0288
2008	25.5459
1992	26.7755
1976	28.0595
1960	29.0628
1944	29.8787
1928	30.8267
1912	31.5457
1896	31.9671
1880	32.5771
1864	33.0315
1848	33.2472
1832	33.6501
1816	34.1063
1800	34.0555
1784	34.2472
1768	34.5983
1752	34.5426
1736	34.3989
1720	34.8718
1704	34.8461
1688	34.6791
1672	34.9513
1656	35.0345
1640	34.6938
1624	34.7618
1608	35.1528
1592	34.7018
1576	34.5314
1560	34.998
1544	34.8325
1528	34.4156
1512	34.7515
1496	34.8093
1480	34.4547
1464	34.409
1448	34.8408
1432	34.4474
1416	34.2976
1400	34.7246
1384	34.4277
1368	33.8714
1352	34.2187
1336	34.523
1320	33.8517
1304	33.8915
1288	34.3641
1272	33.904
1256	33.6665
1240	34.0525
1224	34.1249
1208	33.4165
1192	33.6755
1176	34.0689
1160	33.3942
1144	33.0207
1128	33.6223
1112	33.4933
1096	32.7865
1080	33.2825
1064	33.2802
1048	32.4238
1032	32.4887
1016	33.0371
1000	32.5998
984	 31.9288
968	 32.4776
952	 32.2816
936	 31.5386
920	 31.4292
904	 31.901
888	 31.1694
872	 30.8012
856	 31.2151
840	 31.0718
824	 30.2693
808	 30.374
792	 30.3431
776	 29.4979
760	 29.2033
744	 29.6622
728	 29.0903
712	 28.1293
696	 28.3037
680	 28.2882
664	 27.0899
648	 27.2257
632	 27.7549
616	 26.4415
600	 26.113
584	 26.0357
568	 25.3539
552	 24.6708
536	 24.91
520	 24.2006
504	 23.8321
488	 23.7362
472	 23.3766
456	 22.2931
440	 19.7454
424	 18.5881
408	 18.7234
392	 33.8524
376	 15.9059
370	 14.4263

File: LPE453_t76.asc
PE IR       SPECTRUM    SPECTRUM    ASCII       PEDS        1.60
  -1
LPDFA1~1.ASC
17/05/16
20:36:34.00
17/05/16
20:37:00.00
tln
$LPE453_t0076$<tbV0>[-10.4,2.6,8.0,0.0,27,1,0]
27.028
64

2002,4.07
MIRTGS : RIGHTBACK : INTERNAL 2
MIR : ON : INTERNAL 2
OPTKBR

0.200000
8
8.000000
FILLER
RATIO
SPECTRUM
UNLOCKED 256

DOUBLE
64
COMBINED
1
0
0

0.002000
RATIO

1
0
TRUE
51149
0
LEFT NOT FITTED RIGHT NOT FITTED 0
NONE
NONE
15600
12
4.427000
51148
TRUE
1 0 8 72 0 0 0 0

15798

#HDR
-1
-1
#GR
µM
%T
2.38419e-05
0.0
2.000000
0.002000
12515
8
33.0615
-1.221912
#DATA
2.000000	 -0.038647
2.084000	 -0.366454
2.168000	 0.990494
2.252000	 -0.455219
2.336000	 -0.017183
2.420000	 0.173540
2.504000	 -0.123567
2.588000	 -0.072921
2.672000	 0.154444
2.756000	 0.015487
2.840000	 -0.015112
2.924000	 -0.005370
3.008000	 0.036846
3.092000	 -0.030134
3.176000	 0.044770
3.260000	 0.031056
3.344000	 0.040455
3.428000	 0.071475
3.512000	 0.024525
3.596000	 0.023982
3.680000	 0.050012
3.764000	 0.022463
3.848000	 0.013527
3.932000	 0.051152
4.016000	 0.141247
4.100000	 -0.027462
4.184000	 -0.170380
4.268000	 0.183998
4.352000	 0.262774
4.436000	 1.140183
4.520000	 2.692829
4.604000	 5.614247
4.688000	 9.569106
4.772000	 14.0434
4.856000	 18.3806
4.940000	 22.0712
5.024000	 24.9251
5.108000	 27.2658
5.192000	 28.886
5.276000	 29.9798
5.359999	 31.0369
5.444000	 31.6
5.528000	 31.9458
5.612000	 32.3048
5.696000	 32.5262
5.780000	 32.6917
5.864000	 32.782
5.948000	 32.9024
6.032000	 32.9818
6.116000	 32.9282
6.200000	 32.958
6.284000	 32.8044
6.368000	 32.9184
6.452000	 32.7477
6.536000	 32.7751
6.620000	 32.8802
6.704000	 32.676
6.788000	 32.6764
6.872000	 32.6212
6.956000	 32.5461
7.040000	 32.657
7.124000	 32.5202
7.208000	 32.3322
7.292000	 32.3533
7.376000	 32.3858
7.460000	 32.2083
7.544000	 32.1483
7.628000	 32.3132
7.712000	 32.1157
7.796000	 31.9733
7.880000	 31.9717
7.964000	 32.1249
8.048000	 31.887
8.132000	 31.68
8.216000	 31.9709
8.300000	 31.9062
8.384000	 31.8084
8.468000	 31.5734
8.552000	 31.6737
8.635999	 31.8118
8.719999	 31.6195
8.804000	 31.4862
8.888000	 31.2262
8.972000	 31.4201
9.056000	 31.3604
9.140000	 31.2963
9.224000	 31.0916
9.308000	 30.9509
9.391999	 31.0796
9.475999	 31.0944
9.560000	 31.1443
9.644000	 31.0031
9.728000	 30.7375
9.812000	 30.8574
9.896000	 30.8757
9.980000	 30.8419
10.064	30.8717
10.148	30.6918
10.232	30.5336
10.316	30.3057
10.4	30.1986
10.484	30.4058
10.568	30.361
10.652	30.4167
10.736	30.2849
10.82	29.9425
10.904	29.8718
10.988	29.7116
11.072	29.903
11.156	30.0383
11.24	29.9733
11.324	29.8344
11.408	29.6031
11.492	29.4787
11.576	29.1588
11.66	29.0507
11.744	29.1117
11.828	29.2654
11.912	29.477
11.996	29.3957
12.08	29.1603
12.164	28.8822
12.248	28.7141
12.332	28.714
12.416	28.5649
12.5	28.3448
12.584	28.3221
12.668	28.5044
12.752	28.4937
12.836	28.5153
12.92	28.4339
13.004	28.1072
13.088	27.8459
13.172	27.7171
13.256	27.6817
13.34	27.8111
13.424	27.9017
13.508	27.847
13.592	27.9205
13.676	28.0288
13.76	27.9481
13.844	27.7924
13.928	27.4973
14.012	27.1724
14.096	27.024
14.18	26.7469
14.264	26.3513
14.348	26.2814
14.432	26.5048
14.516	26.7204
14.6	26.7122
14.684	26.6639
14.768	26.791
14.852	26.9061
14.936	26.86
15.02	26.7812
15.104	26.6864
15.188	26.447
15.272	26.1075
15.356	25.7777
15.44	25.531
15.524	25.4228
15.608	25.3885
15.692	25.3276
15.776	25.3136
15.86	25.4397
15.944	25.5411
16.028	25.516
16.112	25.5213
16.196	25.6124
16.28	25.7135
16.364	25.808
16.448	25.8101
16.532	25.6043
16.616	25.2615
16.7	24.9102
16.784	24.5718
16.868	24.2909
16.952	24.1763
17.036	24.269
17.12	24.5178
17.204	24.811
17.288	24.9717
17.372	24.8592
17.456	24.5462
17.54	24.2818
17.624	24.2206
17.708	24.2778
17.792	24.2919
17.876	24.2128
17.96	24.0732
18.044	23.8867
18.128	23.6729
18.212	23.4953
18.296	23.3898
18.38	23.3172
18.464	23.2459
18.548	23.2105
18.632	23.225
18.716	23.2272
18.8	23.1698
18.884	23.1106
18.968	23.1402
19.052	23.2532
19.136	23.354
19.22	23.3767
19.304	23.3455
19.388	23.3176
19.472	23.3048
19.556	23.2608
19.64	23.1378
19.724	22.9462
19.808	22.7524
19.892	22.6162
19.976	22.5356
20.06	22.4593
20.144	22.3568
20.228	22.2547
20.312	22.1854
20.396	22.1213
20.48	21.9847
20.564	21.7382
20.648	21.443
20.732	21.2168
20.816	21.1386
20.9	21.1909
20.984	21.2988
21.068	21.3968
21.152	21.462
21.236	21.4932
21.32	21.4945
21.404	21.4842
21.488	21.517
21.572	21.6573
21.656	21.9234
21.74	22.2488
21.824	22.4926
21.908	22.5228
21.992	22.3045
22.076	21.9078
22.16	21.4586
22.244	21.0525
22.328	20.7167
22.412	20.4361
22.496	20.1958
22.58	19.9954
22.664	19.8231
22.748	19.6256
22.832	19.3319
22.916	18.9095
23	18.435
23.084	18.066
23.168	17.9823
23.252	18.2563
23.336	18.7956
23.42	19.3741
23.504	19.7466
23.588	19.7844
23.672	19.525
23.756	19.14
23.84	18.8137
23.924	18.6502
24.008	18.6444
24.092	18.728
24.176	18.8472
24.26	18.9798
24.344	19.1206
24.428	19.2461
24.512	19.2727
24.596	19.0657
24.68	18.5273
24.764	17.6936
24.848	16.7194
24.932	15.8473
25.016	15.2977
25.1	15.1816
25.184	15.438
25.268	15.8571
25.352	16.1961
25.436	16.2077
25.52	15.797
25.604	15.0956
25.688	14.3757
25.772	13.9575
25.856	14.0907
25.94	14.9601
26.024	16.582
26.108	18.7227
26.192	20.8061
26.276	22.0433
26.36	21.5803
26.444	19.0609
26.528	14.8305
26.612	9.862944
26.696	5.354616
26.78	2.274670
26.864	0.976661
26.948	1.309878
27.028	2.897691