Folder: Masteroppgave/Bakgrunnsmateriale/MATLAB/FTIR/ftir_data/LPE453/Mapping_121 (part 14)

File: LPE453_t26_cm-1.asc
PE IR       SPECTRUM    SPECTRUM    ASCII       PEDS        1.60
  -1
LP685A~1.ASC
17/05/16
16:31:06.00
17/05/16
16:31:06.00
tln
$LPE453_t0026$<tbV0>[5.2,-7.8,8.0,0.0,27,1,0]
370
64

2002,4.07
MIRTGS : RIGHTBACK : INTERNAL 2
MIR : ON : INTERNAL 2
OPTKBR

0.200000
8
8.000000
FILLER
RATIO
SPECTRUM
UNLOCKED 256

DOUBLE
64
COMBINED
1
0
0

1.000000
RATIO

1
0
TRUE
51149
0
LEFT NOT FITTED RIGHT NOT FITTED 0
NONE
NONE
15600
12
4.427000
51148
TRUE
1 0 8 72 0 0 0 0

15798

#HDR
-1
-1
#GR
CM-1
%T
2.38419e-05
0.0
5000
-1.000000
4631
8
28.9836
-4.080152
#DATA
5000	0.228953
4984	0.046801
4968	0.673294
4952	-0.310826
4936	0.160813
4920	0.318264
4904	0.203847
4888	0.260448
4872	0.346922
4856	0.380802
4840	0.463271
4824	0.276923
4808	0.185012
4792	-0.047349
4776	0.397682
4760	0.330352
4744	0.359964
4728	0.207996
4712	-0.069093
4696	0.301909
4680	0.613808
4664	0.487780
4648	0.596070
4632	0.200700
4616	0.933337
4600	-0.395798
4584	-1.127910
4568	-1.869845
4552	-3.525304
4536	-1.443219
4520	2.551698
4504	14.7541
4488	-1.259660
4472	-1.729941
4456	-1.140880
4440	-1.475214
4424	-0.704002
4408	0.194334
4392	0.659012
4376	0.619411
4360	0.506377
4344	0.361704
4328	0.193262
4312	-0.056672
4296	0.354099
4280	0.053596
4264	0.376772
4248	0.341796
4232	-0.059747
4216	0.276279
4200	0.607490
4184	-0.058817
4168	0.281620
4152	0.274348
4136	0.370240
4120	0.250101
4104	-0.041770
4088	0.132513
4072	0.047230
4056	-0.142049
4040	0.038647
4024	0.120544
4008	0.041961
3992	0.103402
3976	0.192975
3960	0.056052
3944	0.043916
3928	-0.106859
3912	0.104761
3896	0.143694
3880	0.148367
3864	0.038409
3848	0.040221
3832	0.194811
3816	0.089240
3800	0.103926
3784	0.098800
3768	-0.110340
3752	0.071620
3736	0.155806
3720	0.077557
3704	0.026369
3688	0.142884
3672	0.066471
3656	0.108098
3640	-0.068974
3624	0.013399
3608	0.138044
3592	0.042772
3576	0.108337
3560	0.079083
3544	0.039172
3528	0.005817
3512	-0.130939
3496	0.073051
3480	0.048661
3464	0.008821
3448	-0.051712
3432	0.101852
3416	-0.108218
3400	-0.050950
3384	-0.008988
3368	0.116491
3352	0.093030
3336	0.123524
3320	-0.019001
3304	0.023365
3288	0.180745
3272	0.140380
3256	0.054550
3240	-0.019168
3224	0.053143
3208	-0.159358
3192	0.016450
3176	-0.031995
3160	-0.192284
3144	0.110197
3128	0.034666
3112	-0.038409
3096	0.232815
3080	0.101280
3064	-0.009846
3048	0.180125
3032	-0.044703
3016	0.050830
3000	0.060224
2984	0.069999
2968	0.273799
2952	0.105094
2936	0.050210
2920	0.043344
2904	0.113272
2888	0.012826
2872	0.102996
2856	0.197482
2840	-0.024890
2824	0.020670
2808	-0.012826
2792	0.095701
2776	-0.018906
2760	0.056838
2744	0.011849
2728	0.006151
2712	0.162291
2696	-0.012612
2680	0.059771
2664	0.035548
2648	-0.041365
2632	0.037002
2616	0.118494
2600	0.111126
2584	0.004482
2568	-0.039601
2552	0.039720
2536	-0.012564
2520	0.085091
2504	0.025606
2488	0.125837
2472	0.084543
2456	-0.003671
2440	0.020384
2424	-0.025629
2408	0.136065
2392	0.032639
2376	0.015020
2360	-0.039005
2344	-0.036668
2328	0.011205
2312	-0.011754
2296	-0.020480
2280	0.106406
2264	0.121140
2248	0.328731
2232	0.571203
2216	0.837755
2200	1.318287
2184	1.814365
2168	2.439045
2152	3.526377
2136	4.828095
2120	5.962061
2104	7.335996
2088	8.965945
2072	10.5727
2056	12.1298
2040	13.6552
2024	15.2132
2008	16.6695
1992	18.009
1976	19.2298
1960	20.1534
1944	21.1937
1928	21.9797
1912	22.797
1896	23.5345
1880	24.0548
1864	24.6558
1848	25.0236
1832	25.452
1816	25.6853
1800	25.9045
1784	26.3114
1768	26.308
1752	26.5165
1736	26.7059
1720	26.7681
1704	26.8949
1688	26.8455
1672	27.0025
1656	27.0929
1640	26.7382
1624	27.0901
1608	26.9935
1592	26.8911
1576	27.1707
1560	26.801
1544	26.9843
1528	27.0167
1512	26.6597
1496	27.0702
1480	26.7708
1464	26.6189
1448	27.0091
1432	26.4641
1416	26.7316
1400	26.5764
1384	26.3497
1368	26.6224
1352	26.2766
1336	26.2558
1320	26.471
1304	26.1169
1288	26.205
1272	26.1009
1256	25.8932
1240	26.0865
1224	25.7759
1208	25.6243
1192	25.7648
1176	25.5078
1160	25.4684
1144	25.4579
1128	25.2195
1112	25.13
1096	24.8851
1080	24.8105
1064	25.1901
1048	24.6131
1032	24.5017
1016	24.4673
1000	24.088
984	 24.3464
968	 23.9353
952	 23.5092
936	 23.8136
920	 23.2706
904	 23.0719
888	 23.2139
872	 22.5507
856	 22.7231
840	 22.276
824	 21.6384
808	 21.8143
792	 21.0895
776	 21.0143
760	 20.6244
744	 20.4501
728	 19.8455
712	 19.8643
696	 19.5086
680	 19.2962
664	 18.6985
648	 17.9325
632	 17.9968
616	 17.5522
600	 16.6288
584	 16.6755
568	 16.3986
552	 15.7777
536	 15.3606
520	 15.2317
504	 15.1637
488	 14.4987
472	 13.8757
456	 11.9546
440	 11.7133
424	 13.2048
408	 8.309769
392	 7.878470
376	 -1.680564
370	 26.132

File: LPE453_t27.asc
PE IR       SPECTRUM    SPECTRUM    ASCII       PEDS        1.60
  -1
LPDB95~1.ASC
17/05/16
16:35:42.00
17/05/16
16:36:09.00
tln
$LPE453_t0027$<tbV0>[2.6,-7.8,8.0,0.0,27,1,0]
27.028
64

2002,4.07
MIRTGS : RIGHTBACK : INTERNAL 2
MIR : ON : INTERNAL 2
OPTKBR

0.200000
8
8.000000
FILLER
RATIO
SPECTRUM
UNLOCKED 256

DOUBLE
64
COMBINED
1
0
0

0.002000
RATIO

1
0
TRUE
51149
0
LEFT NOT FITTED RIGHT NOT FITTED 0
NONE
NONE
15600
12
4.427000
51148
TRUE
1 0 8 72 0 0 0 0

15798

#HDR
-1
-1
#GR
µM
%T
2.38419e-05
0.0
2.000000
0.002000
12515
8
28.1651
-19.0796
#DATA
2.000000	 -0.009989
2.084000	 -0.030160
2.168000	 0.690158
2.252000	 0.024554
2.336000	 -0.034161
2.420000	 0.130820
2.504000	 0.326269
2.588000	 0.047092
2.672000	 0.124718
2.756000	 0.171492
2.840000	 -0.045445
2.924000	 0.052818
3.008000	 0.010772
3.092000	 0.132740
3.176000	 -0.018421
3.260000	 0.027791
3.344000	 0.050618
3.428000	 0.076069
3.512000	 0.174980
3.596000	 0.064635
3.680000	 0.030287
3.764000	 0.052074
3.848000	 0.043044
3.932000	 -0.082139
4.016000	 0.041287
4.100000	 0.006856
4.184000	 -0.095553
4.268000	 0.155896
4.352000	 -0.029467
4.436000	 0.285556
4.520000	 1.098292
4.604000	 2.758747
4.688000	 5.405188
4.772000	 9.019154
4.856000	 12.9219
4.940000	 16.2402
5.024000	 19.0979
5.108000	 21.4115
5.192000	 23.2127
5.276000	 24.5579
5.359999	 25.7936
5.444000	 26.433
5.528000	 26.8766
5.612000	 27.31
5.696000	 27.5873
5.780000	 27.7778
5.864000	 27.8405
5.948000	 27.9446
6.032000	 28.1215
6.116000	 27.979
6.200000	 27.8922
6.284000	 27.953
6.368000	 27.9745
6.452000	 27.9828
6.536000	 27.8312
6.620000	 27.9208
6.704000	 27.7441
6.788000	 27.7131
6.872000	 27.7472
6.956000	 27.5311
7.040000	 27.5576
7.124000	 27.5415
7.208000	 27.4901
7.292000	 27.4929
7.376000	 27.3898
7.460000	 27.4073
7.544000	 27.2149
7.628000	 27.1129
7.712000	 27.1938
7.796000	 27.0505
7.880000	 27.0388
7.964000	 27.0123
8.048000	 26.7827
8.132000	 26.8976
8.216000	 26.8046
8.300000	 26.6869
8.384000	 26.746
8.468000	 26.5784
8.552000	 26.6719
8.635999	 26.4815
8.719999	 26.3099
8.804000	 26.3352
8.888000	 26.1537
8.972000	 25.9922
9.056000	 26.1032
9.140000	 26.0723
9.224000	 25.9331
9.308000	 25.8993
9.391999	 25.7475
9.475999	 25.6521
9.560000	 25.6395
9.644000	 25.5545
9.728000	 25.5357
9.812000	 25.3328
9.896000	 25.2477
9.980000	 25.1844
10.064	25.2242
10.148	25.0667
10.232	25.0708
10.316	24.7711
10.4	24.6555
10.484	24.6287
10.568	24.7041
10.652	24.3287
10.736	24.1856
10.82	24.1009
10.904	24.0085
10.988	24.1871
11.072	24.2479
11.156	23.904
11.24	23.7084
11.324	23.4029
11.408	23.5715
11.492	23.6702
11.576	23.5312
11.66	23.5779
11.744	23.2383
11.828	22.9219
11.912	22.814
11.996	22.9586
12.08	22.9122
12.164	22.8944
12.248	22.6922
12.332	22.539
12.416	22.569
12.5	22.3817
12.584	22.1315
12.668	21.9104
12.752	21.9055
12.836	22.1576
12.92	22.0965
13.004	21.9528
13.088	21.6727
13.172	21.4156
13.256	21.3753
13.34	21.3548
13.424	21.5369
13.508	21.5183
13.592	21.2745
13.676	21.0782
13.76	20.9485
13.844	21.0621
13.928	21.1796
14.012	20.9385
14.096	20.6405
14.18	20.4574
14.264	20.3336
14.348	20.2987
14.432	20.3069
14.516	20.3361
14.6	20.4067
14.684	20.4424
14.768	20.2236
14.852	19.844
14.936	19.5798
15.02	19.5005
15.104	19.4741
15.188	19.3771
15.272	19.2904
15.356	19.2728
15.44	19.3478
15.524	19.5377
15.608	19.6325
15.692	19.4803
15.776	19.1984
15.86	18.9232
15.944	18.7079
16.028	18.5455
16.112	18.4561
16.196	18.5215
16.28	18.6667
16.364	18.6806
16.448	18.5322
16.532	18.3633
16.616	18.2026
16.7	18.0079
16.784	17.8693
16.868	17.8947
16.952	18.0068
17.036	17.9862
17.12	17.7245
17.204	17.3881
17.288	17.2242
17.372	17.2335
17.456	17.2184
17.54	17.0874
17.624	16.896
17.708	16.6968
17.792	16.5456
17.876	16.5231
17.96	16.6305
18.044	16.7726
18.128	16.8955
18.212	16.9978
18.296	17.0161
18.38	16.8505
18.464	16.5205
18.548	16.1852
18.632	15.9972
18.716	15.9927
18.8	16.102
18.884	16.1871
18.968	16.1015
19.052	15.8146
19.136	15.4793
19.22	15.3317
19.304	15.4939
19.388	15.8594
19.472	16.1841
19.556	16.2659
19.64	16.0743
19.724	15.7314
19.808	15.3998
19.892	15.1687
19.976	15.0452
20.06	15.0046
20.144	15.0062
20.228	14.9771
20.312	14.8352
20.396	14.567
20.48	14.2618
20.564	14.0585
20.648	14.0441
20.732	14.1997
20.816	14.4431
20.9	14.6895
20.984	14.8746
21.068	14.9427
21.152	14.8472
21.236	14.5823
21.32	14.2014
21.404	13.8092
21.488	13.5242
21.572	13.4301
21.656	13.5374
21.74	13.779
21.824	14.0451
21.908	14.234
21.992	14.2881
22.076	14.1992
22.16	14.0031
22.244	13.7675
22.328	13.5538
22.412	13.4075
22.496	13.3307
22.58	13.2911
22.664	13.25
22.748	13.1893
22.832	13.1258
22.916	13.0954
23	13.0958
23.084	13.0764
23.168	12.983
23.252	12.8099
23.336	12.5948
23.42	12.3801
23.504	12.1842
23.588	11.9405
23.672	11.531
23.756	10.8833
23.84	10.005
23.924	8.989404
24.008	8.000723
24.092	7.241333
24.176	6.868605
24.26	6.993038
24.344	7.648057
24.428	8.723901
24.512	9.920390
24.596	10.808
24.68	10.9676
24.764	10.2031
24.848	8.643777
24.932	6.882948
25.016	5.808981
25.1	6.250294
25.184	8.679255
25.268	12.8696
25.352	17.9327
25.436	22.5386
25.52	25.4268
25.604	25.8306
25.688	23.4986
25.772	18.7957
25.856	12.5637
25.94	6.052052
26.024	0.654613
26.108	-2.552151
26.192	-3.222888
26.276	-1.867514
26.36	0.185544
26.444	1.546100
26.528	1.325650
26.612	-0.544654
26.696	-3.566320
26.78	-7.001331
26.864	-10.4747
26.948	-14.024
27.028	-17.5223

File: LPE453_t27_cm-1.asc
PE IR       SPECTRUM    SPECTRUM    ASCII       PEDS        1.60
  -1
LP68DA~1.ASC
17/05/16
16:35:42.00
17/05/16
16:35:42.00
tln
$LPE453_t0027$<tbV0>[2.6,-7.8,8.0,0.0,27,1,0]
370
64

2002,4.07
MIRTGS : RIGHTBACK : INTERNAL 2
MIR : ON : INTERNAL 2
OPTKBR

0.200000
8
8.000000
FILLER
RATIO
SPECTRUM
UNLOCKED 256

DOUBLE
64
COMBINED
1
0
0

1.000000
RATIO

1
0
TRUE
51149
0
LEFT NOT FITTED RIGHT NOT FITTED 0
NONE
NONE
15600
12
4.427000
51148
TRUE
1 0 8 72 0 0 0 0

15798

#HDR
-1
-1
#GR
CM-1
%T
2.38419e-05
0.0
5000
-1.000000
4631
8
29.339
-19.2886
#DATA
5000	-0.009989
4984	0.166773
4968	0.972485
4952	-0.241374
4936	0.147509
4920	0.164914
4904	0.177741
4888	-0.534462
4872	0.114798
4856	-0.305199
4840	0.263833
4824	0.227212
4808	0.269508
4792	0.020265
4776	-0.191569
4760	-0.130414
4744	0.106215
4728	-0.171160
4712	-0.014209
4696	0.042629
4680	0.541567
4664	0.140500
4648	0.157308
4632	0.321221
4616	0.526857
4600	1.006817
4584	-0.513195
4568	-0.205540
4552	-0.009989
4536	1.419019
4520	8.939814
4504	-16.2897
4488	1.007819
4472	0.397729
4456	0.270795
4440	-0.002431
4424	0.673937
4408	0.800728
4392	0.200033
4376	0.311279
4360	0.277113
4344	-0.037074
4328	-0.076627
4312	-0.159835
4296	0.047612
4280	-0.052022
4264	0.162959
4248	-0.067377
4232	0.054526
4216	-0.002598
4200	0.098443
4184	0.096535
4168	-0.056171
4152	0.153160
4136	0.086212
4120	0.162911
4104	0.296592
4088	0.078105
4072	-0.124025
4056	0.071382
4040	0.135612
4024	0.418019
4008	0.193762
3992	0.306272
3976	0.195050
3960	0.196385
3944	0.213575
3928	0.256562
3912	0.104856
3896	0.130748
3880	0.179886
3864	0.046491
3848	0.018525
3832	0.017166
3816	0.075149
3800	0.003266
3784	0.027108
3768	-0.035881
3752	0.058913
3736	-0.048327
3720	0.143313
3704	0.089073
3688	0.097393
3672	0.003433
3656	-0.005292
3640	-0.136184
3624	0.185799
3608	-0.089883
3592	0.048732
3576	0.001478
3560	0.112414
3544	-0.027775
3528	-0.084090
3512	0.150609
3496	0.074815
3480	0.048851
3464	0.011181
3448	0.035405
3432	-0.029230
3416	-0.013804
3400	-0.002193
3384	0.051259
3368	-0.187182
3352	0.064826
3336	0.061941
3320	-0.026035
3304	0.085663
3288	0.078392
3272	0.137138
3256	0.082778
3240	0.058150
3224	0.002288
3208	0.021529
3192	0.088667
3176	0.103688
3160	-0.051546
3144	-0.011944
3128	0.144553
3112	0.055623
3096	0.022196
3080	-0.005912
3064	0.019693
3048	0.256347
3032	0.030398
3016	-0.087261
3000	0.119352
2984	0.071930
2968	0.033736
2952	-0.076246
2936	0.057983
2920	0.077390
2904	0.063610
2888	-0.040864
2872	0.070357
2856	0.213003
2840	-0.022625
2824	-0.042676
2808	0.022268
2792	0.086283
2776	0.023937
2760	-0.017499
2744	-0.000286
2728	-0.033211
2712	0.072336
2696	0.073552
2680	0.044584
2664	0.007557
2648	0.077199
2632	0.062823
2616	0.077176
2600	0.047087
2584	0.000119
2568	-0.019168
2552	0.011229
2536	-0.096869
2520	-0.019693
2504	0.179147
2488	0.092339
2472	0.049257
2456	0.015473
2440	0.011658
2424	0.086236
2408	0.015735
2392	-0.086402
2376	-0.012135
2360	0.109052
2344	0.164341
2328	-0.033736
2312	0.038409
2296	-0.025916
2280	0.079107
2264	0.111865
2248	0.383281
2232	0.600361
2216	1.080369
2200	1.413822
2184	2.131462
2168	2.997732
2152	4.049205
2136	5.223417
2120	6.577968
2104	8.008289
2088	9.638047
2072	11.6433
2056	13.3311
2040	14.6638
2024	16.2645
2008	17.6216
1992	18.9745
1976	20.2432
1960	21.2941
1944	22.2884
1928	23.1495
1912	23.8522
1896	24.5332
1880	25.1125
1864	25.8319
1848	26.1043
1832	26.4033
1816	26.8397
1800	26.9452
1784	27.2828
1768	27.4586
1752	27.5759
1736	27.7092
1720	27.794
1704	27.8253
1688	27.9758
1672	27.9366
1656	28.1325
1640	27.9768
1624	27.902
1608	27.939
1592	27.9518
1576	27.9673
1560	27.9224
1544	27.9292
1528	27.813
1512	27.9217
1496	27.8554
1480	27.7089
1464	27.6563
1448	27.6566
1432	27.5797
1416	27.525
1400	27.5404
1384	27.4315
1368	27.5108
1352	27.3484
1336	27.3799
1320	27.0761
1304	27.1636
1288	27.0679
1272	27.0368
1256	27.0188
1240	26.8183
1224	26.8917
1208	26.6925
1192	26.7276
1176	26.6083
1160	26.5204
1144	26.2658
1128	26.1674
1112	26.0316
1096	26.0729
1080	25.8954
1064	25.7251
1048	25.6262
1032	25.5042
1016	25.2033
1000	25.1478
984	 25.0778
968	 24.7423
952	 24.6954
936	 24.2781
920	 24.0146
904	 24.2644
888	 23.6283
872	 23.6854
856	 23.5333
840	 22.8102
824	 22.8988
808	 22.5498
792	 22.0321
776	 22.1512
760	 21.438
744	 21.5662
728	 20.9666
712	 20.806
696	 20.2982
680	 20.4145
664	 19.4931
648	 19.3347
632	 19.0393
616	 18.5899
600	 18.0866
584	 17.711
568	 16.9399
552	 16.8789
536	 15.9782
520	 15.335
504	 15.2945
488	 14.2242
472	 14.7574
456	 14.2624
440	 13.2059
424	 11.952
408	 9.891915
392	 25.2118
376	 -0.076079
370	 -17.5223

File: LPE453_t28.asc
PE IR       SPECTRUM    SPECTRUM    ASCII       PEDS        1.60
  -1
LPEB99~1.ASC
17/05/16
16:40:19.00
17/05/16
16:40:45.00
tln
$LPE453_t0028$<tbV0>[0.0,-7.8,8.0,0.0,27,1,0]
27.028
64

2002,4.07
MIRTGS : RIGHTBACK : INTERNAL 2
MIR : ON : INTERNAL 2
OPTKBR

0.200000
8
8.000000
FILLER
RATIO
SPECTRUM
UNLOCKED 256

DOUBLE
64
COMBINED
1
0
0

0.002000
RATIO

1
0
TRUE
51149
0
LEFT NOT FITTED RIGHT NOT FITTED 0
NONE
NONE
15600
12
4.427000
51148
TRUE
1 0 8 72 0 0 0 0

15798

#HDR
-1
-1
#GR
µM
%T
2.38419e-05
0.0
2.000000
0.002000
12515
8
54.7985
-13.2571
#DATA
2.000000	 -0.045609
2.084000	 0.237260
2.168000	 -0.061695
2.252000	 -0.368159
2.336000	 0.062194
2.420000	 -0.098008
2.504000	 0.114154
2.588000	 0.043958
2.672000	 -0.131756
2.756000	 -0.002051
2.840000	 0.020220
2.924000	 0.086945
3.008000	 0.053203
3.092000	 0.169576
3.176000	 0.004075
3.260000	 -0.016747
3.344000	 -0.093338
3.428000	 0.050809
3.512000	 -0.076416
3.596000	 0.067430
3.680000	 -0.075289
3.764000	 0.052615
3.848000	 -0.039001
3.932000	 -0.072325
4.016000	 0.110891
4.100000	 0.072710
4.184000	 -0.018238
4.268000	 0.093823
4.352000	 0.216750
4.436000	 0.628326
4.520000	 2.015298
4.604000	 4.248486
4.688000	 7.747767
4.772000	 11.8354
4.856000	 16.1375
4.940000	 19.7072
5.024000	 22.6181
5.108000	 24.8749
5.192000	 26.4183
5.276000	 27.8371
5.359999	 28.7338
5.444000	 29.3409
5.528000	 29.9172
5.612000	 30.2633
5.696000	 30.6256
5.780000	 30.7697
5.864000	 30.8416
5.948000	 30.9223
6.032000	 31.1411
6.116000	 31.068
6.200000	 31.0694
6.284000	 30.9776
6.368000	 30.9928
6.452000	 31.095
6.536000	 30.9476
6.620000	 31.124
6.704000	 31.0034
6.788000	 30.9355
6.872000	 31.1274
6.956000	 30.7872
7.040000	 30.9098
7.124000	 30.7981
7.208000	 30.8219
7.292000	 30.7756
7.376000	 30.7483
7.460000	 30.6502
7.544000	 30.6461
7.628000	 30.7184
7.712000	 30.6504
7.796000	 30.4776
7.880000	 30.4597
7.964000	 30.3862
8.048000	 30.4152
8.132000	 30.367
8.216000	 30.2239
8.300000	 30.3189
8.384000	 30.1085
8.468000	 30.1577
8.552000	 30.2329
8.635999	 29.9525
8.719999	 30.0331
8.804000	 30.0644
8.888000	 29.9851
8.972000	 29.8923
9.056000	 29.8686
9.140000	 30.0051
9.224000	 29.8491
9.308000	 29.7557
9.391999	 29.442
9.475999	 29.6036
9.560000	 29.5246
9.644000	 29.3673
9.728000	 29.3076
9.812000	 29.23
9.896000	 29.0294
9.980000	 29.1819
10.064	28.9512
10.148	29.092
10.232	29.0983
10.316	28.9114
10.4	28.6539
10.484	28.5655
10.568	28.4948
10.652	28.3938
10.736	28.4258
10.82	28.4394
10.904	28.3487
10.988	28.2596
11.072	28.0664
11.156	28.0392
11.24	28.0202
11.324	27.9006
11.408	27.8853
11.492	27.7799
11.576	27.464
11.66	27.4411
11.744	27.3492
11.828	27.1568
11.912	27.2055
11.996	27.3229
12.08	27.3373
12.164	27.3
12.248	27.1662
12.332	26.7385
12.416	26.5839
12.5	26.6115
12.584	26.599
12.668	26.5082
12.752	26.3664
12.836	26.4938
12.92	26.4836
13.004	26.2847
13.088	26.1954
13.172	26.0184
13.256	26.1853
13.34	26.4675
13.424	26.2472
13.508	25.8093
13.592	25.4711
13.676	25.42
13.76	25.6392
13.844	25.7396
13.928	25.4816
14.012	25.1503
14.096	24.9434
14.18	24.8366
14.264	24.731
14.348	24.6567
14.432	24.6864
14.516	24.7653
14.6	24.8968
14.684	24.9294
14.768	24.7494
14.852	24.5661
14.936	24.411
15.02	24.2575
15.104	24.2353
15.188	24.1927
15.272	24.0078
15.356	23.8642
15.44	23.7542
15.524	23.5371
15.608	23.3231
15.692	23.3532
15.776	23.6484
15.86	23.9978
15.944	24.1577
16.028	24.0381
16.112	23.728
16.196	23.3205
16.28	22.9044
16.364	22.6854
16.448	22.7735
16.532	22.9825
16.616	23.052
16.7	22.9167
16.784	22.7112
16.868	22.5918
16.952	22.5046
17.036	22.292
17.12	21.9949
17.204	21.7989
17.288	21.801
17.372	21.974
17.456	22.2226
17.54	22.4051
17.624	22.4231
17.708	22.2875
17.792	22.0613
17.876	21.8014
17.96	21.5359
18.044	21.2667
18.128	21.0168
18.212	20.8456
18.296	20.77
18.38	20.7172
18.464	20.6302
18.548	20.5729
18.632	20.6475
18.716	20.861
18.8	21.1278
18.884	21.3526
18.968	21.4736
19.052	21.4463
19.136	21.2368
19.22	20.8522
19.304	20.3798
19.388	19.9811
19.472	19.82
19.556	19.9465
19.64	20.2481
19.724	20.5412
19.808	20.7108
19.892	20.7535
19.976	20.7049
20.06	20.5638
20.144	20.2995
20.228	19.914
20.312	19.4745
20.396	19.0805
20.48	18.8189
20.564	18.7416
20.648	18.8538
20.732	19.1034
20.816	19.3873
20.9	19.5891
20.984	19.6476
21.068	19.5968
21.152	19.5439
21.236	19.5829
21.32	19.7122
21.404	19.8287
21.488	19.8135
21.572	19.6267
21.656	19.3329
21.74	19.0481
21.824	18.8482
21.908	18.7224
21.992	18.6133
22.076	18.4797
22.16	18.3358
22.244	18.235
22.328	18.2094
22.412	18.2535
22.496	18.3169
22.58	18.3269
22.664	18.2202
22.748	17.9659
22.832	17.5803
22.916	17.1444
23	16.7804
23.084	16.6065
23.168	16.701
23.252	17.0464
23.336	17.5196
23.42	17.9827
23.504	18.2693
23.588	18.2648
23.672	17.9432
23.756	17.3442
23.84	16.5578
23.924	15.7524
24.008	15.1237
24.092	14.8502
24.176	15.0922
24.26	15.8838
24.344	17.1144
24.428	18.5727
24.512	19.9804
24.596	21.1038
24.68	21.6621
24.764	21.2801
24.848	19.6317
24.932	16.4536
25.016	11.7298
25.1	5.812869
25.184	-0.584410
25.268	-6.517729
25.352	-11.0101
25.436	-13.1603
25.52	-12.4598
25.604	-8.920901
25.688	-2.993352
25.772	4.472338
25.856	12.4061
25.94	19.5657
26.024	24.7887
26.108	27.3812
26.192	27.4835
26.276	26.0248
26.36	24.5383
26.444	24.4069
26.528	26.3531
26.612	30.0667
26.696	34.7632
26.78	39.7349
26.864	44.6979
26.948	49.7609
27.028	54.7985

File: LPE453_t28_cm-1.asc
PE IR       SPECTRUM    SPECTRUM    ASCII       PEDS        1.60
  -1
LP6859~1.ASC
17/05/16
16:40:19.00
17/05/16
16:40:19.00
tln
$LPE453_t0028$<tbV0>[0.0,-7.8,8.0,0.0,27,1,0]
370
64

2002,4.07
MIRTGS : RIGHTBACK : INTERNAL 2
MIR : ON : INTERNAL 2
OPTKBR

0.200000
8
8.000000
FILLER
RATIO
SPECTRUM
UNLOCKED 256

DOUBLE
64
COMBINED
1
0
0

1.000000
RATIO

1
0
TRUE
51149
0
LEFT NOT FITTED RIGHT NOT FITTED 0
NONE
NONE
15600
12
4.427000
51148
TRUE
1 0 8 72 0 0 0 0

15798

#HDR
-1
-1
#GR
CM-1
%T
2.38419e-05
0.0
5000
-1.000000
4631
8
54.7985
-13.2264
#DATA
5000	-0.045609
4984	-0.184845
4968	0.379729
4952	0.368833
4936	-0.071001
4920	0.090909
4904	-0.091052
4888	0.274205
4872	0.955700
4856	0.084996
4840	0.732302
4824	0.320625
4808	0.217914
4792	0.162148
4776	0.398898
4760	0.265860
4744	0.098991
4728	0.385141
4712	0.078177
4696	0.066709
4680	0.245785
4664	0.344014
4648	-0.322198
4632	0.170111
4616	-0.201964
4600	-0.612735
4584	-0.233936
4568	-0.095343
4552	-0.101423
4536	-2.728176
4520	1.928067
4504	12.6706
4488	0.298023
4472	-0.590825
4456	-1.088356
4440	-0.426197
4424	-0.036001
4408	0.469493
4392	0.176715
4376	0.181508
4360	0.109982
4344	0.209927
4328	0.411820
4312	0.237870
4296	0.117969
4280	0.036430
4264	-0.023007
4248	0.244164
4232	0.257539
4216	0.204372
4200	0.169420
4184	-0.230073
4168	0.079560
4152	0.232553
4136	-0.049233
4120	0.072789
4104	0.025486
4088	-0.009107
4072	-0.129866
4056	-0.126481
4040	-0.035190
4024	0.071239
4008	0.146508
3992	0.104475
3976	0.121450
3960	0.161457
3944	0.083589
3928	0.007343
3912	-0.043511
3896	0.132751
3880	0.014591
3864	0.044178
3848	-0.078773
3832	-0.230860
3816	0.019168
3800	0.215744
3784	0.014829
3768	0.132369
3752	-0.084710
3736	-0.095891
3720	0.042390
3704	0.042271
3688	-0.012803
3672	0.118994
3656	0.102567
3640	0.024628
3624	0.037908
3608	0.118875
3592	-0.103855
3576	0.019979
3560	0.051188
3544	0.123786
3528	0.000500
3512	-0.017428
3496	0.044226
3480	-0.009703
3464	-0.078177
3448	0.035905
3432	-0.090050
3416	0.046825
3400	0.148367
3384	0.020647
3368	-0.067043
3352	-0.192475
3336	-0.033402
3320	0.039553
3304	-0.029873
3288	0.031185
3272	0.108480
3256	-0.037741
3240	0.151801
3224	0.075387
3208	-0.062823
3192	0.078225
3176	0.001645
3160	0.083446
3144	-0.002360
3128	0.150918
3112	0.229287
3096	0.012373
3080	0.078296
3064	-0.027918
3048	0.022220
3032	0.114440
3016	0.009799
3000	0.015640
2984	-0.072264
2968	0.034737
2952	0.069284
2936	-0.057029
2920	0.027966
2904	0.081300
2888	0.066232
2872	0.118231
2856	0.221800
2840	-0.096225
2824	0.198101
2808	-0.031304
2792	0.056242
2776	0.067043
2760	0.133252
2744	0.051331
2728	0.078892
2712	-0.090217
2696	-0.007247
2680	0.043773
2664	0.108575
2648	0.059032
2632	0.042033
2616	0.013375
2600	-0.037622
2584	0.010395
2568	0.010323
2552	-0.029492
2536	-0.045418
2520	0.074005
2504	0.026726
2488	0.081968
2472	0.083661
2456	-0.096559
2440	0.077390
2424	0.201439
2408	0.094294
2392	-0.023245
2376	0.020313
2360	0.027894
2344	0.097060
2328	0.125169
2312	0.053644
2296	0.253582
2280	0.360918
2264	0.478720
2248	0.800347
2232	1.150178
2216	1.840853
2200	2.405810
2184	3.416347
2168	4.399538
2152	6.114482
2136	7.466840
2120	9.060907
2104	10.7979
2088	12.7735
2072	14.5091
2056	16.526
2040	18.0275
2024	19.7291
2008	21.0365
1992	22.5149
1976	23.5673
1960	24.7355
1944	25.6225
1928	26.342
1912	27.1108
1896	27.8148
1880	28.2491
1864	28.7433
1848	29.1
1832	29.4681
1816	29.8235
1800	30.0975
1784	30.2686
1768	30.3208
1752	30.5782
1736	30.7096
1720	30.8311
1704	30.8266
1688	30.938
1672	30.9521
1656	31.1409
1640	31.1643
1624	31.0966
1608	31.0243
1592	30.9937
1576	31.0443
1560	31.0716
1544	31.0889
1528	30.9685
1512	31.1095
1496	31.0041
1480	30.9117
1464	30.9184
1448	30.967
1432	30.8932
1416	30.8807
1400	30.8134
1384	30.8016
1368	30.7158
1352	30.7981
1336	30.6831
1320	30.6727
1304	30.7574
1288	30.4528
1272	30.527
1256	30.3889
1240	30.4121
1224	30.2365
1208	30.3281
1192	30.0892
1176	30.2376
1160	29.9588
1144	30.045
1128	29.9794
1112	29.9453
1096	29.9351
1080	29.8046
1064	29.4481
1048	29.5541
1032	29.3613
1016	29.1426
1000	29.1675
984	 29.1507
968	 28.879
952	 28.5597
936	 28.3835
920	 28.3555
904	 28.0829
888	 28.0074
872	 27.881
856	 27.4385
840	 27.1953
824	 27.3134
808	 26.5935
792	 26.5822
776	 26.5317
760	 26.0412
744	 26.1632
728	 25.567
712	 25.0528
696	 24.6558
680	 24.8974
664	 24.2311
648	 23.7681
632	 23.8538
616	 23.1245
600	 22.9894
584	 21.9842
568	 22.434
552	 21.0492
536	 20.6986
520	 20.794
504	 20.7405
488	 18.7963
472	 19.546
456	 18.695
440	 18.0427
424	 18.2706
408	 19.9467
392	 -12.6916
376	 29.2545
370	 54.7985