Folder: Masteroppgave/Bakgrunnsmateriale/MATLAB/FTIR/ftir_data/LPE453/Mapping_121 (part 16)

File: LPE453_t31_cm-1.asc
PE IR       SPECTRUM    SPECTRUM    ASCII       PEDS        1.60
  -1
LPD8D5~1.ASC
17/05/16
16:54:09.00
17/05/16
16:54:09.00
tln
$LPE453_t0031$<tbV0>[-7.8,-7.8,8.0,0.0,27,1,0]
370
64

2002,4.07
MIRTGS : RIGHTBACK : INTERNAL 2
MIR : ON : INTERNAL 2
OPTKBR

0.200000
8
8.000000
FILLER
RATIO
SPECTRUM
UNLOCKED 256

DOUBLE
64
COMBINED
1
0
0

1.000000
RATIO

1
0
TRUE
51149
0
LEFT NOT FITTED RIGHT NOT FITTED 0
NONE
NONE
15600
12
4.427000
51148
TRUE
1 0 8 72 0 0 0 0

15798

#HDR
-1
-1
#GR
CM-1
%T
2.38419e-05
0.0
5000
-1.000000
4631
8
37.3159
-0.907278
#DATA
5000	0.082755
4984	0.406885
4968	-0.052595
4952	0.044679
4936	0.077223
4920	0.320005
4904	-0.107836
4888	0.409650
4872	-0.166559
4856	0.360536
4840	-0.143146
4824	0.162863
4808	0.117826
4792	0.791406
4776	0.233840
4760	0.156998
4744	0.281429
4728	0.332188
4712	-0.241994
4696	0.270938
4680	0.283408
4664	0.433993
4648	0.159001
4632	0.626873
4616	0.645232
4600	0.155115
4584	0.764942
4568	1.238417
4552	-0.737476
4536	2.474641
4520	-0.454545
4504	5.209493
4488	-0.315022
4472	-0.869464
4456	0.332546
4440	0.445675
4424	0.447392
4408	0.698328
4392	0.139665
4376	0.416755
4360	0.473165
4344	-0.227999
4328	0.099921
4312	0.192117
4296	-0.069665
4280	-0.057768
4264	0.023627
4248	0.151515
4232	0.128698
4216	0.275540
4200	0.426197
4184	0.256276
4168	0.331640
4152	-0.021624
4136	0.138378
4120	0.077295
4104	-0.152492
4088	-0.092244
4072	0.218152
4056	-0.100231
4040	0.104427
4024	0.083136
4008	0.250864
3992	-0.052881
3976	0.086379
3960	0.236821
3944	0.025367
3928	0.071454
3912	0.109577
3896	0.234818
3880	-0.053215
3864	0.056481
3848	0.024032
3832	0.141382
3816	0.263547
3800	0.043678
3784	0.002646
3768	0.047731
3752	0.014543
3736	-0.069499
3720	0.050687
3704	0.090217
3688	0.091695
3672	0.090527
3656	0.065588
3640	-0.072669
3624	-0.035786
3608	-0.036883
3592	-0.047278
3576	0.039339
3560	0.133943
3544	-0.068616
3528	0.096869
3512	-0.025343
3496	0.073266
3480	0.213837
3464	-0.210976
3448	0.052785
3432	0.198769
3416	0.084757
3400	-0.029349
3384	0.156378
3368	-0.023198
3352	0.076389
3336	-0.015115
3320	0.138187
3304	-0.055718
3288	0.025296
3272	-0.010633
3256	0.089573
3240	-0.053262
3224	0.049734
3208	-0.037646
3192	0.173735
3176	0.029349
3160	0.032353
3144	-0.026345
3128	-0.036716
3112	0.088024
3096	0.060033
3080	0.054836
3064	-0.003004
3048	-0.136017
3032	0.016522
3016	0.096940
3000	0.089335
2984	0.183033
2968	-0.059080
2952	-0.044107
2936	0.080609
2920	-0.058984
2904	0.143194
2888	0.073003
2872	0.070929
2856	-0.058722
2840	0.022006
2824	-0.018286
2808	-0.000214
2792	-0.006580
2776	0.143003
2760	0.062966
2744	-0.017690
2728	-0.005650
2712	-0.010061
2696	0.067615
2680	0.037980
2664	-0.041508
2648	0.064516
2632	0.029873
2616	-0.024652
2600	-0.048327
2584	0.034427
2568	0.071215
2552	0.065445
2536	0.067877
2520	-0.102305
2504	0.207495
2488	0.023722
2472	0.062012
2456	0.009179
2440	0.039887
2424	0.296401
2408	-0.330471
2392	0.187516
2376	0.155258
2360	0.229120
2344	0.434637
2328	0.607609
2312	0.768613
2296	1.040410
2280	1.433706
2264	1.960277
2248	2.852368
2232	3.758430
2216	4.836487
2200	6.284737
2184	7.814478
2168	9.630775
2152	11.4553
2136	13.7271
2120	15.8149
2104	17.9851
2088	19.9018
2072	22.1449
2056	23.883
2040	25.5134
2024	27.0721
2008	28.536
1992	29.6226
1976	30.7146
1960	31.6602
1944	32.5661
1928	33.1796
1912	33.7127
1896	34.3807
1880	34.7107
1864	35.1166
1848	35.3286
1832	35.8565
1816	36.0864
1800	36.0222
1784	36.144
1768	36.4005
1752	36.6315
1736	36.5376
1720	36.7592
1704	36.8046
1688	36.8188
1672	36.6112
1656	36.8879
1640	37.0939
1624	37.012
1608	36.6991
1592	36.9939
1576	37.0582
1560	36.8918
1544	36.7875
1528	36.9135
1512	37.228
1496	36.9368
1480	36.7933
1464	37.0958
1448	37.2981
1432	36.8213
1416	36.6852
1400	36.9048
1384	37.1826
1368	36.7456
1352	36.4656
1336	36.8713
1320	37.0214
1304	36.7007
1288	36.3904
1272	36.8624
1256	37.1099
1240	36.5184
1224	36.2604
1208	36.6087
1192	36.9888
1176	36.6491
1160	36.0266
1144	36.4903
1128	36.8491
1112	36.2125
1096	35.9105
1080	36.2504
1064	36.8277
1048	36.1631
1032	35.6296
1016	36.2363
1000	36.5953
984	 35.914
968	 35.3387
952	 35.9605
936	 36.2487
920	 35.9552
904	 35.0121
888	 35.2528
872	 36.0388
856	 35.2438
840	 34.3946
824	 34.5623
808	 34.9552
792	 34.6107
776	 33.8792
760	 33.9982
744	 34.4368
728	 33.9489
712	 32.9312
696	 32.7805
680	 33.5482
664	 33.2908
648	 32.1703
632	 31.9801
616	 32.5921
600	 31.6826
584	 31.0466
568	 31.0237
552	 30.6545
536	 30.7961
520	 29.2318
504	 28.5316
488	 28.9131
472	 28.906
456	 26.5449
440	 28.1048
424	 27.2248
408	 27.0922
392	 12.9011
376	 10.4683
370	 8.088564

File: LPE453_t32.asc
PE IR       SPECTRUM    SPECTRUM    ASCII       PEDS        1.60
  -1
LPCF91~1.ASC
17/05/16
16:58:46.00
17/05/16
16:59:12.00
tln
$LPE453_t0032$<tbV0>[-10.4,-7.8,8.0,0.0,27,1,0]
27.028
64

2002,4.07
MIRTGS : RIGHTBACK : INTERNAL 2
MIR : ON : INTERNAL 2
OPTKBR

0.200000
8
8.000000
FILLER
RATIO
SPECTRUM
UNLOCKED 256

DOUBLE
64
COMBINED
1
0
0

0.002000
RATIO

1
0
TRUE
51149
0
LEFT NOT FITTED RIGHT NOT FITTED 0
NONE
NONE
15600
12
4.427000
51148
TRUE
1 0 8 72 0 0 0 0

15798

#HDR
-1
-1
#GR
µM
%T
2.38419e-05
0.0
2.000000
0.002000
12515
8
50.2147
-0.955621
#DATA
2.000000	 -0.107073
2.084000	 0.000085
2.168000	 0.305206
2.252000	 0.087427
2.336000	 0.266405
2.420000	 0.254551
2.504000	 0.013340
2.588000	 0.005372
2.672000	 0.072035
2.756000	 0.158638
2.840000	 0.178813
2.924000	 0.144967
3.008000	 -0.043603
3.092000	 0.094008
3.176000	 -0.052508
3.260000	 -0.056485
3.344000	 -0.028379
3.428000	 0.192019
3.512000	 0.098412
3.596000	 -0.118346
3.680000	 0.098545
3.764000	 0.008356
3.848000	 0.118271
3.932000	 -0.085056
4.016000	 0.144807
4.100000	 0.049324
4.184000	 -0.036555
4.268000	 0.109054
4.352000	 0.481871
4.436000	 1.443085
4.520000	 3.067900
4.604000	 5.949318
4.688000	 9.978467
4.772000	 14.3202
4.856000	 18.4895
4.940000	 21.857
5.024000	 24.6642
5.108000	 26.699
5.192000	 28.3098
5.276000	 29.5158
5.359999	 30.416
5.444000	 30.9912
5.528000	 31.3587
5.612000	 31.5602
5.696000	 31.7699
5.780000	 31.8211
5.864000	 31.9953
5.948000	 32.0978
6.032000	 32.3261
6.116000	 32.286
6.200000	 32.2207
6.284000	 32.2621
6.368000	 32.1784
6.452000	 32.2634
6.536000	 32.3669
6.620000	 32.2617
6.704000	 32.1446
6.788000	 32.1376
6.872000	 32.1103
6.956000	 32.2039
7.040000	 32.0139
7.124000	 32.0298
7.208000	 32.0632
7.292000	 32.1398
7.376000	 32.0616
7.460000	 32.0431
7.544000	 32.0099
7.628000	 32.1741
7.712000	 31.9369
7.796000	 31.9251
7.880000	 31.8914
7.964000	 31.9784
8.048000	 31.9551
8.132000	 31.9032
8.216000	 31.7792
8.300000	 32.0538
8.384000	 31.9888
8.468000	 31.8242
8.552000	 31.682
8.635999	 31.7028
8.719999	 31.8853
8.804000	 32.0063
8.888000	 31.8986
8.972000	 31.4905
9.056000	 31.2666
9.140000	 31.7744
9.224000	 31.84
9.308000	 31.7536
9.391999	 31.5349
9.475999	 31.4104
9.560000	 31.4606
9.644000	 31.4543
9.728000	 31.8001
9.812000	 31.9219
9.896000	 31.4763
9.980000	 31.0719
10.064	31.0252
10.148	31.1031
10.232	31.3308
10.316	31.5519
10.4	31.4949
10.484	31.2589
10.568	30.9178
10.652	30.8047
10.736	30.7347
10.82	31.0012
10.904	31.1019
10.988	31.2301
11.072	31.2371
11.156	31.0186
11.24	30.7383
11.324	30.415
11.408	30.2193
11.492	30.2372
11.576	30.467
11.66	30.6202
11.744	30.6414
11.828	30.8323
11.912	30.637
11.996	30.4638
12.08	30.2832
12.164	30.0469
12.248	29.8745
12.332	29.7473
12.416	29.8703
12.5	30.2247
12.584	30.3733
12.668	30.3269
12.752	30.2399
12.836	30.2287
12.92	30.0483
13.004	29.7657
13.088	29.681
13.172	29.6084
13.256	29.1681
13.34	29.1015
13.424	29.1513
13.508	29.2324
13.592	29.8087
13.676	29.9842
13.76	29.8986
13.844	29.851
13.928	29.7358
14.012	29.4459
14.096	29.0018
14.18	28.7857
14.264	28.7648
14.348	28.8176
14.432	28.8998
14.516	28.9289
14.6	28.9676
14.684	29.0717
14.768	29.1242
14.852	28.9647
14.936	28.7994
15.02	28.8111
15.104	28.7318
15.188	28.5004
15.272	28.3709
15.356	28.2816
15.44	28.0911
15.524	27.9003
15.608	27.7944
15.692	27.8875
15.776	28.2017
15.86	28.3973
15.944	28.2792
16.028	28.095
16.112	28.0677
16.196	28.1749
16.28	28.2698
16.364	28.1649
16.448	27.7983
16.532	27.3471
16.616	27.0762
16.7	27.0605
16.784	27.1132
16.868	27.0424
16.952	26.8382
17.036	26.6021
17.12	26.4373
17.204	26.4172
17.288	26.5434
17.372	26.7481
17.456	26.9637
17.54	27.1438
17.624	27.2387
17.708	27.2142
17.792	27.0823
17.876	26.9028
17.96	26.7499
18.044	26.6734
18.128	26.649
18.212	26.5784
18.296	26.4023
18.38	26.2226
18.464	26.1993
18.548	26.3213
18.632	26.3746
18.716	26.1898
18.8	25.8431
18.884	25.5524
18.968	25.4446
19.052	25.4597
19.136	25.4456
19.22	25.2979
19.304	25.049
19.388	24.8416
19.472	24.8086
19.556	24.9603
19.64	25.191
19.724	25.4021
19.808	25.5829
19.892	25.764
19.976	25.9321
20.06	26.0248
20.144	26.0059
20.228	25.9
20.312	25.7513
20.396	25.562
20.48	25.3002
20.564	24.9605
20.648	24.5935
20.732	24.2869
20.816	24.1147
20.9	24.1045
20.984	24.2355
21.068	24.443
21.152	24.6237
21.236	24.6644
21.32	24.4893
21.404	24.0998
21.488	23.5718
21.572	23.0234
21.656	22.5872
21.74	22.3786
21.824	22.4591
21.908	22.7965
21.992	23.2661
22.076	23.7047
22.16	23.9864
22.244	24.1054
22.328	24.1491
22.412	24.2251
22.496	24.3747
22.58	24.5619
22.664	24.724
22.748	24.8062
22.832	24.7798
22.916	24.6473
23	24.4167
23.084	24.1089
23.168	23.7556
23.252	23.3793
23.336	22.9807
23.42	22.5312
23.504	21.9864
23.588	21.3264
23.672	20.577
23.756	19.7947
23.84	19.0176
23.924	18.2654
24.008	17.5652
24.092	17.0013
24.176	16.7467
24.26	16.9985
24.344	17.8893
24.428	19.3683
24.512	21.137
24.596	22.7908
24.68	23.9228
24.764	24.2552
24.848	23.7615
24.932	22.6658
25.016	21.3307
25.1	20.0133
25.184	18.9761
25.268	18.4104
25.352	18.3459
25.436	18.8288
25.52	19.9214
25.604	21.6384
25.688	23.8644
25.772	26.2925
25.856	28.5095
25.94	30.1609
26.024	31.1486
26.108	31.7449
26.192	32.4306
26.276	33.71
26.36	35.8664
26.444	39.0327
26.528	42.9544
26.612	46.9931
26.696	49.8023
26.78	49.6009
26.864	44.5633
26.948	33.5374
27.028	17.6825

File: LPE453_t32_cm-1.asc
PE IR       SPECTRUM    SPECTRUM    ASCII       PEDS        1.60
  -1
LPD850~1.ASC
17/05/16
16:58:46.00
17/05/16
16:58:46.00
tln
$LPE453_t0032$<tbV0>[-10.4,-7.8,8.0,0.0,27,1,0]
370
64

2002,4.07
MIRTGS : RIGHTBACK : INTERNAL 2
MIR : ON : INTERNAL 2
OPTKBR

0.200000
8
8.000000
FILLER
RATIO
SPECTRUM
UNLOCKED 256

DOUBLE
64
COMBINED
1
0
0

1.000000
RATIO

1
0
TRUE
51149
0
LEFT NOT FITTED RIGHT NOT FITTED 0
NONE
NONE
15600
12
4.427000
51148
TRUE
1 0 8 72 0 0 0 0

15798

#HDR
-1
-1
#GR
CM-1
%T
2.38419e-05
0.0
5000
-1.000000
4631
8
50.2027
-1.038861
#DATA
5000	-0.107073
4984	0.175738
4968	-0.461530
4952	-0.047755
4936	0.195169
4920	0.168061
4904	-0.029611
4888	0.728106
4872	-0.279998
4856	0.080370
4840	-0.231575
4824	0.150704
4808	0.177574
4792	0.100493
4776	0.054621
4760	-0.010085
4744	-0.335240
4728	-0.091004
4712	0.050354
4696	-0.233912
4680	0.000762
4664	0.486660
4648	0.388050
4632	0.752735
4616	0.191211
4600	0.231432
4584	0.266981
4568	-0.703811
4552	0.181245
4536	0.094008
4520	3.910231
4504	2.005004
4488	-0.068783
4472	-0.112867
4456	0.365328
4440	0.079059
4424	0.256943
4408	0.121951
4392	0.257992
4376	0.264191
4360	0.155591
4344	-0.018930
4328	0.131106
4312	-0.043773
4296	0.081443
4280	0.252580
4264	0.303053
4248	-0.061035
4232	0.114989
4216	-0.016260
4200	0.259280
4184	0.163936
4168	-0.132179
4152	0.001287
4136	0.136780
4120	0.026750
4104	-0.080299
4088	0.180578
4072	-0.042700
4056	0.170087
4040	0.026464
4024	0.079393
4008	0.031018
3992	0.049638
3976	0.098633
3960	0.001835
3944	0.139474
3928	0.124740
3912	-0.095272
3896	0.095319
3880	-0.145077
3864	0.005197
3848	0.093722
3832	0.303530
3816	-0.039339
3800	0.044965
3784	0.071287
3768	0.122904
3752	0.100803
3736	-0.038933
3720	0.000143
3704	-0.010728
3688	0.217175
3672	0.100517
3656	0.203824
3640	0.154399
3624	0.101208
3608	-0.233554
3592	0.191283
3576	-0.043964
3560	0.006604
3544	-0.011706
3528	0.167465
3512	0.200080
3496	0.060653
3480	-0.124382
3464	0.012660
3448	0.068855
3432	-0.033950
3416	0.139093
3400	-0.091767
3384	-0.011420
3368	0.136852
3352	0.078821
3336	0.021243
3320	-0.076317
3304	0.007796
3288	0.013160
3272	0.163602
3256	0.125432
3240	0.020503
3224	-0.078201
3208	0.069212
3192	0.031828
3176	-0.005173
3160	0.177955
3144	-0.154638
3128	0.223660
3112	0.079512
3096	0.046157
3080	-0.032472
3064	-0.013542
3048	0.039696
3032	0.012779
3016	0.012612
3000	-0.086784
2984	0.050449
2968	-0.042581
2952	0.080943
2936	0.125408
2920	0.209426
2904	0.115251
2888	0.073456
2872	-0.026845
2856	0.158333
2840	0.038456
2824	0.085973
2808	-0.052595
2792	0.087237
2776	-0.032949
2760	0.096535
2744	-0.000286
2728	0.102782
2712	-0.043392
2696	0.022912
2680	0.077819
2664	0.037765
2648	-0.070309
2632	-0.033307
2616	0.065708
2600	0.125503
2584	-0.005936
2568	0.114440
2552	-0.005555
2536	0.119686
2520	-0.029969
2504	-0.253009
2488	0.127983
2472	-0.067496
2456	0.138306
2440	0.046706
2424	-0.006651
2408	0.125265
2392	-0.009274
2376	0.166773
2360	0.155138
2344	0.104165
2328	0.268292
2312	0.346302
2296	0.477480
2280	0.712871
2264	1.135563
2248	1.575422
2232	2.163195
2216	2.956533
2200	3.752374
2184	5.014681
2168	6.298542
2152	8.031606
2136	9.703540
2120	11.3477
2104	13.2663
2088	15.1597
2072	17.0339
2056	18.8523
2040	20.4231
2024	21.8846
2008	23.2597
1992	24.5493
1976	25.7454
1960	26.5648
1944	27.5056
1928	28.2542
1912	28.9293
1896	29.4924
1880	29.9454
1864	30.4335
1848	30.8338
1832	31.0065
1816	31.2569
1800	31.5007
1784	31.5557
1768	31.6941
1752	31.832
1736	31.78
1720	32.1231
1704	31.9957
1688	32.0973
1672	32.1326
1656	32.2922
1640	32.2483
1624	32.2785
1608	32.2397
1592	32.2619
1576	32.2062
1560	32.2834
1544	32.297
1528	32.3173
1512	32.2934
1496	32.2299
1480	32.2213
1464	32.0116
1448	32.1796
1432	32.3009
1416	32.023
1400	32.0098
1384	32.0984
1368	32.1549
1352	31.9619
1336	32.0796
1320	32.1633
1304	32.0621
1288	31.886
1272	31.9124
1256	31.9712
1240	31.9031
1224	31.7966
1208	32.0363
1192	31.9816
1176	31.7602
1160	31.6338
1144	31.9047
1128	31.9335
1112	31.3713
1096	31.69
1080	31.7972
1064	31.5085
1048	31.4024
1032	31.531
1016	31.6988
1000	31.0099
984	 31.1166
968	 31.5552
952	 31.1987
936	 30.7929
920	 31.0905
904	 31.2477
888	 30.6626
872	 30.2058
856	 30.6185
840	 30.6673
824	 30.106
808	 29.7613
792	 30.3672
776	 30.1497
760	 29.6493
744	 29.1316
728	 29.9158
712	 29.2683
696	 28.8389
680	 29.0998
664	 28.802
648	 28.1111
632	 28.3499
616	 28.2304
600	 27.0445
584	 26.4335
568	 27.2274
552	 26.6527
536	 26.3469
520	 25.2696
504	 25.6536
488	 25.2568
472	 24.6632
456	 22.9123
440	 24.7957
424	 21.3526
408	 21.0912
392	 19.761
376	 46.271
370	 17.6825

File: LPE453_t33.asc
PE IR       SPECTRUM    SPECTRUM    ASCII       PEDS        1.60
  -1
LPCF95~1.ASC
17/05/16
17:03:23.00
17/05/16
17:03:49.00
tln
$LPE453_t0033$<tbV0>[-13.0,-7.8,8.0,0.0,27,1,0]
27.028
64

2002,4.07
MIRTGS : RIGHTBACK : INTERNAL 2
MIR : ON : INTERNAL 2
OPTKBR

0.200000
8
8.000000
FILLER
RATIO
SPECTRUM
UNLOCKED 256

DOUBLE
64
COMBINED
1
0
0

0.002000
RATIO

1
0
TRUE
51149
0
LEFT NOT FITTED RIGHT NOT FITTED 0
NONE
NONE
15600
12
4.427000
51148
TRUE
1 0 8 72 0 0 0 0

15798

#HDR
-1
-1
#GR
µM
%T
2.38419e-05
0.0
2.000000
0.002000
12515
8
44.3849
-74.1541
#DATA
2.000000	 -0.035691
2.084000	 0.553742
2.168000	 0.400479
2.252000	 0.300932
2.336000	 -0.031630
2.420000	 0.046915
2.504000	 -0.114553
2.588000	 -0.334981
2.672000	 0.085027
2.756000	 0.070291
2.840000	 0.132300
2.924000	 0.210495
3.008000	 0.081542
3.092000	 -0.094177
3.176000	 0.063160
3.260000	 0.066758
3.344000	 0.147174
3.428000	 0.059964
3.512000	 0.074083
3.596000	 0.060309
3.680000	 0.010689
3.764000	 0.042794
3.848000	 0.073244
3.932000	 0.065831
4.016000	 0.052811
4.100000	 0.214146
4.184000	 0.007809
4.268000	 -0.051274
4.352000	 0.178356
4.436000	 0.702058
4.520000	 1.651953
4.604000	 3.790058
4.688000	 7.000199
4.772000	 10.6493
4.856000	 14.6104
4.940000	 17.9757
5.024000	 20.6734
5.108000	 23.2012
5.192000	 24.9397
5.276000	 26.3456
5.359999	 27.357
5.444000	 28.3238
5.528000	 29.0068
5.612000	 29.4141
5.696000	 29.9584
5.780000	 30.3254
5.864000	 30.5172
5.948000	 30.7773
6.032000	 30.915
6.116000	 31.0492
6.200000	 31.1705
6.284000	 31.3691
6.368000	 31.3523
6.452000	 31.5866
6.536000	 31.4938
6.620000	 31.6713
6.704000	 31.6989
6.788000	 31.5305
6.872000	 31.514
6.956000	 31.58
7.040000	 31.4512
7.124000	 31.5563
7.208000	 31.4531
7.292000	 31.2948
7.376000	 31.3093
7.460000	 31.395
7.544000	 31.0214
7.628000	 31.2101
7.712000	 31.1213
7.796000	 31.1509
7.880000	 30.9888
7.964000	 30.9882
8.048000	 30.9792
8.132000	 30.7448
8.216000	 30.6735
8.300000	 30.627
8.384000	 30.5568
8.468000	 30.4555
8.552000	 30.4084
8.635999	 30.2835
8.719999	 30.1292
8.804000	 29.9151
8.888000	 29.9083
8.972000	 30.0362
9.056000	 29.7411
9.140000	 29.6594
9.224000	 29.6547
9.308000	 29.7105
9.391999	 29.3125
9.475999	 29.3664
9.560000	 29.1769
9.644000	 29.0891
9.728000	 28.9072
9.812000	 28.5661
9.896000	 28.8579
9.980000	 28.9299
10.064	28.6212
10.148	28.6509
10.232	28.4405
10.316	28.3938
10.4	28.477
10.484	28.3404
10.568	28.0893
10.652	27.8294
10.736	27.7679
10.82	27.8465
10.904	27.7678
10.988	27.6459
11.072	27.536
11.156	27.2514
11.24	27.1143
11.324	26.9356
11.408	27.1529
11.492	27.274
11.576	27.0503
11.66	27.047
11.744	26.8684
11.828	26.5912
11.912	26.2566
11.996	26.2579
12.08	26.3781
12.164	26.1187
12.248	26.0163
12.332	26.2408
12.416	26.1068
12.5	26.0133
12.584	26.1095
12.668	25.9783
12.752	25.7538
12.836	25.7659
12.92	25.9237
13.004	25.8016
13.088	25.5339
13.172	25.7369
13.256	26.012
13.34	25.8845
13.424	25.5566
13.508	25.1184
13.592	24.9177
13.676	24.8526
13.76	24.6249
13.844	24.3982
13.928	24.5858
14.012	24.8805
14.096	24.8312
14.18	24.6182
14.264	24.4091
14.348	24.3163
14.432	24.3314
14.516	24.1218
14.6	23.7992
14.684	23.7197
14.768	23.719
14.852	23.6297
14.936	23.5836
15.02	23.5757
15.104	23.4662
15.188	23.3673
15.272	23.4989
15.356	23.6447
15.44	23.4922
15.524	23.301
15.608	23.378
15.692	23.4514
15.776	23.2109
15.86	22.8684
15.944	22.7062
16.028	22.6888
16.112	22.7223
16.196	22.7452
16.28	22.6601
16.364	22.508
16.448	22.4119
16.532	22.3281
16.616	22.2277
16.7	22.2736
16.784	22.4886
16.868	22.6364
16.952	22.6195
17.036	22.5742
17.12	22.5476
17.204	22.4637
17.288	22.3324
17.372	22.2019
17.456	22.0463
17.54	21.8778
17.624	21.7816
17.708	21.7557
17.792	21.6919
17.876	21.554
17.96	21.4544
18.044	21.4985
18.128	21.647
18.212	21.7611
18.296	21.7512
18.38	21.6546
18.464	21.567
18.548	21.5341
18.632	21.5196
18.716	21.4502
18.8	21.2567
18.884	20.8998
18.968	20.4165
19.052	19.9528
19.136	19.6895
19.22	19.7055
19.304	19.9247
19.388	20.1902
19.472	20.3792
19.556	20.4431
19.64	20.3948
19.724	20.2842
19.808	20.1853
19.892	20.1603
19.976	20.2203
20.06	20.315
20.144	20.3634
20.228	20.3027
20.312	20.1166
20.396	19.8329
20.48	19.5098
20.564	19.2162
20.648	19.0178
20.732	18.9543
20.816	19.025
20.9	19.1767
20.984	19.3226
21.068	19.3934
21.152	19.393
21.236	19.4046
21.32	19.5206
21.404	19.7579
21.488	20.0185
21.572	20.1636
21.656	20.1141
21.74	19.9079
21.824	19.6708
21.908	19.5142
21.992	19.4661
22.076	19.4849
22.16	19.506
22.244	19.5115
22.328	19.5338
22.412	19.6164
22.496	19.774
22.58	20.0031
22.664	20.3039
22.748	20.6896
22.832	21.171
22.916	21.7174
23	22.2446
23.084	22.6283
23.168	22.6958
23.252	22.2966
23.336	21.3723
23.42	20.0194
23.504	18.5014
23.588	17.1923
23.672	16.4185
23.756	16.3104
23.84	16.7641
23.924	17.4605
24.008	18.0153
24.092	18.1354
24.176	17.7395
24.26	16.9008
24.344	15.8124
24.428	14.7126
24.512	13.8452
24.596	13.3486
24.68	13.3473
24.764	14.007
24.848	15.2982
24.932	17.0344
25.016	18.8895
25.1	20.406
25.184	21.0959
25.268	20.6479
25.352	19.0412
25.436	16.5373
25.52	13.6636
25.604	11.0983
25.688	9.618821
25.772	9.936724
25.856	12.5024
25.94	17.4557
26.024	24.4096
26.108	32.3067
26.192	39.4993
26.276	43.8972
26.36	43.2953
26.444	36.2805
26.528	22.8022
26.612	4.155431
26.696	-17.2176
26.78	-38.2694
26.864	-56.0711
26.948	-68.4329
27.028	-74.1541

File: LPE453_t33_cm-1.asc
PE IR       SPECTRUM    SPECTRUM    ASCII       PEDS        1.60
  -1
LPD8D0~1.ASC
17/05/16
17:03:23.00
17/05/16
17:03:23.00
tln
$LPE453_t0033$<tbV0>[-13.0,-7.8,8.0,0.0,27,1,0]
370
64

2002,4.07
MIRTGS : RIGHTBACK : INTERNAL 2
MIR : ON : INTERNAL 2
OPTKBR

0.200000
8
8.000000
FILLER
RATIO
SPECTRUM
UNLOCKED 256

DOUBLE
64
COMBINED
1
0
0

1.000000
RATIO

1
0
TRUE
51149
0
LEFT NOT FITTED RIGHT NOT FITTED 0
NONE
NONE
15600
12
4.427000
51148
TRUE
1 0 8 72 0 0 0 0

15798

#HDR
-1
-1
#GR
CM-1
%T
2.38419e-05
0.0
5000
-1.000000
4631
8
44.3628
-74.1541
#DATA
5000	-0.035691
4984	0.113940
4968	0.123476
4952	0.663018
4936	0.286269
4920	0.073289
4904	-0.244140
4888	-0.054430
4872	-0.071406
4856	0.199007
4840	0.352835
4824	-0.067996
4808	0.063729
4792	0.276994
4776	0.306177
4760	-0.058245
4744	-0.085902
4728	0.010895
4712	-0.087809
4696	0.306749
4680	0.384521
4664	0.210356
4648	-0.125050
4632	0.053381
4616	0.159287
4600	0.376796
4584	0.804996
4568	-0.488495
4552	1.354289
4536	-0.815439
4520	7.561659
4504	3.129076
4488	-1.054859
4472	-0.224065
4456	0.494718
4440	0.291824
4424	0.384354
4408	0.448131
4392	0.588941
4376	0.574350
4360	0.413918
4344	0.326013
4328	0.350499
4312	-0.191545
4296	0.101304
4280	-0.031208
4264	-0.041365
4248	0.148510
4232	-0.042319
4216	0.210595
4200	-0.195312
4184	0.328397
4168	-0.161004
4152	-0.041365
4136	-0.104904
4120	0.044894
4104	-0.069189
4088	0.236153
4072	0.185012
4056	0.123429
4040	0.139331
4024	0.049734
4008	0.223803
3992	-0.104069
3976	-0.085473
3960	0.095272
3944	0.126004
3928	0.210189
3912	0.174856
3896	0.015878
3880	0.174951
3864	-0.334930
3848	0.001525
3832	-0.127530
3816	0.090408
3800	-0.015401
3784	0.115752
3768	-0.012946
3752	-0.019168
3736	-0.049066
3720	-0.017786
3704	0.103020
3688	0.050425
3672	0.192523
3656	0.121998
3640	-0.094056
3624	0.080466
3608	0.042748
3592	0.009727
3576	0.087046
3560	0.072789
3544	-0.111413
3528	0.207614
3512	-0.071191
3496	0.047254
3480	-0.062012
3464	0.173354
3448	0.009274
3432	0.178337
3416	0.136113
3400	0.179171
3384	0.184249
3368	0.184750
3352	0.202131
3336	-0.102639
3320	0.052833
3304	0.150322
3288	0.186896
3272	0.136876
3256	0.096273
3240	-0.008797
3224	-0.050401
3208	-0.153660
3192	0.099492
3176	0.138068
3160	-0.069689
3144	0.049734
3128	0.144839
3112	-0.099229
3096	-0.133299
3080	-0.085639
3064	0.057625
3048	0.078558
3032	0.020718
3016	0.093245
3000	0.075101
2984	0.201296
2968	0.148558
2952	0.074362
2936	0.027513
2920	0.064921
2904	0.046086
2888	-0.005769
2872	0.037813
2856	-0.068736
2840	0.134325
2824	0.046658
2808	0.129365
2792	0.058817
2776	0.047731
2760	0.042057
2744	0.067949
2728	0.008320
2712	0.005841
2696	-0.042176
2680	0.015425
2664	0.030970
2648	0.039434
2632	0.108885
2616	0.089144
2600	0.081276
2584	0.011706
2568	0.056719
2552	-0.045084
2536	-0.015830
2520	0.072479
2504	0.066518
2488	0.036334
2472	-0.032591
2456	0.017833
2440	0.181794
2424	-0.191497
2408	0.204777
2392	-0.019788
2376	-0.040841
2360	0.051188
2344	-0.065493
2328	0.098824
2312	0.156927
2296	0.202465
2280	0.268793
2264	0.483274
2248	0.798463
2232	1.217055
2216	1.552677
2200	2.326416
2184	3.130817
2168	4.017186
2152	5.517792
2136	6.696534
2120	8.229041
2104	9.832048
2088	11.4272
2072	13.3061
2056	14.8627
2040	16.5434
2024	18.0068
2008	19.4754
1992	20.5535
1976	21.9626
1960	23.0724
1944	24.0559
1928	24.8017
1912	25.6287
1896	26.3197
1880	26.8472
1864	27.4159
1848	28.0004
1832	28.41
1816	28.7853
1800	29.2549
1784	29.4286
1768	29.777
1752	30.0111
1736	30.3004
1720	30.3219
1704	30.5365
1688	30.7198
1672	30.723
1656	30.9618
1640	31.008
1624	31.0772
1608	31.1604
1592	31.3633
1576	31.3386
1560	31.4257
1544	31.6146
1528	31.45
1512	31.6809
1496	31.7186
1480	31.5293
1464	31.5984
1448	31.6437
1432	31.6118
1416	31.4563
1400	31.5618
1384	31.4368
1368	31.3071
1352	31.2631
1336	31.376
1320	31.0495
1304	31.1263
1288	31.1548
1272	30.9611
1256	30.9869
1240	30.959
1224	30.6944
1208	30.5529
1192	30.5465
1176	30.4105
1160	30.3042
1144	30.0853
1128	29.9349
1112	29.9628
1096	29.5577
1080	29.6085
1064	29.3176
1048	29.2219
1032	29.0413
1016	28.6039
1000	28.8223
984	 28.6099
968	 28.412
952	 28.3138
936	 27.7712
920	 27.8201
904	 27.5678
888	 27.0648
872	 27.3111
856	 27.0109
840	 26.2766
824	 26.2267
808	 26.2193
792	 26.0753
776	 25.8749
760	 25.6707
744	 25.4674
728	 24.7087
712	 24.9017
696	 24.3209
680	 23.7256
664	 23.5377
648	 23.5158
632	 23.0074
616	 22.723
600	 22.2284
584	 22.5458
568	 21.794
552	 21.6245
536	 21.5085
520	 19.7251
504	 20.1643
488	 19.4652
472	 19.3899
456	 19.4917
440	 20.5854
424	 17.232
408	 13.8634
392	 13.9928
376	 8.042335
370	 -74.1541