Folder: Masteroppgave/Bakgrunnsmateriale/MATLAB/FTIR/ftir_data/LPE453/Mapping_121 (part 46)

File: LPE453_t106_cm-1.asc
PE IR       SPECTRUM    SPECTRUM    ASCII       PEDS        1.60
  -1
LP0978~1.ASC
17/05/16
23:02:36.00
17/05/16
23:02:36.00
tln
$LPE453_t0106$<tbV0>[-2.6,10.4,8.0,0.0,27,1,0]
370
64

2002,4.07
MIRTGS : RIGHTBACK : INTERNAL 2
MIR : ON : INTERNAL 2
OPTKBR

0.200000
8
8.000000
FILLER
RATIO
SPECTRUM
UNLOCKED 256

DOUBLE
64
COMBINED
1
0
0

1.000000
RATIO

1
0
TRUE
51149
0
LEFT NOT FITTED RIGHT NOT FITTED 0
NONE
NONE
15600
12
4.427000
51148
TRUE
1 0 8 72 0 0 0 0

15798

#HDR
-1
-1
#GR
CM-1
%T
2.38419e-05
0.0
5000
-1.000000
4631
8
36.4049
-9.692692
#DATA
5000	0.073504
4984	0.433468
4968	-0.085115
4952	0.015759
4936	0.139594
4920	-0.009274
4904	0.011801
4888	-0.018477
4872	-0.139117
4856	0.289559
4840	0.131320
4824	0.335383
4808	0.228047
4792	-0.075173
4776	0.899934
4760	0.173163
4744	0.300526
4728	-0.287771
4712	0.544714
4696	-1.175689
4680	1.780486
4664	1.137924
4648	0.567150
4632	-0.017762
4616	-0.513148
4600	-0.107884
4584	-0.318360
4568	-0.391840
4552	-0.606179
4536	-0.881195
4520	-1.313757
4504	3.239154
4488	7.835650
4472	-1.809430
4456	-0.269913
4440	-0.243973
4424	-0.488352
4408	0.326752
4392	-0.303840
4376	0.244736
4360	0.605511
4344	0.330448
4328	0.444984
4312	0.398206
4296	0.077128
4280	0.222229
4264	-0.014519
4248	-0.060200
4232	0.067114
4216	0.041389
4200	0.143003
4184	0.092840
4168	0.201916
4152	-0.064015
4136	0.079202
4120	-0.106024
4104	-0.003218
4088	-0.002551
4072	0.137329
4056	0.036621
4040	-0.087833
4024	0.085020
4008	-0.062346
3992	0.313425
3976	0.002884
3960	0.111818
3944	0.223779
3928	0.080418
3912	-0.109720
3896	-0.008535
3880	0.118923
3864	0.214362
3848	-0.003314
3832	0.164890
3816	-0.147366
3800	0.159144
3784	0.077700
3768	-0.021696
3752	-0.036025
3736	0.012445
3720	0.135874
3704	0.112533
3688	0.073909
3672	0.040650
3656	0.031304
3640	0.010395
3624	0.104713
3608	0.152826
3592	0.007367
3576	0.071668
3560	-0.017166
3544	0.109434
3528	0.129556
3512	-0.003361
3496	0.090670
3480	0.038409
3464	-0.031495
3448	0.025534
3432	-0.060224
3416	0.077795
3400	-0.006246
3384	0.107908
3368	0.029850
3352	0.032377
3336	0.047564
3320	0.170326
3304	0.051569
3288	0.084042
3272	0.109696
3256	0.011658
3240	0.072932
3224	0.012469
3208	0.048279
3192	0.029349
3176	0.024104
3160	-0.050687
3144	0.019931
3128	0.001645
3112	0.016593
3096	-0.037336
3080	-0.062036
3064	0.217270
3048	0.086331
3032	0.003719
3016	0.055480
3000	0.092077
2984	0.005507
2968	0.010395
2952	0.046992
2936	0.029778
2920	0.086259
2904	-0.023603
2888	0.097346
2872	0.125575
2856	0.034451
2840	0.028944
2824	0.103282
2808	0.041985
2792	0.059580
2776	0.076580
2760	0.088500
2744	-0.074172
2728	-0.052094
2712	0.023269
2696	0.076127
2680	0.058150
2664	0.015044
2648	-0.081110
2632	0.026345
2616	0.049042
2600	0.102424
2584	0.052785
2568	0.129938
2552	-0.065469
2536	0.070428
2520	0.061678
2504	0.109267
2488	0.067067
2472	0.049710
2456	0.100851
2440	0.014233
2424	0.171995
2408	0.088787
2392	0.085067
2376	0.148820
2360	0.209856
2344	0.275945
2328	0.398468
2312	0.555062
2296	0.746273
2280	0.991249
2264	1.494812
2248	2.020907
2232	2.726721
2216	3.650093
2200	4.872035
2184	6.273365
2168	8.043932
2152	9.786033
2136	11.6753
2120	13.682
2104	15.7308
2088	17.8656
2072	19.8778
2056	21.5213
2040	23.4596
2024	25.4242
2008	26.4584
1992	27.7569
1976	29.3912
1960	30.2156
1944	30.8069
1928	31.8946
1912	32.7953
1896	32.7326
1880	33.3504
1864	34.4049
1848	34.246
1832	34.3688
1816	35.1009
1800	35.3755
1784	34.9524
1768	35.2574
1752	35.9423
1736	35.6416
1720	35.2877
1704	35.8572
1688	36.2063
1672	35.605
1656	35.477
1640	36.2714
1624	36.1741
1608	35.4741
1592	35.7573
1576	36.225
1560	35.8715
1544	35.3962
1528	36.0385
1512	36.253
1496	35.4763
1480	35.5317
1464	36.2037
1448	35.915
1432	35.1066
1416	35.4512
1400	36.0742
1384	35.3406
1368	34.8649
1352	35.6797
1336	35.8642
1320	34.8442
1304	34.8262
1288	35.6917
1272	35.4661
1256	34.4878
1240	34.9766
1224	35.6823
1208	35.0147
1192	34.3029
1176	35.0747
1160	35.3464
1144	34.3906
1128	34.1854
1112	35.0681
1096	34.8656
1080	33.8616
1064	33.974
1048	34.7976
1032	34.3046
1016	33.3928
1000	33.7941
984	 34.5633
968	 33.3128
952	 32.7224
936	 33.4705
920	 33.6696
904	 32.6506
888	 32.3888
872	 33.0157
856	 32.8221
840	 31.5873
824	 31.5134
808	 32.29
792	 31.5196
776	 30.5586
760	 31.1992
744	 31.4806
728	 30.2201
712	 29.5725
696	 30.3246
680	 30.1296
664	 29.1565
648	 28.4866
632	 29.1522
616	 28.8494
600	 27.4311
584	 27.4708
568	 27.6783
552	 26.742
536	 25.3443
520	 25.9532
504	 25.218
488	 24.358
472	 24.0178
456	 24.492
440	 24.1597
424	 21.3395
408	 18.6388
392	 21.2065
376	 -2.590513
370	 -7.540011

File: LPE453_t107.asc
PE IR       SPECTRUM    SPECTRUM    ASCII       PEDS        1.60
  -1
LP9F86~1.ASC
17/05/16
23:07:12.00
17/05/16
23:07:39.00
tln
$LPE453_t0107$<tbV0>[-5.2,10.4,8.0,0.0,27,1,0]
27.028
64

2002,4.07
MIRTGS : RIGHTBACK : INTERNAL 2
MIR : ON : INTERNAL 2
OPTKBR

0.200000
8
8.000000
FILLER
RATIO
SPECTRUM
UNLOCKED 256

DOUBLE
64
COMBINED
1
0
0

0.002000
RATIO

1
0
TRUE
51149
0
LEFT NOT FITTED RIGHT NOT FITTED 0
NONE
NONE
15600
12
4.427000
51148
TRUE
1 0 8 72 0 0 0 0

15798

#HDR
-1
-1
#GR
µM
%T
2.38419e-05
0.0
2.000000
0.002000
12515
8
35.959
-8.684990
#DATA
2.000000	 -0.003767
2.084000	 0.009283
2.168000	 1.189188
2.252000	 0.784108
2.336000	 0.136820
2.420000	 0.115915
2.504000	 0.338881
2.588000	 0.071094
2.672000	 0.122039
2.756000	 0.156371
2.840000	 0.074522
2.924000	 0.090130
3.008000	 0.073559
3.092000	 0.036704
3.176000	 0.112194
3.260000	 0.148465
3.344000	 0.025065
3.428000	 0.089088
3.512000	 0.048453
3.596000	 -0.009151
3.680000	 -0.088824
3.764000	 0.069455
3.848000	 -0.012586
3.932000	 0.032561
4.016000	 -0.045318
4.100000	 -0.043495
4.184000	 0.175533
4.268000	 0.213531
4.352000	 0.711306
4.436000	 1.632505
4.520000	 3.779412
4.604000	 7.152156
4.688000	 11.5638
4.772000	 16.1073
4.856000	 20.3553
4.940000	 23.8744
5.024000	 26.9483
5.108000	 28.8524
5.192000	 30.6392
5.276000	 31.7688
5.359999	 32.5254
5.444000	 33.2941
5.528000	 33.5539
5.612000	 33.9647
5.696000	 34.1779
5.780000	 34.1096
5.864000	 34.5742
5.948000	 34.0454
6.032000	 34.9341
6.116000	 34.5448
6.200000	 34.5494
6.284000	 34.9981
6.368000	 34.2756
6.452000	 34.7629
6.536000	 35.0394
6.620000	 34.2737
6.704000	 34.4422
6.788000	 35.0305
6.872000	 34.1814
6.956000	 34.2882
7.040000	 34.9986
7.124000	 34.529
7.208000	 33.9344
7.292000	 34.6293
7.376000	 34.8427
7.460000	 34.3428
7.544000	 34.0105
7.628000	 34.632
7.712000	 34.8458
7.796000	 34.2991
7.880000	 33.7625
7.964000	 34.1118
8.048000	 34.7795
8.132000	 34.7028
8.216000	 34.0225
8.300000	 33.7573
8.384000	 34.2539
8.468000	 34.7376
8.552000	 34.5802
8.635999	 33.8612
8.719999	 33.6448
8.804000	 33.782
8.888000	 34.4378
8.972000	 34.4981
9.056000	 33.99
9.140000	 33.4653
9.224000	 33.2925
9.308000	 33.6206
9.391999	 34.1088
9.475999	 34.2987
9.560000	 33.8524
9.644000	 33.3738
9.728000	 32.9469
9.812000	 33.0939
9.896000	 33.5701
9.980000	 34.1023
10.064	34.0767
10.148	33.6849
10.232	33.2586
10.316	32.6283
10.4	32.6576
10.484	32.9633
10.568	33.5733
10.652	33.6944
10.736	33.7665
10.82	33.4342
10.904	32.7022
10.988	32.2334
11.072	32.2935
11.156	32.3879
11.24	32.5299
11.324	32.7978
11.408	33.0761
11.492	33.1954
11.576	32.7515
11.66	32.2448
11.744	31.6863
11.828	31.4873
11.912	31.6516
11.996	32.0463
12.08	32.1342
12.164	32.36
12.248	32.6849
12.332	32.5514
12.416	32.1518
12.5	31.6702
12.584	31.2235
12.668	31.1334
12.752	31.116
12.836	31.1199
12.92	31.0154
13.004	31.0934
13.088	31.419
13.172	31.7451
13.256	31.6468
13.34	31.3158
13.424	31.2057
13.508	30.8929
13.592	30.454
13.676	30.2268
13.76	29.9377
13.844	29.7229
13.928	29.9172
14.012	30.2079
14.096	30.3344
14.18	30.4403
14.264	30.5871
14.348	30.7596
14.432	30.8802
14.516	30.6886
14.6	30.335
14.684	30.0824
14.768	29.8464
14.852	29.4431
14.936	28.9853
15.02	28.8369
15.104	28.9587
15.188	29.0447
15.272	29.0276
15.356	28.9382
15.44	28.9117
15.524	29.1661
15.608	29.5651
15.692	29.8097
15.776	29.907
15.86	29.8658
15.944	29.6021
16.028	29.2306
16.112	28.8897
16.196	28.5914
16.28	28.3447
16.364	28.1021
16.448	27.8129
16.532	27.5988
16.616	27.6047
16.7	27.7648
16.784	27.9007
16.868	27.9388
16.952	27.9337
17.036	27.9645
17.12	28.0343
17.204	28.0725
17.288	28.0512
17.372	28.0293
17.456	28.0633
17.54	28.1481
17.624	28.234
17.708	28.2271
17.792	28.0171
17.876	27.5897
17.96	27.0843
18.044	26.6766
18.128	26.4374
18.212	26.3313
18.296	26.2961
18.38	26.2803
18.464	26.2491
18.548	26.2088
18.632	26.2041
18.716	26.2799
18.8	26.4327
18.884	26.5806
18.968	26.6097
19.052	26.4711
19.136	26.2326
19.22	26.0292
19.304	25.9588
19.388	26.027
19.472	26.1664
19.556	26.2908
19.64	26.3418
19.724	26.3125
19.808	26.2358
19.892	26.1414
19.976	26.0155
20.06	25.8101
20.144	25.5122
20.228	25.1905
20.312	24.9553
20.396	24.8687
20.48	24.9012
20.564	24.9679
20.648	25.0002
20.732	24.9763
20.816	24.9152
20.9	24.8533
20.984	24.8353
21.068	24.9047
21.152	25.0709
21.236	25.2943
21.32	25.4971
21.404	25.6098
21.488	25.6012
21.572	25.4812
21.656	25.272
21.74	24.9911
21.824	24.6607
21.908	24.3219
21.992	24.0374
22.076	23.8778
22.16	23.8882
22.244	24.0782
22.328	24.4129
22.412	24.8288
22.496	25.2415
22.58	25.5764
22.664	25.7897
22.748	25.8866
22.832	25.9132
22.916	25.9211
23	25.9138
23.084	25.8373
23.168	25.5901
23.252	25.093
23.336	24.3445
23.42	23.4406
23.504	22.5385
23.588	21.7859
23.672	21.2643
23.756	20.9757
23.84	20.8458
23.924	20.7891
24.008	20.7525
24.092	20.7187
24.176	20.6897
24.26	20.6903
24.344	20.744
24.428	20.8635
24.512	21.0782
24.596	21.4184
24.68	21.8895
24.764	22.4481
24.848	22.9935
24.932	23.3963
25.016	23.5773
25.1	23.5704
25.184	23.5384
25.268	23.7444
25.352	24.4851
25.436	25.9604
25.52	28.1475
25.604	30.7913
25.688	33.3904
25.772	35.3036
25.856	35.955
25.94	35.0738
26.024	32.7824
26.108	29.5644
26.192	26.0853
26.276	22.9805
26.36	20.7107
26.444	19.4246
26.528	18.9947
26.612	19.1024
26.696	19.4544
26.78	19.9178
26.864	20.5917
26.948	21.763
27.028	23.6245

File: LPE453_t107_cm-1.asc
PE IR       SPECTRUM    SPECTRUM    ASCII       PEDS        1.60
  -1
LP0A78~1.ASC
17/05/16
23:07:12.00
17/05/16
23:07:12.00
tln
$LPE453_t0107$<tbV0>[-5.2,10.4,8.0,0.0,27,1,0]
370
64

2002,4.07
MIRTGS : RIGHTBACK : INTERNAL 2
MIR : ON : INTERNAL 2
OPTKBR

0.200000
8
8.000000
FILLER
RATIO
SPECTRUM
UNLOCKED 256

DOUBLE
64
COMBINED
1
0
0

1.000000
RATIO

1
0
TRUE
51149
0
LEFT NOT FITTED RIGHT NOT FITTED 0
NONE
NONE
15600
12
4.427000
51148
TRUE
1 0 8 72 0 0 0 0

15798

#HDR
-1
-1
#GR
CM-1
%T
2.38419e-05
0.0
5000
-1.000000
4631
8
35.9482
-8.654284
#DATA
5000	-0.003767
4984	0.352478
4968	0.532436
4952	0.280308
4936	0.287985
4920	0.276541
4904	0.367283
4888	0.086379
4872	0.239682
4856	-0.367736
4840	0.266408
4824	0.199484
4808	-0.339508
4792	0.083041
4776	0.605320
4760	0.103092
4744	-0.090003
4728	0.562930
4712	0.217103
4696	-0.129556
4680	0.669407
4664	1.512837
4648	0.958991
4632	-0.712060
4616	0.870180
4600	0.073432
4584	0.266742
4568	-0.098180
4552	0.611805
4536	0.256347
4520	0.684142
4504	3.534579
4488	-4.648756
4472	-1.706409
4456	0.018930
4440	0.747942
4424	0.559806
4408	0.280833
4392	0.473499
4376	0.308370
4360	0.063371
4344	0.188255
4328	-0.113534
4312	0.027036
4296	0.309395
4280	0.096845
4264	-0.021338
4248	-0.138926
4232	0.232434
4216	0.040984
4200	0.019693
4184	0.338530
4168	0.104856
4152	0.162672
4136	0.081753
4120	0.233459
4104	-0.028324
4088	0.291800
4072	-0.031661
4056	0.000548
4040	0.139355
4024	0.175476
4008	0.059390
3992	0.340032
3976	-0.076413
3960	0.008940
3944	-0.008058
3928	-0.064969
3912	0.197219
3896	-0.087094
3880	0.042462
3864	0.071191
3848	0.230979
3832	-0.058484
3816	0.189185
3800	-0.044202
3784	-0.003361
3768	0.060367
3752	0.002908
3736	0.083065
3720	-0.001049
3704	-0.084352
3688	0.174188
3672	-0.090217
3656	-0.089621
3640	-0.012087
3624	0.105690
3608	0.011181
3592	0.125169
3576	0.044894
3560	-0.031423
3544	-0.066447
3528	0.027680
3512	-0.168728
3496	-0.209712
3480	0.193023
3464	-0.002193
3448	0.052070
3432	-0.047683
3416	0.179290
3400	0.157356
3384	-0.083589
3368	0.059652
3352	-0.115132
3336	0.210165
3320	0.001239
3304	-0.034284
3288	0.101017
3272	0.131487
3256	-0.007581
3240	0.029587
3224	-0.098514
3208	0.054335
3192	0.233364
3176	0.073719
3160	0.139355
3144	0.088167
3128	0.015950
3112	0.065445
3096	0.087428
3080	-0.023031
3064	0.063419
3048	0.039911
3032	0.037026
3016	0.009536
3000	0.056791
2984	0.011062
2968	0.102519
2952	0.087833
2936	0.123405
2920	0.114607
2904	0.045228
2888	-0.027871
2872	-0.051784
2856	0.006389
2840	0.170612
2824	0.045824
2808	-0.038790
2792	0.112485
2776	0.042390
2760	0.053191
2744	-0.040411
2728	0.026369
2712	-0.098752
2696	0.121235
2680	-0.001668
2664	0.113153
2648	0.010967
2632	0.032281
2616	0.056815
2600	-0.040149
2584	0.006246
2568	0.022864
2552	0.035667
2536	0.023293
2520	0.071430
2504	0.068950
2488	-0.033450
2472	0.008201
2456	0.107407
2440	-0.048732
2424	-0.143623
2408	0.108981
2392	0.177907
2376	0.059223
2360	0.201535
2344	0.224661
2328	0.280833
2312	0.481581
2296	0.737857
2280	1.041865
2264	1.379489
2248	1.922273
2232	2.658557
2216	3.549814
2200	4.700541
2184	5.962109
2168	7.667851
2152	9.269857
2136	11.171
2120	12.9469
2104	15.0856
2088	17.0115
2072	18.7446
2056	20.7319
2040	22.5582
2024	23.9023
2008	25.5548
1992	26.824
1976	27.7782
1960	28.7114
1944	29.9644
1928	30.5871
1912	30.8945
1896	31.7293
1880	32.5492
1864	32.517
1848	32.8014
1832	33.537
1816	33.6943
1800	33.3987
1784	33.8818
1768	34.4035
1752	34.059
1736	33.9122
1720	34.5597
1704	34.5554
1688	34.1233
1672	34.2828
1656	34.9699
1640	34.6945
1624	34.3344
1608	34.7606
1592	35.0111
1576	34.4564
1560	34.257
1544	34.9648
1528	35.0101
1512	34.3289
1496	34.2528
1480	35.0243
1464	34.7042
1448	34.1388
1432	34.5327
1416	35.0182
1400	34.3983
1384	33.9526
1368	34.7714
1352	34.7614
1336	34.1354
1320	34.1229
1304	34.8984
1288	34.5977
1272	33.8446
1256	34.089
1240	34.8585
1224	34.5166
1208	33.7068
1192	34.2991
1176	34.715
1160	33.9773
1144	33.5841
1128	34.3046
1112	34.4385
1096	33.5947
1080	33.3905
1064	34.1329
1048	33.9052
1032	33.1404
1016	33.2607
1000	34.1526
984	 33.6595
968	 32.6054
952	 33.1116
936	 33.7368
920	 33.0089
904	 32.2832
888	 32.566
872	 33.2106
856	 32.0842
840	 31.6167
824	 32.2488
808	 32.3447
792	 31.1506
776	 31.0578
760	 31.7085
744	 31.1728
728	 30.0341
712	 30.2739
696	 30.8032
680	 30.0277
664	 28.8829
648	 28.9041
632	 29.909
616	 28.4745
600	 27.6948
584	 28.0368
568	 28.2191
552	 26.4621
536	 26.2167
520	 26.0116
504	 26.1999
488	 24.9104
472	 25.1597
456	 24.2397
440	 25.8717
424	 21.8096
408	 21.0711
392	 27.8635
376	 19.0576
370	 23.6245

File: LPE453_t108.asc
PE IR       SPECTRUM    SPECTRUM    ASCII       PEDS        1.60
  -1
LP9396~1.ASC
17/05/16
23:11:49.00
17/05/16
23:12:15.00
tln
$LPE453_t0108$<tbV0>[-7.8,10.4,8.0,0.0,27,1,0]
27.028
64

2002,4.07
MIRTGS : RIGHTBACK : INTERNAL 2
MIR : ON : INTERNAL 2
OPTKBR

0.200000
8
8.000000
FILLER
RATIO
SPECTRUM
UNLOCKED 256

DOUBLE
64
COMBINED
1
0
0

0.002000
RATIO

1
0
TRUE
51149
0
LEFT NOT FITTED RIGHT NOT FITTED 0
NONE
NONE
15600
12
4.427000
51148
TRUE
1 0 8 72 0 0 0 0

15798

#HDR
-1
-1
#GR
µM
%T
2.38419e-05
0.0
2.000000
0.002000
12515
8
37.2319
-4.695597
#DATA
2.000000	 0.448870
2.084000	 -0.072582
2.168000	 1.045503
2.252000	 0.149276
2.336000	 -0.105842
2.420000	 -0.054906
2.504000	 0.121753
2.588000	 0.151015
2.672000	 0.110358
2.756000	 -0.052978
2.840000	 0.194099
2.924000	 -0.014709
3.008000	 -0.084682
3.092000	 0.027715
3.176000	 -0.002779
3.260000	 0.041751
3.344000	 0.015492
3.428000	 0.025228
3.512000	 0.169297
3.596000	 -0.016922
3.680000	 -0.067251
3.764000	 0.068402
3.848000	 0.018186
3.932000	 -0.007938
4.016000	 -0.006824
4.100000	 -0.064738
4.184000	 0.162813
4.268000	 0.268974
4.352000	 0.770769
4.436000	 1.902903
4.520000	 4.072692
4.604000	 7.722245
4.688000	 12.2649
4.772000	 17.1314
4.856000	 21.8528
4.940000	 25.7419
5.024000	 28.6882
5.108000	 31.247
5.192000	 32.4696
5.276000	 34.2724
5.359999	 34.6149
5.444000	 35.8039
5.528000	 35.6056
5.612000	 36.5944
5.696000	 36.0457
5.780000	 36.7599
5.864000	 36.4011
5.948000	 36.6347
6.032000	 37.017
6.116000	 36.363
6.200000	 36.9745
6.284000	 36.7505
6.368000	 36.408
6.452000	 37.2151
6.536000	 36.5907
6.620000	 36.2727
6.704000	 36.7977
6.788000	 36.6212
6.872000	 35.955
6.956000	 36.4695
7.040000	 36.7358
7.124000	 35.8032
7.208000	 35.9138
7.292000	 36.7106
7.376000	 36.3292
7.460000	 35.5618
7.544000	 35.8997
7.628000	 36.4991
7.712000	 36.1725
7.796000	 35.3886
7.880000	 35.3988
7.964000	 36.0524
8.048000	 36.1201
8.132000	 35.5959
8.216000	 35.1325
8.300000	 35.4849
8.384000	 36.0245
8.468000	 35.9119
8.552000	 35.3904
8.635999	 34.7532
8.719999	 35.066
8.804000	 35.7092
8.888000	 35.8859
8.972000	 35.3917
9.056000	 34.9799
9.140000	 34.4884
9.224000	 34.8907
9.308000	 35.3638
9.391999	 35.6993
9.475999	 35.2676
9.560000	 34.6381
9.644000	 34.3919
9.728000	 34.3837
9.812000	 34.8419
9.896000	 35.3959
9.980000	 35.2195
10.064	34.9098
10.148	34.4426
10.232	33.9473
10.316	33.7905
10.4	34.185
10.484	34.5752
10.568	34.8351
10.652	34.7336
10.736	34.2696
10.82	33.7196
10.904	33.3094
10.988	33.222
11.072	33.3107
11.156	33.6277
11.24	34.0506
11.324	34.316
11.408	34.0389
11.492	33.6183
11.576	33.0988
11.66	32.818
11.744	32.7779
11.828	32.6574
11.912	32.8132
11.996	33.0951
12.08	33.3945
12.164	33.4422
12.248	33.4403
12.332	33.1066
12.416	32.6633
12.5	32.2663
12.584	32.0628
12.668	31.9164
12.752	31.9041
12.836	32.0339
12.92	32.2224
13.004	32.3989
13.088	32.4353
13.172	32.383
13.256	32.3338
13.34	32.1377
13.424	31.743
13.508	31.4812
13.592	31.2215
13.676	30.919
13.76	30.7521
13.844	30.6698
13.928	30.8962
14.012	31.2017
14.096	31.3453
14.18	31.4905
14.264	31.5716
14.348	31.492
14.432	31.3782
14.516	31.2176
14.6	30.9092
14.684	30.5228
14.768	30.157
14.852	29.8529
14.936	29.7426
15.02	29.8253
15.104	29.9222
15.188	30.0167
15.272	30.1559
15.356	30.3259
15.44	30.5052
15.524	30.6196
15.608	30.6379
15.692	30.6116
15.776	30.4809
15.86	30.1559
15.944	29.7801
16.028	29.5312
16.112	29.3833
16.196	29.2942
16.28	29.2495
16.364	29.1158
16.448	28.8443
16.532	28.6789
16.616	28.8185
16.7	29.0874
16.784	29.1912
16.868	29.103
16.952	29.0294
17.036	29.0825
17.12	29.1573
17.204	29.1479
17.288	29.1001
17.372	29.0643
17.456	28.9958
17.54	28.871
17.624	28.7241
17.708	28.5556
17.792	28.344
17.876	28.1061
17.96	27.875
18.044	27.6674
18.128	27.514
18.212	27.4425
18.296	27.4144
18.38	27.3508
18.464	27.2328
18.548	27.1287
18.632	27.1223
18.716	27.2244
18.8	27.3588
18.884	27.423
18.968	27.3631
19.052	27.2266
19.136	27.1438
19.22	27.228
19.304	27.453
19.388	27.6504
19.472	27.6494
19.556	27.4212
19.64	27.0825
19.724	26.7602
19.808	26.4939
19.892	26.2656
19.976	26.0795
20.06	25.9737
20.144	25.9644
20.228	26.0073
20.312	26.0171
20.396	25.9346
20.48	25.7732
20.564	25.6025
20.648	25.4958
20.732	25.4776
20.816	25.5227
20.9	25.5874
20.984	25.6472
21.068	25.7025
21.152	25.7571
21.236	25.8106
21.32	25.8752
21.404	25.982
21.488	26.1458
21.572	26.3296
21.656	26.4466
21.74	26.4063
21.824	26.1785
21.908	25.8133
21.992	25.4025
22.076	25.031
22.16	24.7441
22.244	24.5549
22.328	24.4607
22.412	24.4453
22.496	24.4765
22.58	24.5218
22.664	24.5692
22.748	24.641
22.832	24.7704
22.916	24.9556
23	25.1256
23.084	25.1495
23.168	24.8888
23.252	24.2899
23.336	23.4136
23.42	22.4356
23.504	21.5717
23.588	20.9953
23.672	20.7847
23.756	20.9141
23.84	21.28
23.924	21.7661
24.008	22.2681
24.092	22.6872
24.176	22.9479
24.26	23.0088
24.344	22.8397
24.428	22.4211
24.512	21.768
24.596	20.9104
24.68	19.8921
24.764	18.7788
24.848	17.6538
24.932	16.6063
25.016	15.716
25.1	15.0556
25.184	14.6763
25.268	14.6294
25.352	14.9997
25.436	15.951
25.52	17.6518
25.604	20.1596
25.688	23.3498
25.772	26.7882
25.856	29.772
25.94	31.585
26.024	31.6635
26.108	29.8088
26.192	26.2768
26.276	21.7169
26.36	17.0608
26.444	13.1965
26.528	10.7471
26.612	9.982991
26.696	10.8717
26.78	13.1417
26.864	16.4448
26.948	20.4206
27.028	24.4389

File: LPE453_t108_cm-1.asc
PE IR       SPECTRUM    SPECTRUM    ASCII       PEDS        1.60
  -1
LP0B78~1.ASC
17/05/16
23:11:49.00
17/05/16
23:11:49.00
tln
$LPE453_t0108$<tbV0>[-7.8,10.4,8.0,0.0,27,1,0]
370
64

2002,4.07
MIRTGS : RIGHTBACK : INTERNAL 2
MIR : ON : INTERNAL 2
OPTKBR

0.200000
8
8.000000
FILLER
RATIO
SPECTRUM
UNLOCKED 256

DOUBLE
64
COMBINED
1
0
0

1.000000
RATIO

1
0
TRUE
51149
0
LEFT NOT FITTED RIGHT NOT FITTED 0
NONE
NONE
15600
12
4.427000
51148
TRUE
1 0 8 72 0 0 0 0

15798

#HDR
-1
-1
#GR
CM-1
%T
2.38419e-05
0.0
5000
-1.000000
4631
8
37.2319
-4.727029
#DATA
5000	0.448870
4984	-0.541019
4968	0.051307
4952	0.448131
4936	0.202989
4920	-0.263190
4904	-0.170993
4888	0.098347
4872	0.122356
4856	0.141787
4840	-0.265312
4824	0.258755
4808	0.388765
4792	-0.107693
4776	-0.345253
4760	-0.219464
4744	0.183677
4728	0.230097
4712	0.492811
4696	0.388193
4680	-0.142431
4664	0.480651
4648	0.803923
4632	0.756978
4616	1.049065
4600	1.916432
4584	0.359869
4568	0.230836
4552	-0.248908
4536	0.141835
4520	0.228309
4504	-0.803160
4488	12.4393
4472	-2.048015
4456	-0.604844
4440	0.106143
4424	-0.591969
4408	0.174093
4392	-0.245690
4376	0.021934
4360	0.319337
4344	0.060319
4328	0.196814
4312	0.293040
4296	0.077033
4280	-0.090718
4264	0.187516
4248	-0.022745
4232	-0.147914
4216	0.039982
4200	0.319457
4184	0.211071
4168	0.238108
4152	-0.072503
4136	-0.028944
4120	0.042390
4104	-0.044894
4088	-0.078773
4072	-0.054788
4056	-0.099802
4040	0.167179
4024	0.153923
4008	0.072336
3992	0.121521
3976	0.038909
3960	0.245857
3944	0.130915
3928	-0.093698
3912	0.056338
3896	0.053715
3880	0.088953
3864	0.151109
3848	-0.099492
3832	0.018405
3816	0.152182
3800	-0.023841
3784	0.097918
3768	0.010108
3752	0.097179
3736	0.138711
3720	-0.008249
3704	0.093054
3688	0.170326
3672	-0.057625
3656	0.061440
3640	0.042510
3624	0.008773
3608	0.047254
3592	0.053191
3576	0.014448
3560	0.019001
3544	-0.013256
3528	0.185751
3512	-0.030279
3496	0.064849
3480	0.026202
3464	0.099730
3448	0.038766
3432	0.082445
3416	-0.041699
3400	0.074052
3384	0.002551
3368	-0.071024
3352	0.012516
3336	0.121045
3320	-0.129652
3304	-0.007987
3288	-0.023746
3272	0.107336
3256	0.067210
3240	0.096702
3224	-0.077676
3208	0.071120
3192	0.083351
3176	-0.090479
3160	-0.086236
3144	0.072932
3128	0.108313
3112	0.087404
3096	0.005125
3080	-0.005245
3064	0.020480
3048	-0.005769
3032	0.072002
3016	0.088000
3000	-0.011515
2984	-0.066137
2968	-0.071406
2952	-0.038456
2936	0.035667
2920	0.020432
2904	0.070071
2888	0.053191
2872	0.049614
2856	0.011944
2840	0.112676
2824	-0.062036
2808	0.046372
2792	-0.037217
2776	-0.010323
2760	0.063967
2744	-0.025725
2728	0.010585
2712	-0.004839
2696	-0.016760
2680	0.079178
2664	-0.046634
2648	-0.007128
2632	-0.013780
2616	0.060415
2600	0.009346
2584	0.007915
2568	0.056934
2552	0.061035
2536	-0.043106
2520	0.032210
2504	0.003576
2488	-0.009894
2472	0.043225
2456	0.041747
2440	-0.058364
2424	-0.038576
2408	0.172448
2392	0.152015
2376	0.112462
2360	0.150251
2344	0.275444
2328	0.378489
2312	0.510072
2296	0.795125
2280	1.096272
2264	1.482748
2248	2.220749
2232	2.827382
2216	3.778839
2200	5.042695
2184	6.544804
2168	8.124041
2152	9.937262
2136	11.8576
2120	14.0242
2104	16.1247
2088	18.1769
2072	20.198
2056	22.2369
2040	23.9014
2024	25.7716
2008	27.3927
1992	28.5892
1976	29.715
1960	31.0694
1944	31.9578
1928	32.3524
1912	33.3638
1896	34.2439
1880	34.3569
1864	34.6506
1848	35.5091
1832	35.8654
1816	35.5075
1800	35.8191
1784	36.5817
1768	36.3827
1752	36.0871
1736	36.5704
1720	36.8701
1704	36.356
1688	36.3703
1672	37.1136
1656	36.9448
1640	36.4166
1624	36.6021
1608	37.0616
1592	36.7887
1576	36.2556
1560	36.7557
1544	37.1833
1528	36.4739
1512	36.2612
1496	36.7552
1480	36.8474
1464	36.1825
1448	36.2711
1432	36.8023
1416	36.4942
1400	35.7492
1384	36.082
1368	36.7451
1352	36.1722
1336	35.5092
1320	36.166
1304	36.407
1288	35.6476
1272	35.2602
1256	36.037
1240	36.0638
1224	35.2597
1208	35.3346
1192	36.0469
1176	35.7336
1160	34.7727
1144	35.1396
1128	35.9306
1112	35.33
1096	34.4939
1080	35.0948
1064	35.7051
1048	34.6974
1032	34.3468
1016	35.1351
1000	35.1456
984	 34.3797
968	 33.834
952	 34.6525
936	 34.5748
920	 33.4404
904	 33.2967
888	 34.139
872	 33.7416
856	 32.8178
840	 32.7963
824	 33.433
808	 32.87
792	 31.9864
776	 32.1422
760	 32.3915
744	 31.6733
728	 30.794
712	 31.27
696	 31.4643
680	 30.4242
664	 29.8761
648	 30.4898
632	 30.3204
616	 29.2739
600	 28.9873
584	 29.1587
568	 28.7573
552	 27.5311
536	 27.1431
520	 27.2512
504	 26.3999
488	 25.7481
472	 25.7789
456	 25.7069
440	 24.6189
424	 21.0101
408	 21.7878
392	 17.4113
376	 9.996485
370	 24.4389