Folder: Masteroppgave/Bakgrunnsmateriale/MATLAB/FTIR/ftir_data/LPE453/Mapping_121 (part 19)

File: LPE453_t39.asc
PE IR       SPECTRUM    SPECTRUM    ASCII       PEDS        1.60
  -1
LPEF9D~1.ASC
17/05/16
17:31:40.00
17/05/16
17:32:06.00
tln
$LPE453_t0039$<tbV0>[0.0,-5.2,8.0,0.0,27,1,0]
27.028
64

2002,4.07
MIRTGS : RIGHTBACK : INTERNAL 2
MIR : ON : INTERNAL 2
OPTKBR

0.200000
8
8.000000
FILLER
RATIO
SPECTRUM
UNLOCKED 256

DOUBLE
64
COMBINED
1
0
0

0.002000
RATIO

1
0
TRUE
51149
0
LEFT NOT FITTED RIGHT NOT FITTED 0
NONE
NONE
15600
12
4.427000
51148
TRUE
1 0 8 72 0 0 0 0

15798

#HDR
-1
-1
#GR
µM
%T
2.38419e-05
0.0
2.000000
0.002000
12515
8
38.4702
-4.653425
#DATA
2.000000	 -0.064992
2.084000	 0.067218
2.168000	 -0.059810
2.252000	 0.589037
2.336000	 0.242592
2.420000	 0.013069
2.504000	 0.134041
2.588000	 -0.112363
2.672000	 -0.011251
2.756000	 -0.039266
2.840000	 0.136288
2.924000	 0.028724
3.008000	 -0.046038
3.092000	 -0.081022
3.176000	 0.135979
3.260000	 0.075116
3.344000	 0.075681
3.428000	 0.048025
3.512000	 0.019271
3.596000	 -0.031765
3.680000	 0.016431
3.764000	 0.077627
3.848000	 0.059998
3.932000	 0.075431
4.016000	 -0.118976
4.100000	 -0.014965
4.184000	 0.051705
4.268000	 -0.022425
4.352000	 0.270569
4.436000	 0.519825
4.520000	 1.525364
4.604000	 3.706397
4.688000	 6.669293
4.772000	 10.8377
4.856000	 14.8915
4.940000	 18.6228
5.024000	 21.5655
5.108000	 23.904
5.192000	 25.6324
5.276000	 27.0675
5.359999	 27.9505
5.444000	 28.8269
5.528000	 29.3314
5.612000	 29.5757
5.696000	 29.9596
5.780000	 30.1241
5.864000	 30.3503
5.948000	 30.2472
6.032000	 30.449
6.116000	 30.5228
6.200000	 30.4073
6.284000	 30.4539
6.368000	 30.4571
6.452000	 30.2999
6.536000	 30.3235
6.620000	 30.2827
6.704000	 30.0225
6.788000	 30.2548
6.872000	 30.0278
6.956000	 30.1142
7.040000	 29.9846
7.124000	 29.9898
7.208000	 30.0034
7.292000	 29.9025
7.376000	 29.7691
7.460000	 29.8873
7.544000	 29.7436
7.628000	 29.5904
7.712000	 29.6122
7.796000	 29.7503
7.880000	 29.419
7.964000	 29.391
8.048000	 29.3279
8.132000	 29.361
8.216000	 29.149
8.300000	 29.1874
8.384000	 29.216
8.468000	 29.0689
8.552000	 29.0737
8.635999	 28.9425
8.719999	 28.8506
8.804000	 28.8424
8.888000	 28.6721
8.972000	 28.7855
9.056000	 28.6031
9.140000	 28.7483
9.224000	 28.3497
9.308000	 28.4472
9.391999	 28.3432
9.475999	 28.3237
9.560000	 28.1438
9.644000	 28.015
9.728000	 27.8163
9.812000	 27.7013
9.896000	 27.9001
9.980000	 27.8734
10.064	27.5969
10.148	27.2599
10.232	27.0852
10.316	27.3488
10.4	27.2432
10.484	27.2955
10.568	27.1693
10.652	26.7805
10.736	26.7884
10.82	26.8113
10.904	26.9344
10.988	26.8907
11.072	26.3955
11.156	26.2596
11.24	26.2414
11.324	26.071
11.408	26.0332
11.492	26.1871
11.576	26.201
11.66	25.9786
11.744	25.703
11.828	25.3716
11.912	25.1956
11.996	25.4386
12.08	25.5381
12.164	25.5411
12.248	25.4099
12.332	25.0829
12.416	24.7869
12.5	24.7695
12.584	24.8767
12.668	24.6996
12.752	24.665
12.836	24.6171
12.92	24.3243
13.004	24.2906
13.088	24.3094
13.172	24.0993
13.256	23.9821
13.34	23.8827
13.424	23.4361
13.508	23.1693
13.592	23.2529
13.676	23.4765
13.76	23.54
13.844	23.4448
13.928	23.342
14.012	23.2144
14.096	23.0621
14.18	22.9979
14.264	22.9567
14.348	22.7098
14.432	22.5665
14.516	22.8615
14.6	23.1538
14.684	23.1037
14.768	22.8587
14.852	22.4808
14.936	22.1523
15.02	21.9831
15.104	21.8298
15.188	21.7064
15.272	21.6533
15.356	21.633
15.44	21.6799
15.524	21.7348
15.608	21.7008
15.692	21.6644
15.776	21.6787
15.86	21.6713
15.944	21.6133
16.028	21.5024
16.112	21.338
16.196	21.1521
16.28	20.983
16.364	20.8394
16.448	20.6455
16.532	20.3316
16.616	20.0734
16.7	20.1142
16.784	20.3668
16.868	20.5945
16.952	20.73
17.036	20.7647
17.12	20.6462
17.204	20.4351
17.288	20.2824
17.372	20.1868
17.456	20.0027
17.54	19.6926
17.624	19.4104
17.708	19.291
17.792	19.2984
17.876	19.3124
17.96	19.2796
18.044	19.2326
18.128	19.2292
18.212	19.2931
18.296	19.3715
18.38	19.3385
18.464	19.1315
18.548	18.8696
18.632	18.7441
18.716	18.7937
18.8	18.8613
18.884	18.7937
18.968	18.6153
19.052	18.4788
19.136	18.4663
19.22	18.5052
19.304	18.4653
19.388	18.3189
19.472	18.1718
19.556	18.1412
19.64	18.2261
19.724	18.3125
19.808	18.2878
19.892	18.1431
19.976	17.965
20.06	17.8581
20.144	17.8623
20.228	17.9401
20.312	18.0195
20.396	18.056
20.48	18.0763
20.564	18.1455
20.648	18.2735
20.732	18.3656
20.816	18.2702
20.9	17.8987
20.984	17.3008
21.068	16.6511
21.152	16.1607
21.236	15.9653
21.32	16.0578
21.404	16.2944
21.488	16.4774
21.572	16.4665
21.656	16.2633
21.74	15.9966
21.824	15.8264
21.908	15.8339
21.992	15.9889
22.076	16.2048
22.16	16.4071
22.244	16.56
22.328	16.6507
22.412	16.6592
22.496	16.5719
22.58	16.3941
22.664	16.164
22.748	15.9375
22.832	15.73
22.916	15.5122
23	15.2362
23.084	14.8883
23.168	14.5229
23.252	14.238
23.336	14.1298
23.42	14.2457
23.504	14.5442
23.588	14.9287
23.672	15.3171
23.756	15.6834
23.84	16.0538
23.924	16.5215
24.008	17.1736
24.092	18.0208
24.176	18.9991
24.26	19.9537
24.344	20.6732
24.428	21.0117
24.512	20.9853
24.596	20.7368
24.68	20.4363
24.764	20.1685
24.848	19.8493
24.932	19.2237
25.016	18.0299
25.1	16.2
25.184	13.9863
25.268	11.9208
25.352	10.5949
25.436	10.6667
25.52	12.5733
25.604	16.336
25.688	21.52
25.772	27.2747
25.856	32.5676
25.94	36.4862
26.024	38.3598
26.108	37.8983
26.192	35.0975
26.276	30.2307
26.36	23.8125
26.444	16.7561
26.528	10.2694
26.612	5.653822
26.696	3.932563
26.78	5.528929
26.864	9.949478
26.948	15.7767
27.028	20.6551

File: LPE453_t39_cm-1.asc
PE IR       SPECTRUM    SPECTRUM    ASCII       PEDS        1.60
  -1
LPE8D9~1.ASC
17/05/16
17:31:40.00
17/05/16
17:31:40.00
tln
$LPE453_t0039$<tbV0>[0.0,-5.2,8.0,0.0,27,1,0]
370
64

2002,4.07
MIRTGS : RIGHTBACK : INTERNAL 2
MIR : ON : INTERNAL 2
OPTKBR

0.200000
8
8.000000
FILLER
RATIO
SPECTRUM
UNLOCKED 256

DOUBLE
64
COMBINED
1
0
0

1.000000
RATIO

1
0
TRUE
51149
0
LEFT NOT FITTED RIGHT NOT FITTED 0
NONE
NONE
15600
12
4.427000
51148
TRUE
1 0 8 72 0 0 0 0

15798

#HDR
-1
-1
#GR
CM-1
%T
2.38419e-05
0.0
5000
-1.000000
4631
8
38.4603
-5.418682
#DATA
5000	-0.064992
4984	0.228738
4968	-0.038146
4952	-0.067663
4936	0.241494
4920	0.138664
4904	0.208044
4888	0.093412
4872	-0.043296
4856	0.285935
4840	0.201487
4824	0.286221
4808	0.055265
4792	-0.110435
4776	0.171780
4760	0.373053
4744	0.153255
4728	-0.159573
4712	0.195097
4696	0.065732
4680	-0.225639
4664	0.569009
4648	0.174474
4632	-0.036644
4616	-0.050330
4600	-0.340771
4584	-0.274205
4568	0.415611
4552	0.781583
4536	1.067781
4520	-0.490689
4504	2.812552
4488	0.815010
4472	0.507450
4456	0.259470
4440	0.537610
4424	0.147438
4408	0.195360
4392	0.276947
4376	0.364375
4360	0.201869
4344	-0.008583
4328	-0.000119
4312	0.026583
4296	-0.176787
4280	0.223374
4264	0.080394
4248	0.395727
4232	0.020194
4216	-0.077915
4200	-0.030112
4184	0.498723
4168	-0.027799
4152	0.079965
4136	-0.054168
4120	0.149202
4104	0.138950
4088	-0.033712
4072	0.070261
4056	0.035572
4040	0.069928
4024	0.257992
4008	0.139880
3992	0.159788
3976	0.156497
3960	-0.140500
3944	0.006985
3928	0.112271
3912	-0.024843
3896	-0.074219
3880	0.211215
3864	-0.112271
3848	-0.142598
3832	0.102424
3816	0.189185
3800	0.014948
3784	0.128197
3768	0.053930
3752	0.049662
3736	0.097131
3720	0.034666
3704	0.001144
3688	-0.039172
3672	0.106835
3656	0.108551
3640	-0.121569
3624	-0.054621
3608	0.094532
3592	-0.026321
3576	0.054574
3560	-0.022101
3544	0.022482
3528	0.042438
3512	0.119900
3496	0.033521
3480	0.260090
3464	-0.026178
3448	0.254058
3432	0.021624
3416	0.072979
3400	0.098323
3384	0.035429
3368	0.063610
3352	-0.017857
3336	0.167918
3320	-0.024247
3304	0.047421
3288	0.031638
3272	-0.136351
3256	0.167608
3240	-0.080370
3224	0.055789
3208	0.194239
3192	0.094509
3176	0.111174
3160	0.055837
3144	0.104022
3128	0.133323
3112	-0.010395
3096	0.206136
3080	0.080823
3064	0.118374
3048	0.048327
3032	0.104093
3016	-0.039649
3000	0.043678
2984	0.076007
2968	0.055003
2952	0.005555
2936	0.078392
2920	0.153183
2904	-0.042724
2888	0.060296
2872	-0.001668
2856	0.012803
2840	0.014805
2824	0.088644
2808	0.036025
2792	0.089550
2776	-0.014519
2760	-0.068306
2744	0.053191
2728	0.056266
2712	0.071096
2696	-0.007605
2680	-0.030970
2664	-0.022435
2648	0.019168
2632	-0.066184
2616	0.084805
2600	0.062990
2584	0.045490
2568	0.050449
2552	0.108361
2536	0.058460
2520	-0.024962
2504	-0.099778
2488	-0.102019
2472	0.042557
2456	0.110316
2440	-0.023436
2424	0.083398
2408	0.003647
2392	0.045442
2376	-0.007843
2360	0.112891
2344	-0.030398
2328	0.103592
2312	0.057339
2296	0.299715
2280	0.280618
2264	0.389194
2248	0.688648
2232	0.878763
2216	1.403665
2200	2.057218
2184	2.814173
2168	3.971695
2152	5.266332
2136	6.410813
2120	8.205652
2104	10.023
2088	11.5465
2072	13.4451
2056	15.2816
2040	16.8958
2024	18.6498
2008	20.0211
1992	21.4491
1976	22.6389
1960	23.7388
1944	24.72
1928	25.5143
1912	26.4407
1896	27.0365
1880	27.5978
1864	27.9775
1848	28.6638
1832	28.9104
1816	29.1905
1800	29.4942
1784	29.5864
1768	29.7973
1752	29.9809
1736	30.1122
1720	30.1589
1704	30.3514
1688	30.2942
1672	30.292
1656	30.4399
1640	30.3651
1624	30.373
1608	30.3604
1592	30.4503
1576	30.4982
1560	30.3424
1544	30.1942
1528	30.2928
1512	30.2753
1496	30.147
1480	30.1518
1464	30.1713
1448	30.0068
1432	30.111
1416	29.9327
1400	29.947
1384	30.0458
1368	29.8763
1352	29.784
1336	29.8885
1320	29.5873
1304	29.5238
1288	29.8152
1272	29.5057
1256	29.3888
1240	29.3321
1224	29.2689
1208	29.2075
1192	29.2136
1176	29.0054
1160	28.9815
1144	28.8989
1128	28.6972
1112	28.8259
1096	28.7563
1080	28.3729
1064	28.3635
1048	28.1203
1032	27.8962
1016	27.6404
1000	27.7893
984	 27.1746
968	 27.3393
952	 27.3354
936	 26.7681
920	 26.8991
904	 26.4544
888	 26.2183
872	 26.1643
856	 25.9018
840	 25.1877
824	 25.5487
808	 24.9045
792	 24.8089
776	 24.4324
760	 24.1419
744	 23.3512
728	 23.5465
712	 23.1531
696	 22.6444
680	 23.0538
664	 21.9123
648	 21.6729
632	 21.6809
616	 21.0723
600	 20.0596
584	 20.6388
568	 19.4605
552	 19.2255
536	 18.7448
520	 18.5065
504	 18.2416
488	 18.0819
472	 16.0417
456	 15.8631
440	 15.9913
424	 14.9142
408	 20.9892
392	 12.2519
376	 6.336808
370	 20.6551

File: LPE453_t40.asc
PE IR       SPECTRUM    SPECTRUM    ASCII       PEDS        1.60
  -1
LPC3A9~1.ASC
17/05/16
17:36:16.00
17/05/16
17:36:42.00
tln
$LPE453_t0040$<tbV0>[-2.6,-5.2,8.0,0.0,27,1,0]
27.028
64

2002,4.07
MIRTGS : RIGHTBACK : INTERNAL 2
MIR : ON : INTERNAL 2
OPTKBR

0.200000
8
8.000000
FILLER
RATIO
SPECTRUM
UNLOCKED 256

DOUBLE
64
COMBINED
1
0
0

0.002000
RATIO

1
0
TRUE
51149
0
LEFT NOT FITTED RIGHT NOT FITTED 0
NONE
NONE
15600
12
4.427000
51148
TRUE
1 0 8 72 0 0 0 0

15798

#HDR
-1
-1
#GR
µM
%T
2.38419e-05
0.0
2.000000
0.002000
12515
8
35.691
-13.3731
#DATA
2.000000	 0.362753
2.084000	 0.332909
2.168000	 0.172074
2.252000	 -0.762951
2.336000	 0.412957
2.420000	 0.104149
2.504000	 0.168196
2.588000	 0.128462
2.672000	 0.064216
2.756000	 0.124458
2.840000	 0.086329
2.924000	 0.109545
3.008000	 0.032857
3.092000	 0.057274
3.176000	 -0.026083
3.260000	 -0.030496
3.344000	 0.000367
3.428000	 -0.040256
3.512000	 0.063020
3.596000	 -0.011978
3.680000	 -0.002903
3.764000	 0.106643
3.848000	 -0.007006
3.932000	 0.090118
4.016000	 -0.042412
4.100000	 -0.002735
4.184000	 0.064138
4.268000	 0.074378
4.352000	 0.196167
4.436000	 0.655183
4.520000	 2.371453
4.604000	 5.039724
4.688000	 8.940929
4.772000	 13.4029
4.856000	 17.8183
4.940000	 21.6059
5.024000	 24.4911
5.108000	 26.9735
5.192000	 28.6611
5.276000	 30.029
5.359999	 30.8908
5.444000	 31.662
5.528000	 32.1583
5.612000	 32.4876
5.696000	 32.5767
5.780000	 33.0006
5.864000	 33.0113
5.948000	 33.1304
6.032000	 33.1449
6.116000	 33.1264
6.200000	 33.2722
6.284000	 33.1408
6.368000	 33.1355
6.452000	 33.1179
6.536000	 33.0193
6.620000	 33.183
6.704000	 32.9283
6.788000	 33.0193
6.872000	 33.0298
6.956000	 33.0052
7.040000	 32.93
7.124000	 32.6068
7.208000	 32.6808
7.292000	 32.6149
7.376000	 32.6452
7.460000	 32.56
7.544000	 32.596
7.628000	 32.5752
7.712000	 32.5075
7.796000	 32.3064
7.880000	 32.417
7.964000	 32.2951
8.048000	 32.1205
8.132000	 32.1225
8.216000	 32.0729
8.300000	 32.1121
8.384000	 31.9683
8.468000	 31.8727
8.552000	 32.1263
8.635999	 31.9008
8.719999	 31.6827
8.804000	 31.6995
8.888000	 31.5219
8.972000	 31.6582
9.056000	 31.5561
9.140000	 31.4574
9.224000	 31.5093
9.308000	 31.4432
9.391999	 31.394
9.475999	 31.4367
9.560000	 31.3187
9.644000	 30.881
9.728000	 30.7167
9.812000	 30.8679
9.896000	 30.7169
9.980000	 30.8474
10.064	30.6878
10.148	30.2979
10.232	30.1755
10.316	30.4365
10.4	30.5865
10.484	30.7134
10.568	30.3321
10.652	30.1943
10.736	29.9363
10.82	29.8755
10.904	29.7688
10.988	29.961
11.072	29.7695
11.156	29.6984
11.24	29.4942
11.324	29.2062
11.408	29.0864
11.492	29.027
11.576	28.9656
11.66	29.2899
11.744	29.3833
11.828	29.4296
11.912	29.0957
11.996	28.8401
12.08	28.6041
12.164	28.3028
12.248	28.174
12.332	28.3946
12.416	28.5874
12.5	28.4843
12.584	28.4812
12.668	28.2712
12.752	27.9254
12.836	27.7965
12.92	27.64
13.004	27.6056
13.088	27.5932
13.172	27.4932
13.256	27.5153
13.34	27.8645
13.424	27.9211
13.508	27.3379
13.592	26.9225
13.676	26.8737
13.76	26.6759
13.844	26.5578
13.928	26.579
14.012	26.4765
14.096	26.4292
14.18	26.5803
14.264	26.7375
14.348	26.7672
14.432	26.6293
14.516	26.387
14.6	26.1185
14.684	25.8727
14.768	25.751
14.852	25.6824
14.936	25.6523
15.02	25.7026
15.104	25.6034
15.188	25.2925
15.272	25.0777
15.356	25.1683
15.44	25.4433
15.524	25.5987
15.608	25.512
15.692	25.2787
15.776	24.9113
15.86	24.4909
15.944	24.266
16.028	24.2413
16.112	24.1416
16.196	23.9095
16.28	23.7799
16.364	23.8425
16.448	23.9474
16.532	24.0344
16.616	24.1858
16.7	24.3591
16.784	24.3787
16.868	24.2038
16.952	23.9847
17.036	23.8246
17.12	23.6767
17.204	23.5044
17.288	23.3963
17.372	23.4481
17.456	23.605
17.54	23.6733
17.624	23.5013
17.708	23.1445
17.792	22.8334
17.876	22.7598
17.96	22.8715
18.044	22.9401
18.128	22.8309
18.212	22.6614
18.296	22.6204
18.38	22.7094
18.464	22.7618
18.548	22.6724
18.632	22.4891
18.716	22.3086
18.8	22.1796
18.884	22.0946
18.968	21.9923
19.052	21.7482
19.136	21.2833
19.22	20.7056
19.304	20.2828
19.388	20.2144
19.472	20.4599
19.556	20.8046
19.64	21.064
19.724	21.2026
19.808	21.2684
19.892	21.2908
19.976	21.263
20.06	21.1954
20.144	21.1498
20.228	21.1941
20.312	21.3275
20.396	21.4677
20.48	21.512
20.564	21.4087
20.648	21.1642
20.732	20.8153
20.816	20.4127
20.9	20.0213
20.984	19.7225
21.068	19.578
21.152	19.5964
21.236	19.727
21.32	19.8958
21.404	20.0482
21.488	20.16
21.572	20.227
21.656	20.2425
21.74	20.2072
21.824	20.1406
21.908	20.0751
21.992	20.0333
22.076	20.0064
22.16	19.9562
22.244	19.8495
22.328	19.6887
22.412	19.5133
22.496	19.3825
22.58	19.3299
22.664	19.3587
22.748	19.4756
22.832	19.7175
22.916	20.1286
23	20.7295
23.084	21.4717
23.168	22.2054
23.252	22.7417
23.336	22.9275
23.42	22.722
23.504	22.1832
23.588	21.4487
23.672	20.6798
23.756	20.034
23.84	19.6677
23.924	19.7206
24.008	20.2431
24.092	21.1104
24.176	22.0042
24.26	22.5158
24.344	22.3023
24.428	21.3117
24.512	19.8557
24.596	18.5011
24.68	17.85
24.764	18.2532
24.848	19.5813
24.932	21.274
25.016	22.5944
25.1	22.916
25.184	21.9545
25.268	19.9331
25.352	17.4537
25.436	15.2445
25.52	13.838
25.604	13.4124
25.688	13.7924
25.772	14.5558
25.856	15.2705
25.94	15.6709
26.024	15.7508
26.108	15.7159
26.192	15.9182
26.276	16.5758
26.36	17.5568
26.444	18.371
26.528	18.3047
26.612	16.5774
26.696	12.6838
26.78	6.663134
26.864	-0.690587
26.948	-7.971015
27.028	-13.3731

File: LPE453_t40_cm-1.asc
PE IR       SPECTRUM    SPECTRUM    ASCII       PEDS        1.60
  -1
LP5955~1.ASC
17/05/16
17:36:16.00
17/05/16
17:36:16.00
tln
$LPE453_t0040$<tbV0>[-2.6,-5.2,8.0,0.0,27,1,0]
370
64

2002,4.07
MIRTGS : RIGHTBACK : INTERNAL 2
MIR : ON : INTERNAL 2
OPTKBR

0.200000
8
8.000000
FILLER
RATIO
SPECTRUM
UNLOCKED 256

DOUBLE
64
COMBINED
1
0
0

1.000000
RATIO

1
0
TRUE
51149
0
LEFT NOT FITTED RIGHT NOT FITTED 0
NONE
NONE
15600
12
4.427000
51148
TRUE
1 0 8 72 0 0 0 0

15798

#HDR
-1
-1
#GR
CM-1
%T
2.38419e-05
0.0
5000
-1.000000
4631
8
35.535
-13.3731
#DATA
5000	0.362753
4984	0.086116
4968	0.774812
4952	0.363707
4936	-0.271368
4920	0.023555
4904	0.304841
4888	0.720930
4872	0.399351
4856	0.265693
4840	0.307512
4824	0.326132
4808	0.209021
4792	-0.045371
4776	0.357341
4760	-0.061845
4744	0.186085
4728	0.109601
4712	0.078296
4696	0.204133
4680	0.475215
4664	0.738620
4648	0.880551
4632	0.354766
4616	0.432300
4600	0.076341
4584	0.244045
4568	-1.858758
4552	-0.778436
4536	-1.745700
4520	26.9664
4504	1.802873
4488	-3.085732
4472	-1.314449
4456	-1.848149
4440	-0.757241
4424	-0.391435
4408	0.343084
4392	0.149583
4376	0.398230
4360	0.681161
4344	0.074434
4328	0.140070
4312	0.402784
4296	0.163841
4280	0.409555
4264	-0.058221
4248	-0.231170
4232	0.138401
4216	0.174665
4200	0.327682
4184	0.258970
4168	-0.017976
4152	-0.028991
4136	0.058913
4120	0.244879
4104	0.366854
4088	-0.085401
4072	0.126981
4056	0.134658
4040	-0.052118
4024	0.112867
4008	0.084781
3992	0.213527
3976	0.383400
3960	0.107622
3944	0.271582
3928	0.085878
3912	-0.095081
3896	0.070142
3880	-0.213599
3864	0.128173
3848	0.099587
3832	-0.022745
3816	0.096750
3800	0.033545
3784	0.009369
3768	0.029635
3752	0.054335
3736	0.072383
3720	0.046825
3704	0.074434
3688	0.125098
3672	-0.069499
3656	-0.018358
3640	0.000333
3624	0.055098
3608	0.065398
3592	-0.004911
3576	0.002145
3560	0.059604
3544	0.015854
3528	0.023269
3512	-0.025200
3496	0.105834
3480	-0.026416
3464	0.244975
3448	-0.029182
3432	0.072813
3416	0.031447
3400	0.030851
3384	0.131440
3368	0.054121
3352	0.183200
3336	0.032877
3320	0.102400
3304	0.167775
3288	0.060701
3272	-0.102829
3256	0.057363
3240	0.163507
3224	0.018405
3208	0.045585
3192	0.261282
3176	0.008440
3160	-0.049066
3144	-0.027370
3128	0.225210
3112	0.212454
3096	0.037336
3080	0.012731
3064	-0.088500
3048	0.105524
3032	0.029134
3016	0.074577
3000	-0.099182
2984	0.026583
2968	0.054001
2952	0.077486
2936	-0.103020
2920	-0.084114
2904	0.034785
2888	0.173902
2872	-0.082516
2856	-0.010800
2840	0.085997
2824	-0.055265
2808	-0.009489
2792	0.072121
2776	-0.015020
2760	0.075316
2744	-0.042581
2728	0.162839
2712	-0.055623
2696	0.078105
2680	0.095582
2664	0.088882
2648	0.109767
2632	-0.061821
2616	0.087642
2600	-0.012803
2584	0.173473
2568	0.077629
2552	0.165438
2536	-0.002002
2520	0.135874
2504	0.086045
2488	-0.034928
2472	0.146031
2456	0.029134
2440	-0.006794
2424	0.190663
2408	0.117993
2392	0.045752
2376	-0.113511
2360	0.080180
2344	0.072360
2328	0.187349
2312	0.160193
2296	0.235557
2280	0.414800
2264	0.536203
2248	0.913405
2232	1.567101
2216	2.180647
2200	3.043627
2184	4.097723
2168	5.386567
2152	6.819200
2136	8.631706
2120	10.4034
2104	12.3586
2088	14.3952
2072	16.3925
2056	18.192
2040	19.9485
2024	21.6397
2008	23.0978
1992	24.369
1976	25.7441
1960	26.8272
1944	27.7539
1928	28.5707
1912	29.3375
1896	30.0032
1880	30.532
1864	30.9297
1848	31.4082
1832	31.6899
1816	31.9956
1800	32.2222
1784	32.489
1768	32.5314
1752	32.6382
1736	32.917
1720	33.157
1704	32.9881
1688	33.14
1672	32.9777
1656	33.1749
1640	33.099
1624	33.092
1608	33.2225
1592	33.1443
1576	33.1551
1560	33.0939
1544	33.2196
1528	32.9973
1512	33.2065
1496	33.0171
1480	33.1702
1464	32.8777
1448	32.9144
1432	33.0127
1416	32.8872
1400	32.5526
1384	32.7295
1368	32.684
1352	32.6339
1336	32.6176
1320	32.5725
1304	32.4785
1288	32.4483
1272	32.3528
1256	32.2953
1240	32.0616
1224	32.1266
1208	32.1408
1192	31.9617
1176	31.9749
1160	31.9609
1144	31.7065
1128	31.502
1112	31.6464
1096	31.493
1080	31.5029
1064	31.3965
1048	31.4479
1032	30.7496
1016	30.7473
1000	30.8598
984	 30.2626
968	 30.4624
952	 30.6491
936	 30.1139
920	 29.7688
904	 29.8078
888	 29.3939
872	 29.0605
856	 29.3483
840	 29.1341
824	 28.3812
808	 28.5426
792	 28.4304
776	 27.698
760	 27.5129
744	 27.8409
728	 26.744
712	 26.4336
696	 26.7499
680	 25.8283
664	 25.6891
648	 25.4181
632	 24.6677
616	 23.8253
600	 24.2991
584	 23.6702
568	 23.5605
552	 22.8553
536	 22.4322
520	 20.6372
504	 21.2824
488	 21.5068
472	 19.6408
456	 20.0615
440	 19.4368
424	 21.477
408	 19.894
392	 13.9508
376	 17.0766
370	 -13.3731

File: LPE453_t41.asc
PE IR       SPECTRUM    SPECTRUM    ASCII       PEDS        1.60
  -1
LPC3AD~1.ASC
17/05/16
17:40:53.00
17/05/16
17:41:19.00
tln
$LPE453_t0041$<tbV0>[-5.2,-5.2,8.0,0.0,27,1,0]
27.028
64

2002,4.07
MIRTGS : RIGHTBACK : INTERNAL 2
MIR : ON : INTERNAL 2
OPTKBR

0.200000
8
8.000000
FILLER
RATIO
SPECTRUM
UNLOCKED 256

DOUBLE
64
COMBINED
1
0
0

0.002000
RATIO

1
0
TRUE
51149
0
LEFT NOT FITTED RIGHT NOT FITTED 0
NONE
NONE
15600
12
4.427000
51148
TRUE
1 0 8 72 0 0 0 0

15798

#HDR
-1
-1
#GR
µM
%T
2.38419e-05
0.0
2.000000
0.002000
12515
8
35.9047
-37.6906
#DATA
2.000000	 0.154805
2.084000	 0.023223
2.168000	 0.081111
2.252000	 -0.082125
2.336000	 0.045189
2.420000	 -0.108912
2.504000	 0.016988
2.588000	 0.009511
2.672000	 -0.060729
2.756000	 0.070426
2.840000	 0.136537
2.924000	 -0.004463
3.008000	 0.001305
3.092000	 0.070333
3.176000	 0.028033
3.260000	 -0.123221
3.344000	 0.034236
3.428000	 -0.012122
3.512000	 0.189385
3.596000	 -0.008267
3.680000	 0.078275
3.764000	 0.029647
3.848000	 0.076423
3.932000	 0.009079
4.016000	 0.231024
4.100000	 -0.036897
4.184000	 0.024278
4.268000	 0.060667
4.352000	 0.449328
4.436000	 1.394153
4.520000	 3.301035
4.604000	 6.638277
4.688000	 11.1262
4.772000	 16.0814
4.856000	 20.708
4.940000	 24.6249
5.024000	 27.389
5.108000	 29.7815
5.192000	 31.5415
5.276000	 32.7305
5.359999	 33.8244
5.444000	 34.3398
5.528000	 34.9475
5.612000	 35.1067
5.696000	 35.3059
5.780000	 35.4341
5.864000	 35.5922
5.948000	 35.6718
6.032000	 35.8236
6.116000	 35.7685
6.200000	 35.7563
6.284000	 35.8366
6.368000	 35.6575
6.452000	 35.703
6.536000	 35.8051
6.620000	 35.6233
6.704000	 35.6338
6.788000	 35.5615
6.872000	 35.3566
6.956000	 35.3753
7.040000	 35.5458
7.124000	 35.226
7.208000	 35.3502
7.292000	 35.4639
7.376000	 35.1819
7.460000	 35.1038
7.544000	 35.2802
7.628000	 35.2807
7.712000	 35.0117
7.796000	 34.9375
7.880000	 35.0158
7.964000	 34.9651
8.048000	 34.7638
8.132000	 34.8202
8.216000	 34.8532
8.300000	 35.0007
8.384000	 34.8276
8.468000	 34.5435
8.552000	 34.4058
8.635999	 34.4604
8.719999	 34.6377
8.804000	 34.4758
8.888000	 34.3817
8.972000	 34.2002
9.056000	 34.1921
9.140000	 34.1782
9.224000	 34.1502
9.308000	 33.8331
9.391999	 33.8056
9.475999	 33.7296
9.560000	 33.7339
9.644000	 33.9789
9.728000	 33.9006
9.812000	 33.8082
9.896000	 33.4947
9.980000	 33.179
10.064	33.3874
10.148	33.5672
10.232	33.8445
10.316	33.4706
10.4	33.102
10.484	32.6796
10.568	32.4653
10.652	32.7215
10.736	33.0764
10.82	33.2051
10.904	33.0824
10.988	32.6226
11.072	32.3261
11.156	32.024
11.24	32.0508
11.324	32.2261
11.408	32.3066
11.492	32.4971
11.576	32.4476
11.66	32.1133
11.744	31.7172
11.828	31.4525
11.912	31.2884
11.996	31.363
12.08	31.6107
12.164	31.8221
12.248	31.6677
12.332	31.5148
12.416	31.4819
12.5	31.3474
12.584	31.126
12.668	30.9126
12.752	30.4924
12.836	30.3645
12.92	30.4861
13.004	30.5522
13.088	30.5071
13.172	30.6663
13.256	30.8347
13.34	30.9651
13.424	31.0426
13.508	30.8071
13.592	30.4476
13.676	30.0582
13.76	29.811
13.844	29.5831
13.928	29.3934
14.012	29.4505
14.096	29.7106
14.18	29.7811
14.264	29.7368
14.348	29.8971
14.432	30.0477
14.516	29.85
14.6	29.3391
14.684	28.9157
14.768	28.6603
14.852	28.4213
14.936	28.3035
15.02	28.3487
15.104	28.3509
15.188	28.2591
15.272	28.272
15.356	28.4202
15.44	28.5635
15.524	28.6501
15.608	28.66
15.692	28.5421
15.776	28.2986
15.86	28.0181
15.944	27.7316
16.028	27.4438
16.112	27.2728
16.196	27.2526
16.28	27.1957
16.364	26.9991
16.448	26.7741
16.532	26.6012
16.616	26.501
16.7	26.5669
16.784	26.8305
16.868	27.139
16.952	27.3224
17.036	27.3327
17.12	27.2243
17.204	27.1356
17.288	27.178
17.372	27.2452
17.456	27.1162
17.54	26.7699
17.624	26.4109
17.708	26.19
17.792	26.0767
17.876	25.962
17.96	25.7864
18.044	25.591
18.128	25.4962
18.212	25.5685
18.296	25.7221
18.38	25.8203
18.464	25.8471
18.548	25.8911
18.632	25.9648
18.716	25.9572
18.8	25.7826
18.884	25.4874
18.968	25.1869
19.052	24.9386
19.136	24.7109
19.22	24.4587
19.304	24.2137
19.388	24.0715
19.472	24.0897
19.556	24.2148
19.64	24.3259
19.724	24.357
19.808	24.3501
19.892	24.3852
19.976	24.4688
20.06	24.5149
20.144	24.4392
20.228	24.2525
20.312	24.0527
20.396	23.9329
20.48	23.9092
20.564	23.9259
20.648	23.9139
20.732	23.8347
20.816	23.694
20.9	23.5306
20.984	23.4092
21.068	23.3997
21.152	23.554
21.236	23.872
21.32	24.2956
21.404	24.7265
21.488	25.0661
21.572	25.2442
21.656	25.2205
21.74	24.9881
21.824	24.5818
21.908	24.0847
21.992	23.6102
22.076	23.2585
22.16	23.0725
22.244	23.0133
22.328	22.9927
22.412	22.9261
22.496	22.7719
22.58	22.5444
22.664	22.2897
22.748	22.0616
22.832	21.9038
22.916	21.8442
23	21.8819
23.084	21.9828
23.168	22.0872
23.252	22.1457
23.336	22.1389
23.42	22.0718
23.504	21.9853
23.588	21.9168
23.672	21.8652
23.756	21.7896
23.84	21.6275
23.924	21.3329
24.008	20.9171
24.092	20.463
24.176	20.088
24.26	19.9322
24.344	20.0676
24.428	20.4337
24.512	20.8978
24.596	21.2494
24.68	21.3627
24.764	21.3387
24.848	21.4267
24.932	21.9372
25.016	23.0549
25.1	24.7388
25.184	26.6818
25.268	28.4388
25.352	29.6335
25.436	30.0447
25.52	29.7063
25.604	28.8387
25.688	27.6638
25.772	26.2769
25.856	24.5893
25.94	22.3421
26.024	19.1892
26.108	14.8927
26.192	9.227350
26.276	2.126763
26.36	-6.123094
26.444	-14.9595
26.528	-23.5631
26.612	-30.8631
26.696	-35.8013
26.78	-37.6801
26.864	-36.4292
26.948	-32.5801
27.028	-27.3467