Folder: Masteroppgave/Bakgrunnsmateriale/MATLAB/FTIR/ftir_data/LPE453/Mapping_121 (part 25)

File: LPE453_t54.asc
PE IR       SPECTRUM    SPECTRUM    ASCII       PEDS        1.60
  -1
LPD7A9~1.ASC
17/05/16
18:47:47.00
17/05/16
18:48:13.00
tln
$LPE453_t0054$<tbV0>[-10.4,-2.6,8.0,0.0,27,1,0]
27.028
64

2002,4.07
MIRTGS : RIGHTBACK : INTERNAL 2
MIR : ON : INTERNAL 2
OPTKBR

0.200000
8
8.000000
FILLER
RATIO
SPECTRUM
UNLOCKED 256

DOUBLE
64
COMBINED
1
0
0

0.002000
RATIO

1
0
TRUE
51149
0
LEFT NOT FITTED RIGHT NOT FITTED 0
NONE
NONE
15600
12
4.427000
51148
TRUE
1 0 8 72 0 0 0 0

15798

#HDR
-1
-1
#GR
µM
%T
2.38419e-05
0.0
2.000000
0.002000
12515
8
32.3929
-39.9492
#DATA
2.000000	 0.153374
2.084000	 -0.141010
2.168000	 0.140634
2.252000	 -0.459015
2.336000	 0.331931
2.420000	 0.224963
2.504000	 0.031874
2.588000	 0.089991
2.672000	 0.047654
2.756000	 0.161081
2.840000	 0.006469
2.924000	 0.009593
3.008000	 0.122024
3.092000	 0.005279
3.176000	 0.157964
3.260000	 0.011463
3.344000	 -0.010373
3.428000	 0.023695
3.512000	 0.157979
3.596000	 -0.013249
3.680000	 0.096157
3.764000	 0.138569
3.848000	 0.039228
3.932000	 -0.021791
4.016000	 0.141965
4.100000	 -0.016725
4.184000	 0.021752
4.268000	 0.126802
4.352000	 0.411436
4.436000	 0.793120
4.520000	 2.347452
4.604000	 4.870028
4.688000	 8.502798
4.772000	 12.868
4.856000	 16.8718
4.940000	 20.7698
5.024000	 23.7871
5.108000	 26.267
5.192000	 27.8426
5.276000	 29.0581
5.359999	 30.1963
5.444000	 30.6287
5.528000	 31.3101
5.612000	 31.54
5.696000	 31.7044
5.780000	 31.9846
5.864000	 32.1064
5.948000	 32.1992
6.032000	 32.1054
6.116000	 32.2112
6.200000	 32.2892
6.284000	 32.0361
6.368000	 32.3649
6.452000	 31.9606
6.536000	 32.1549
6.620000	 32.193
6.704000	 31.879
6.788000	 32.0908
6.872000	 31.9569
6.956000	 31.7211
7.040000	 31.9009
7.124000	 31.7906
7.208000	 31.4369
7.292000	 31.7615
7.376000	 31.629
7.460000	 31.4325
7.544000	 31.5517
7.628000	 31.6906
7.712000	 31.2649
7.796000	 31.1791
7.880000	 31.7162
7.964000	 31.464
8.048000	 30.9566
8.132000	 31.2151
8.216000	 31.4267
8.300000	 31.1292
8.384000	 30.7999
8.468000	 30.89
8.552000	 31.2198
8.635999	 31.0364
8.719999	 30.6728
8.804000	 30.5259
8.888000	 30.8289
8.972000	 30.8463
9.056000	 30.601
9.140000	 30.457
9.224000	 30.2636
9.308000	 30.5735
9.391999	 30.599
9.475999	 30.5238
9.560000	 29.8885
9.644000	 30.0751
9.728000	 29.963
9.812000	 29.857
9.896000	 29.9508
9.980000	 30.0925
10.064	29.7077
10.148	29.6273
10.232	29.6002
10.316	29.7121
10.4	29.8168
10.484	29.6419
10.568	29.3795
10.652	29.196
10.736	28.9528
10.82	29.0708
10.904	29.1184
10.988	29.343
11.072	29.3647
11.156	29.0821
11.24	28.69
11.324	28.4159
11.408	28.343
11.492	28.5352
11.576	28.8367
11.66	28.7001
11.744	28.4636
11.828	28.2727
11.912	28.0227
11.996	27.8877
12.08	27.6858
12.164	27.6911
12.248	27.9419
12.332	28.0898
12.416	28.2358
12.5	28.2269
12.584	27.9249
12.668	27.419
12.752	27.1198
12.836	27.0548
12.92	27.1518
13.004	27.1869
13.088	27.2301
13.172	27.3394
13.256	27.1778
13.34	26.7943
13.424	26.516
13.508	26.5427
13.592	26.561
13.676	26.3115
13.76	26.0186
13.844	26.0195
13.928	26.1622
14.012	26.2967
14.096	26.4345
14.18	26.5708
14.264	26.723
14.348	26.7172
14.432	26.4975
14.516	26.1408
14.6	25.8276
14.684	25.6194
14.768	25.4274
14.852	25.331
14.936	25.2903
15.02	25.2589
15.104	25.3442
15.188	25.461
15.272	25.5243
15.356	25.5588
15.44	25.4844
15.524	25.2909
15.608	25.087
15.692	24.9137
15.776	24.7212
15.86	24.4453
15.944	24.136
16.028	23.9333
16.112	23.868
16.196	23.8898
16.28	24.0083
16.364	24.2154
16.448	24.3998
16.532	24.4434
16.616	24.3204
16.7	24.0921
16.784	23.8681
16.868	23.7556
16.952	23.772
17.036	23.7807
17.12	23.6179
17.204	23.3133
17.288	23.0553
17.372	22.9377
17.456	22.8999
17.54	22.8919
17.624	22.9105
17.708	22.9239
17.792	22.9003
17.876	22.857
17.96	22.8127
18.044	22.7349
18.128	22.5834
18.212	22.392
18.296	22.2575
18.38	22.2375
18.464	22.2913
18.548	22.325
18.632	22.274
18.716	22.1585
18.8	22.0567
18.884	22.0322
18.968	22.0845
19.052	22.1611
19.136	22.198
19.22	22.1543
19.304	22.0381
19.388	21.9278
19.472	21.9255
19.556	22.0504
19.64	22.1769
19.724	22.137
19.808	21.8861
19.892	21.5502
19.976	21.2981
20.06	21.1946
20.144	21.2056
20.228	21.3047
20.312	21.5082
20.396	21.7901
20.48	22.0196
20.564	22.023
20.648	21.7234
20.732	21.2175
20.816	20.707
20.9	20.3606
20.984	20.2319
21.068	20.2677
21.152	20.3674
21.236	20.4449
21.32	20.4621
21.404	20.414
21.488	20.2993
21.572	20.1066
21.656	19.8442
21.74	19.5714
21.824	19.3853
21.908	19.3573
21.992	19.4703
22.076	19.6235
22.16	19.7028
22.244	19.6756
22.328	19.6072
22.412	19.5817
22.496	19.6039
22.58	19.5769
22.664	19.371
22.748	18.9251
22.832	18.3113
22.916	17.7117
23	17.3165
23.084	17.2406
23.168	17.4677
23.252	17.8757
23.336	18.3165
23.42	18.6741
23.504	18.8892
23.588	18.974
23.672	18.9645
23.756	18.8636
23.84	18.6759
23.924	18.3847
24.008	17.9873
24.092	17.5427
24.176	17.1739
24.26	17.0034
24.344	17.1394
24.428	17.6576
24.512	18.6116
24.596	19.9978
24.68	21.7811
24.764	23.8952
24.848	26.1579
24.932	28.271
25.016	29.8612
25.1	30.515
25.184	29.8373
25.268	27.6063
25.352	23.8414
25.436	18.8413
25.52	13.2185
25.604	7.794660
25.688	3.490977
25.772	1.098452
25.856	1.059151
25.94	3.394236
26.024	7.588229
26.108	12.6104
26.192	17.2041
26.276	20.1166
26.36	20.2994
26.444	17.2628
26.528	11.1728
26.612	2.747617
26.696	-6.975746
26.78	-16.8663
26.864	-26.068
26.948	-34.017
27.028	-39.9492

File: LPE453_t54_cm-1.asc
PE IR       SPECTRUM    SPECTRUM    ASCII       PEDS        1.60
  -1
LPE95B~1.ASC
17/05/16
18:47:47.00
17/05/16
18:47:47.00
tln
$LPE453_t0054$<tbV0>[-10.4,-2.6,8.0,0.0,27,1,0]
370
64

2002,4.07
MIRTGS : RIGHTBACK : INTERNAL 2
MIR : ON : INTERNAL 2
OPTKBR

0.200000
8
8.000000
FILLER
RATIO
SPECTRUM
UNLOCKED 256

DOUBLE
64
COMBINED
1
0
0

1.000000
RATIO

1
0
TRUE
51149
0
LEFT NOT FITTED RIGHT NOT FITTED 0
NONE
NONE
15600
12
4.427000
51148
TRUE
1 0 8 72 0 0 0 0

15798

#HDR
-1
-1
#GR
CM-1
%T
2.38419e-05
0.0
5000
-1.000000
4631
8
32.3924
-39.9492
#DATA
5000	0.153374
4984	0.129485
4968	-0.136947
4952	0.239157
4936	0.066947
4920	0.183486
4904	0.049233
4888	0.063681
4872	0.478601
4856	-0.075912
4840	-0.094532
4824	-0.450372
4808	-0.143694
4792	-0.082159
4776	-0.361990
4760	0.225472
4744	0.340676
4728	0.078964
4712	-0.033903
4696	0.510787
4680	-0.598597
4664	0.378489
4648	1.161384
4632	0.988030
4616	1.057147
4600	1.539516
4584	0.306153
4568	-0.732421
4552	-0.616979
4536	-0.654101
4520	-2.727794
4504	7.457733
4488	20.3019
4472	-0.774788
4456	-0.439739
4440	-0.435757
4424	-0.628352
4408	-0.106549
4392	0.228333
4376	0.719594
4360	-0.163674
4344	0.733447
4328	0.169157
4312	0.149345
4296	0.089669
4280	0.303649
4264	0.291609
4248	0.062799
4232	0.242519
4216	0.140094
4200	0.016117
4184	0.354003
4168	0.472521
4152	0.113677
4136	0.240254
4120	-0.062465
4104	-0.062775
4088	-0.090050
4072	0.114393
4056	-0.039649
4040	0.151610
4024	-0.082445
4008	0.272655
3992	0.058722
3976	0.037860
3960	0.023221
3944	0.204324
3928	0.115680
3912	-0.074887
3896	0.124716
3880	0.009107
3864	0.090265
3848	0.192022
3832	0.097227
3816	-0.037813
3800	0.107336
3784	0.029206
3768	0.050759
3752	-0.118279
3736	-0.067734
3720	-0.025939
3704	-0.129866
3688	0.063204
3672	0.030660
3656	0.140881
3640	0.033783
3624	0.217247
3608	0.084757
3592	-0.122928
3576	-0.053024
3560	0.007987
3544	0.000071
3528	-0.056910
3512	0.115656
3496	0.270509
3480	-0.116968
3464	0.044894
3448	-0.076794
3432	0.102376
3416	0.118708
3400	0.191569
3384	-0.001502
3368	0.143718
3352	-0.022053
3336	0.051236
3320	0.171041
3304	0.125288
3288	0.031471
3272	-0.036454
3256	-0.004673
3240	0.014734
3224	0.098872
3208	0.182461
3192	0.015187
3176	-0.037670
3160	0.071430
3144	0.108432
3128	0.021481
3112	0.148344
3096	0.039672
3080	-0.038743
3064	-0.012087
3048	-0.057053
3032	0.012493
3016	0.124812
3000	-0.068855
2984	-0.022411
2968	-0.068473
2952	0.054907
2936	0.201082
2920	0.083613
2904	0.150823
2888	-0.034785
2872	0.076341
2856	0.022387
2840	0.044083
2824	0.064349
2808	-0.008440
2792	0.007390
2776	-0.058507
2760	0.058412
2744	0.006818
2728	0.022983
2712	0.092625
2696	0.041580
2680	0.042247
2664	-0.033259
2648	0.005650
2632	0.082039
2616	-0.081777
2600	0.037813
2584	0.029063
2568	0.023007
2552	0.096797
2536	0.083994
2520	0.109863
2504	0.148391
2488	0.163865
2472	0.101566
2456	-0.037884
2440	-0.014805
2424	0.129818
2408	-0.148510
2392	-0.030541
2376	0.029706
2360	0.055456
2344	0.088572
2328	0.142240
2312	0.192451
2296	0.409746
2280	0.491738
2264	0.536727
2248	0.981903
2232	1.468658
2216	2.217817
2200	2.908778
2184	3.930330
2168	5.275034
2152	6.553983
2136	8.246922
2120	9.966874
2104	11.8946
2088	13.6804
2072	15.5251
2056	17.2512
2040	19.3118
2024	20.8029
2008	22.5507
1992	23.6655
1976	24.8494
1960	26.1314
1944	26.9175
1928	27.7408
1912	28.6159
1896	29.046
1880	29.6092
1864	30.2358
1848	30.3583
1832	30.7382
1816	31.2584
1800	31.1861
1784	31.4779
1768	31.7773
1752	31.6962
1736	31.8171
1720	32.187
1704	32.0864
1688	32.0566
1672	32.3124
1656	32.0732
1640	32.0109
1624	32.3159
1608	32.1771
1592	32.0288
1576	32.3699
1560	32.1487
1544	31.9751
1528	32.1881
1512	32.2056
1496	31.8684
1480	31.9468
1464	32.1798
1448	31.6776
1432	31.8038
1416	31.9368
1400	31.6762
1384	31.5011
1368	31.766
1352	31.5125
1336	31.4436
1320	31.7298
1304	31.4499
1288	31.0079
1272	31.6962
1256	31.4762
1240	30.9349
1224	31.3221
1208	31.2366
1192	30.7882
1176	30.9715
1160	31.1161
1144	30.5429
1128	30.786
1112	30.8392
1096	30.4922
1080	30.4171
1064	30.602
1048	30.0089
1032	30.0214
1016	29.7822
1000	30.008
984	 29.6305
968	 29.7412
952	 29.5635
936	 29.0775
920	 29.0742
904	 29.38
888	 28.5887
872	 28.441
856	 28.6241
840	 28.039
824	 27.6387
808	 28.174
792	 27.6677
776	 27.1067
760	 27.3322
744	 26.4997
728	 26.0797
712	 26.3535
696	 26.6829
680	 25.567
664	 25.2847
648	 25.4978
632	 24.5785
616	 23.9293
600	 24.1888
584	 23.6078
568	 22.9051
552	 22.6094
536	 22.2437
520	 22.1426
504	 21.7524
488	 22.037
472	 20.4053
456	 19.3759
440	 19.056
424	 18.9726
408	 18.5811
392	 13.876
376	 4.505181
370	 -39.9492

File: LPE453_t55.asc
PE IR       SPECTRUM    SPECTRUM    ASCII       PEDS        1.60
  -1
LPD7AD~1.ASC
17/05/16
18:52:24.00
17/05/16
18:52:50.00
tln
$LPE453_t0055$<tbV0>[-13.0,-2.6,8.0,0.0,27,1,0]
27.028
64

2002,4.07
MIRTGS : RIGHTBACK : INTERNAL 2
MIR : ON : INTERNAL 2
OPTKBR

0.200000
8
8.000000
FILLER
RATIO
SPECTRUM
UNLOCKED 256

DOUBLE
64
COMBINED
1
0
0

0.002000
RATIO

1
0
TRUE
51149
0
LEFT NOT FITTED RIGHT NOT FITTED 0
NONE
NONE
15600
12
4.427000
51148
TRUE
1 0 8 72 0 0 0 0

15798

#HDR
-1
-1
#GR
µM
%T
2.38419e-05
0.0
2.000000
0.002000
12515
8
30.6833
-1.940066
#DATA
2.000000	 -0.160932
2.084000	 0.277654
2.168000	 0.478117
2.252000	 -0.550139
2.336000	 0.146522
2.420000	 -0.024190
2.504000	 0.187246
2.588000	 0.067108
2.672000	 0.132010
2.756000	 0.026113
2.840000	 0.059547
2.924000	 -0.138649
3.008000	 -0.001573
3.092000	 0.019303
3.176000	 0.059805
3.260000	 0.009372
3.344000	 -0.040617
3.428000	 0.210630
3.512000	 0.108332
3.596000	 0.015614
3.680000	 0.042086
3.764000	 0.053838
3.848000	 -0.059233
3.932000	 0.129672
4.016000	 0.026470
4.100000	 0.073847
4.184000	 0.086394
4.268000	 -0.138798
4.352000	 0.182594
4.436000	 0.523614
4.520000	 1.676129
4.604000	 3.660600
4.688000	 6.679105
4.772000	 10.3214
4.856000	 13.9309
4.940000	 17.3775
5.024000	 20.0733
5.108000	 22.3548
5.192000	 24.1656
5.276000	 25.4597
5.359999	 26.5255
5.444000	 27.3356
5.528000	 28.0455
5.612000	 28.4563
5.696000	 28.8356
5.780000	 29.2726
5.864000	 29.4839
5.948000	 29.7197
6.032000	 29.8228
6.116000	 29.9483
6.200000	 30.1495
6.284000	 30.2786
6.368000	 30.4311
6.452000	 30.4253
6.536000	 30.5434
6.620000	 30.4508
6.704000	 30.6821
6.788000	 30.4674
6.872000	 30.4591
6.956000	 30.5658
7.040000	 30.4986
7.124000	 30.4833
7.208000	 30.2633
7.292000	 30.2618
7.376000	 30.2058
7.460000	 30.2841
7.544000	 30.1835
7.628000	 30.151
7.712000	 30.1786
7.796000	 30.0665
7.880000	 30.0482
7.964000	 29.9965
8.048000	 29.8225
8.132000	 29.7249
8.216000	 29.7012
8.300000	 29.7324
8.384000	 29.7112
8.468000	 29.4364
8.552000	 29.4377
8.635999	 29.4098
8.719999	 29.2268
8.804000	 29.066
8.888000	 29.1072
8.972000	 29.022
9.056000	 28.909
9.140000	 28.7931
9.224000	 28.658
9.308000	 28.6367
9.391999	 28.4817
9.475999	 28.5469
9.560000	 28.0729
9.644000	 27.998
9.728000	 28.0595
9.812000	 27.9196
9.896000	 27.9006
9.980000	 27.7898
10.064	27.6402
10.148	27.4691
10.232	27.5542
10.316	27.4024
10.4	27.1831
10.484	26.9875
10.568	26.9656
10.652	26.8466
10.736	26.7393
10.82	26.8148
10.904	26.7084
10.988	26.3909
11.072	26.2297
11.156	26.2073
11.24	26.2535
11.324	26.1297
11.408	25.9084
11.492	25.8387
11.576	25.7291
11.66	25.727
11.744	25.5168
11.828	25.2973
11.912	25.2722
11.996	25.3606
12.08	25.2573
12.164	25.0525
12.248	25.022
12.332	24.9055
12.416	24.8294
12.5	24.7957
12.584	24.622
12.668	24.3939
12.752	24.3044
12.836	24.3535
12.92	24.3004
13.004	24.1142
13.088	24.0366
13.172	24.1219
13.256	24.1305
13.34	23.9424
13.424	23.76
13.508	23.4813
13.592	23.3853
13.676	23.5218
13.76	23.5439
13.844	23.4914
13.928	23.4344
14.012	23.2939
14.096	23.1907
14.18	22.9703
14.264	22.7637
14.348	22.604
14.432	22.3306
14.516	22.385
14.6	22.6965
14.684	22.7778
14.768	22.6773
14.852	22.5413
14.936	22.4307
15.02	22.3628
15.104	22.3185
15.188	22.2435
15.272	22.112
15.356	21.996
15.44	21.9345
15.524	21.863
15.608	21.7402
15.692	21.6086
15.776	21.4267
15.86	21.1843
15.944	21.0939
16.028	21.2721
16.112	21.4838
16.196	21.4979
16.28	21.4245
16.364	21.4342
16.448	21.3794
16.532	21.0807
16.616	20.7207
16.7	20.5951
16.784	20.7307
16.868	20.9641
16.952	21.149
17.036	21.1984
17.12	21.0994
17.204	20.9122
17.288	20.6892
17.372	20.4285
17.456	20.156
17.54	19.9795
17.624	19.9561
17.708	19.9935
17.792	19.9612
17.876	19.8397
17.96	19.7189
18.044	19.6896
18.128	19.7646
18.212	19.8615
18.296	19.88
18.38	19.8129
18.464	19.7306
18.548	19.6678
18.632	19.5964
18.716	19.5018
18.8	19.4162
18.884	19.3585
18.968	19.2975
19.052	19.207
19.136	19.1246
19.22	19.114
19.304	19.1882
19.388	19.279
19.472	19.2978
19.556	19.2118
19.64	19.067
19.724	18.9361
19.808	18.8648
19.892	18.8592
19.976	18.8951
20.06	18.9181
20.144	18.853
20.228	18.6421
20.312	18.3018
20.396	17.9381
20.48	17.6813
20.564	17.5996
20.648	17.6707
20.732	17.8136
20.816	17.9499
20.9	18.0421
20.984	18.092
21.068	18.1129
21.152	18.0919
21.236	17.9864
21.32	17.7576
21.404	17.4285
21.488	17.101
21.572	16.9054
21.656	16.9056
21.74	17.0437
21.824	17.1763
21.908	17.1835
21.992	17.0567
22.076	16.8882
22.16	16.7942
22.244	16.8239
22.328	16.9242
22.412	17.0036
22.496	17.0128
22.58	16.9817
22.664	16.9889
22.748	17.1045
22.832	17.3267
22.916	17.5657
23	17.6835
23.084	17.5869
23.168	17.2739
23.252	16.8449
23.336	16.4644
23.42	16.2252
23.504	16.0931
23.588	15.9114
23.672	15.5121
23.756	14.8454
23.84	14.0575
23.924	13.4614
24.008	13.3399
24.092	13.7494
24.176	14.4561
24.26	15.0424
24.344	15.107
24.428	14.5365
24.512	13.592
24.596	12.7924
24.68	12.7243
24.764	13.7743
24.848	15.9177
24.932	18.6965
25.016	21.3914
25.1	23.2964
25.184	23.9551
25.268	23.3796
25.352	21.9842
25.436	20.4223
25.52	19.3013
25.604	18.9672
25.688	19.4835
25.772	20.6233
25.856	22.0004
25.94	23.2523
26.024	24.1106
26.108	24.4446
26.192	24.2635
26.276	23.6645
26.36	22.8128
26.444	21.7934
26.528	20.5617
26.612	18.9327
26.696	16.7333
26.78	13.9597
26.864	10.826
26.948	7.730800
27.028	5.262541

File: LPE453_t55_cm-1.asc
PE IR       SPECTRUM    SPECTRUM    ASCII       PEDS        1.60
  -1
LPE9DB~1.ASC
17/05/16
18:52:24.00
17/05/16
18:52:24.00
tln
$LPE453_t0055$<tbV0>[-13.0,-2.6,8.0,0.0,27,1,0]
370
64

2002,4.07
MIRTGS : RIGHTBACK : INTERNAL 2
MIR : ON : INTERNAL 2
OPTKBR

0.200000
8
8.000000
FILLER
RATIO
SPECTRUM
UNLOCKED 256

DOUBLE
64
COMBINED
1
0
0

1.000000
RATIO

1
0
TRUE
51149
0
LEFT NOT FITTED RIGHT NOT FITTED 0
NONE
NONE
15600
12
4.427000
51148
TRUE
1 0 8 72 0 0 0 0

15798

#HDR
-1
-1
#GR
CM-1
%T
2.38419e-05
0.0
5000
-1.000000
4631
8
30.6828
-2.322936
#DATA
5000	-0.160932
4984	0.289201
4968	0.046706
4952	0.311064
4936	-0.331425
4920	0.123047
4904	0.340938
4888	0.145697
4872	-0.111603
4856	0.622820
4840	-0.063872
4824	-0.015449
4808	-0.187969
4792	0.173258
4776	0.301456
4760	0.231432
4744	-0.357079
4728	0.230193
4712	0.721049
4696	-0.806212
4680	0.054812
4664	0.362324
4648	0.089406
4632	0.376486
4616	0.437045
4600	0.853610
4584	-0.338149
4568	0.541234
4552	-0.184488
4536	-0.385332
4520	0.201702
4504	0.274705
4488	5.158591
4472	-0.376820
4456	-1.170992
4440	-0.540065
4424	0.142955
4408	-0.111532
4392	0.408935
4376	0.245738
4360	-0.141000
4344	-0.081110
4328	0.438475
4312	0.080728
4296	-0.261855
4280	0.168514
4264	-0.020790
4248	0.216627
4232	0.030231
4216	-0.022983
4200	0.165486
4184	-0.180149
4168	0.345754
4152	0.221204
4136	-0.259041
4120	0.174379
4104	0.216460
4088	0.142312
4072	0.177741
4056	-0.012445
4040	-0.089740
4024	0.038480
4008	0.026488
3992	0.168108
3976	0.129890
3960	0.076746
3944	0.142121
3928	0.088357
3912	0.098729
3896	0.159001
3880	-0.039577
3864	0.067377
3848	0.173950
3832	0.164508
3816	0.183606
3800	-0.078725
3784	0.089812
3768	-0.021696
3752	0.170302
3736	0.044679
3720	0.093293
3704	0.112605
3688	-0.085997
3672	0.095105
3656	-0.014042
3640	-0.057673
3624	-0.058317
3608	0.038099
3592	-0.098395
3576	0.117325
3560	0.112104
3544	0.023937
3528	0.009822
3512	0.031757
3496	0.048136
3480	0.188779
3464	0.008368
3448	0.183391
3432	-0.059437
3416	-0.061368
3400	-0.023937
3384	0.055766
3368	0.038671
3352	0.011610
3336	0.119972
3320	-0.058579
3304	-0.041842
3288	0.261712
3272	0.154542
3256	-0.032448
3240	0.100255
3224	0.038385
3208	0.088429
3192	-0.030612
3176	0.110316
3160	-0.037121
3144	0.060606
3128	0.158596
3112	0.146365
3096	-0.144863
3080	0.027942
3064	-0.048351
3048	0.080132
3032	0.041627
3016	-0.014233
3000	0.034546
2984	0.027751
2968	0.005555
2952	-0.065684
2936	0.015282
2920	0.176239
2904	-0.028133
2888	-0.062847
2872	0.003433
2856	-0.022816
2840	0.131440
2824	-0.106024
2808	0.130581
2792	-0.028324
2776	-0.004458
2760	0.055980
2744	0.012373
2728	-0.035619
2712	0.056862
2696	-0.021767
2680	0.055336
2664	0.015282
2648	0.013780
2632	-0.003719
2616	0.062036
2600	-0.051593
2584	-0.020313
2568	0.133824
2552	0.115299
2536	0.103521
2520	0.081276
2504	-0.142693
2488	0.064039
2472	0.067067
2456	-0.061702
2440	0.059461
2424	0.041985
2408	-0.006532
2392	0.087499
2376	0.049734
2360	0.106406
2344	-0.129556
2328	0.000572
2312	0.131011
2296	0.184488
2280	0.357055
2264	0.393390
2248	0.598502
2232	1.139163
2216	1.551556
2200	2.101850
2184	2.804207
2168	3.901958
2152	4.990696
2136	6.435370
2120	7.897400
2104	9.419155
2088	10.9896
2072	12.672
2056	14.3768
2040	15.8183
2024	17.411
2008	18.7397
1992	19.9384
1976	21.1558
1960	22.2145
1944	23.1462
1928	24.0736
1912	24.723
1896	25.4217
1880	25.9943
1864	26.5662
1848	27.0897
1832	27.4526
1816	27.8797
1800	28.1764
1784	28.4195
1768	28.7801
1752	28.8928
1736	29.2139
1720	29.1992
1704	29.4875
1688	29.6674
1672	29.8597
1656	29.8711
1640	29.928
1624	30.0629
1608	30.2077
1592	30.2675
1576	30.3012
1560	30.3059
1544	30.4811
1528	30.5287
1512	30.4542
1496	30.591
1480	30.3155
1464	30.3792
1448	30.3357
1432	30.4445
1416	30.4519
1400	30.516
1384	30.3184
1368	30.3039
1352	30.1996
1336	30.2589
1320	30.1739
1304	30.155
1288	30.0757
1272	30.0609
1256	29.9975
1240	29.778
1224	29.6705
1208	29.7544
1192	29.6994
1176	29.4442
1160	29.4117
1144	29.1631
1128	29.1492
1112	29.0044
1096	28.8343
1080	28.5738
1064	28.4817
1048	28.1923
1032	28.0289
1016	27.8702
1000	27.7607
984	 27.4833
968	 27.3596
952	 26.9797
936	 26.7841
920	 26.8042
904	 26.2447
888	 26.2525
872	 25.8719
856	 25.6966
840	 25.2635
824	 25.1069
808	 24.8523
792	 24.4957
776	 24.3502
760	 24.1009
744	 23.7094
728	 23.5564
712	 23.2528
696	 22.5407
680	 22.7608
664	 22.3409
648	 21.9392
632	 21.2891
616	 21.4603
600	 20.6081
584	 21.0932
568	 19.9508
552	 19.7499
536	 19.5702
520	 19.1195
504	 18.8554
488	 17.6588
472	 18.0619
456	 17.1613
440	 17.0642
424	 15.9214
408	 13.6163
392	 19.3938
376	 19.2912
370	 5.262541

File: LPE453_t56.asc
PE IR       SPECTRUM    SPECTRUM    ASCII       PEDS        1.60
  -1
LPD7A1~1.ASC
17/05/16
18:57:37.00
17/05/16
18:58:03.00
tln
$LPE453_t0056$<tbV0>[13.0,0.0,8.0,0.0,27,1,0]
27.028
64

2002,4.07
MIRTGS : RIGHTBACK : INTERNAL 2
MIR : ON : INTERNAL 2
OPTKBR

0.200000
8
8.000000
FILLER
RATIO
SPECTRUM
UNLOCKED 256

DOUBLE
64
COMBINED
1
0
0

0.002000
RATIO

1
0
TRUE
51149
0
LEFT NOT FITTED RIGHT NOT FITTED 0
NONE
NONE
15600
12
4.427000
51148
TRUE
1 0 8 72 0 0 0 0

15798

#HDR
-1
-1
#GR
µM
%T
2.38419e-05
0.0
2.000000
0.002000
12515
8
25.044
-12.0075
#DATA
2.000000	 0.447511
2.084000	 0.438187
2.168000	 -0.056931
2.252000	 -1.009287
2.336000	 0.389821
2.420000	 0.281247
2.504000	 -0.042813
2.588000	 0.204994
2.672000	 0.204130
2.756000	 0.014500
2.840000	 0.034955
2.924000	 -0.015033
3.008000	 0.070161
3.092000	 -0.025364
3.176000	 0.133185
3.260000	 -0.058691
3.344000	 0.041860
3.428000	 0.010905
3.512000	 -0.079767
3.596000	 0.115740
3.680000	 0.072619
3.764000	 0.013682
3.848000	 0.072676
3.932000	 0.109285
4.016000	 0.123285
4.100000	 -0.009691
4.184000	 0.141306
4.268000	 -0.011805
4.352000	 0.065893
4.436000	 0.196243
4.520000	 0.701995
4.604000	 1.875583
4.688000	 3.883903
4.772000	 6.677145
4.856000	 9.588951
4.940000	 12.4935
5.024000	 15.0538
5.108000	 17.0982
5.192000	 18.7146
5.276000	 19.9343
5.359999	 20.8582
5.444000	 21.5917
5.528000	 22.2447
5.612000	 22.6761
5.696000	 23.0345
5.780000	 23.3496
5.864000	 23.5156
5.948000	 23.6795
6.032000	 23.6961
6.116000	 23.8568
6.200000	 23.9129
6.284000	 24.0462
6.368000	 24.126
6.452000	 23.9485
6.536000	 24.092
6.620000	 24.048
6.704000	 24.123
6.788000	 23.9968
6.872000	 23.9581
6.956000	 24.1713
7.040000	 24.0009
7.124000	 24.072
7.208000	 23.8398
7.292000	 23.9407
7.376000	 23.8408
7.460000	 23.6719
7.544000	 23.7674
7.628000	 23.6714
7.712000	 23.5481
7.796000	 23.6808
7.880000	 23.4355
7.964000	 23.4478
8.048000	 23.6559
8.132000	 23.3378
8.216000	 23.2666
8.300000	 23.4225
8.384000	 23.2495
8.468000	 23.1088
8.552000	 23.1954
8.635999	 23.3006
8.719999	 22.9683
8.804000	 22.8843
8.888000	 22.9875
8.972000	 22.9422
9.056000	 22.5812
9.140000	 22.4057
9.224000	 22.5394
9.308000	 22.5878
9.391999	 22.5427
9.475999	 22.3909
9.560000	 22.3245
9.644000	 22.2041
9.728000	 22.1947
9.812000	 21.9443
9.896000	 21.9344
9.980000	 21.9267
10.064	22.0253
10.148	21.9178
10.232	21.562
10.316	21.3532
10.4	21.3344
10.484	21.5775
10.568	21.6097
10.652	21.1605
10.736	21.0029
10.82	20.6455
10.904	20.7437
10.988	20.845
11.072	20.7547
11.156	20.6914
11.24	20.2463
11.324	20.0077
11.408	20.1573
11.492	20.4083
11.576	20.3227
11.66	19.9646
11.744	19.7883
11.828	19.679
11.912	19.5978
11.996	19.5267
12.08	19.5871
12.164	19.6647
12.248	19.6135
12.332	19.356
12.416	19.0755
12.5	19.0567
12.584	19.0923
12.668	18.9354
12.752	18.8061
12.836	18.8518
12.92	18.7871
13.004	18.519
13.088	18.2395
13.172	18.1947
13.256	18.2797
13.34	18.2656
13.424	18.3154
13.508	18.1425
13.592	18.1737
13.676	18.2088
13.76	17.813
13.844	17.5358
13.928	17.5051
14.012	17.4576
14.096	17.4671
14.18	17.5436
14.264	17.5543
14.348	17.4194
14.432	17.0779
14.516	16.738
14.6	16.6306
14.684	16.6872
14.768	16.6871
14.852	16.5552
14.936	16.4152
15.02	16.3778
15.104	16.4152
15.188	16.4097
15.272	16.4233
15.356	16.5563
15.44	16.6724
15.524	16.6627
15.608	16.5143
15.692	16.1893
15.776	15.7677
15.86	15.4706
15.944	15.4014
16.028	15.4521
16.112	15.4866
16.196	15.524
16.28	15.6231
16.364	15.6647
16.448	15.5179
16.532	15.2949
16.616	15.1451
16.7	15.046
16.784	14.9682
16.868	14.9368
16.952	14.9334
17.036	14.9203
17.12	14.9071
17.204	14.9058
17.288	14.8827
17.372	14.8031
17.456	14.6854
17.54	14.5733
17.624	14.4515
17.708	14.258
17.792	13.9845
17.876	13.7033
17.96	13.5242
18.044	13.537
18.128	13.7446
18.212	14.0261
18.296	14.2078
18.38	14.2075
18.464	14.0836
18.548	13.9524
18.632	13.8678
18.716	13.7853
18.8	13.6347
18.884	13.4311
18.968	13.2827
19.052	13.271
19.136	13.3562
19.22	13.422
19.304	13.4076
19.388	13.3577
19.472	13.3436
19.556	13.3634
19.64	13.348
19.724	13.2492
19.808	13.103
19.892	12.9947
19.976	12.9676
20.06	12.9807
20.144	12.9625
20.228	12.8898
20.312	12.7908
20.396	12.6876
20.48	12.5678
20.564	12.4163
20.648	12.2575
20.732	12.1455
20.816	12.1081
20.9	12.106
20.984	12.0695
21.068	11.9633
21.152	11.8243
21.236	11.7346
21.32	11.7603
21.404	11.903
21.488	12.0945
21.572	12.2458
21.656	12.3104
21.74	12.3061
21.824	12.2779
21.908	12.2402
21.992	12.1529
22.076	11.9524
22.16	11.6112
22.244	11.18
22.328	10.7644
22.412	10.4643
22.496	10.3247
22.58	10.3334
22.664	10.4441
22.748	10.5916
22.832	10.7081
22.916	10.722
23	10.6051
23.084	10.3903
23.168	10.1673
23.252	10.0281
23.336	10.0217
23.42	10.1097
23.504	10.2193
23.588	10.2877
23.672	10.3022
23.756	10.3169
23.84	10.4001
23.924	10.5623
24.008	10.7189
24.092	10.7118
24.176	10.3907
24.26	9.694690
24.344	8.689649
24.428	7.545132
24.512	6.498882
24.596	5.699136
24.68	5.221122
24.764	5.118115
24.848	5.434009
24.932	6.224512
25.016	7.518384
25.1	9.279520
25.184	11.3482
25.268	13.419
25.352	15.0888
25.436	15.9445
25.52	15.7587
25.604	14.5958
25.688	12.847
25.772	11.13
25.856	10.0208
25.94	9.906597
26.024	10.7161
26.108	11.8261
26.192	12.2938
26.276	11.2382
26.36	8.178424
26.444	3.339614
26.528	-2.363237
26.612	-7.607721
26.696	-11.0822
26.78	-11.9592
26.864	-10.1938
26.948	-6.578335
27.028	-2.791261