Folder: Masteroppgave/Bakgrunnsmateriale/MATLAB/FTIR/ftir_data/LPE453/Mapping_121 (part 9)

File: LPE453_t14.asc
PE IR       SPECTRUM    SPECTRUM    ASCII       PEDS        1.60
  -1
LPD799~1.ASC
17/05/16
15:28:37.00
17/05/16
15:29:03.00
tln
$LPE453_t0014$<tbV0>[7.8,-10.4,8.0,0.0,27,1,0]
27.028
64

2002,4.07
MIRTGS : RIGHTBACK : INTERNAL 2
MIR : ON : INTERNAL 2
OPTKBR

0.200000
8
8.000000
FILLER
RATIO
SPECTRUM
UNLOCKED 256

DOUBLE
64
COMBINED
1
0
0

0.002000
RATIO

1
0
TRUE
51149
0
LEFT NOT FITTED RIGHT NOT FITTED 0
NONE
NONE
15600
12
4.427000
51148
TRUE
1 0 8 72 0 0 0 0

15798

#HDR
-1
-1
#GR
µM
%T
2.38419e-05
0.0
2.000000
0.002000
12515
8
32.4616
-6.658506
#DATA
2.000000	 -0.105190
2.084000	 0.174737
2.168000	 0.365871
2.252000	 0.435646
2.336000	 -0.045127
2.420000	 -0.157596
2.504000	 -0.125420
2.588000	 0.044879
2.672000	 -0.075873
2.756000	 0.015960
2.840000	 -0.078680
2.924000	 -0.060061
3.008000	 0.101740
3.092000	 0.116215
3.176000	 0.114443
3.260000	 0.018376
3.344000	 0.154144
3.428000	 0.024462
3.512000	 0.179955
3.596000	 -0.010718
3.680000	 0.071692
3.764000	 0.120673
3.848000	 0.147988
3.932000	 0.034144
4.016000	 0.084186
4.100000	 0.078569
4.184000	 0.019945
4.268000	 0.026414
4.352000	 0.127474
4.436000	 0.608298
4.520000	 1.820132
4.604000	 4.130872
4.688000	 7.547980
4.772000	 11.9024
4.856000	 16.083
4.940000	 20.017
5.024000	 23.0798
5.108000	 25.509
5.192000	 27.4337
5.276000	 28.8424
5.359999	 29.8573
5.444000	 30.5135
5.528000	 31.0859
5.612000	 31.3822
5.696000	 31.6629
5.780000	 31.9913
5.864000	 32.1238
5.948000	 32.2732
6.032000	 32.3348
6.116000	 32.3167
6.200000	 32.1744
6.284000	 32.1551
6.368000	 32.3836
6.452000	 32.1925
6.536000	 32.2331
6.620000	 32.1712
6.704000	 31.9694
6.788000	 32.0089
6.872000	 31.7496
6.956000	 32.0845
7.040000	 31.8282
7.124000	 31.6453
7.208000	 31.7004
7.292000	 31.6419
7.376000	 31.3426
7.460000	 31.585
7.544000	 31.4168
7.628000	 31.2363
7.712000	 31.1925
7.796000	 31.2209
7.880000	 31.0761
7.964000	 30.7655
8.048000	 31.0294
8.132000	 31.0652
8.216000	 30.8863
8.300000	 30.7796
8.384000	 30.8384
8.468000	 30.9038
8.552000	 30.7997
8.635999	 30.4892
8.719999	 30.4304
8.804000	 30.5852
8.888000	 30.6385
8.972000	 30.5489
9.056000	 30.129
9.140000	 30.1841
9.224000	 30.3148
9.308000	 30.2287
9.391999	 29.9009
9.475999	 29.9028
9.560000	 30.0953
9.644000	 30.0762
9.728000	 30.1203
9.812000	 29.8492
9.896000	 29.377
9.980000	 29.5369
10.064	29.7447
10.148	29.7238
10.232	29.5842
10.316	29.2466
10.4	28.9567
10.484	29.0733
10.568	29.1896
10.652	29.2117
10.736	29.1689
10.82	28.9901
10.904	28.7318
10.988	28.4237
11.072	28.3781
11.156	28.297
11.24	28.4164
11.324	28.4545
11.408	28.3862
11.492	28.1293
11.576	27.6572
11.66	27.5461
11.744	27.5967
11.828	27.6348
11.912	27.6815
11.996	27.7623
12.08	27.7497
12.164	27.4155
12.248	27.0999
12.332	26.9283
12.416	26.8724
12.5	26.914
12.584	27.0727
12.668	27.2562
12.752	27.2716
12.836	27.0412
12.92	26.7033
13.004	26.5421
13.088	26.3597
13.172	26.2204
13.256	26.2556
13.34	25.9255
13.424	25.7441
13.508	26.0623
13.592	26.3133
13.676	26.3817
13.76	26.4382
13.844	26.1117
13.928	25.6793
14.012	25.4353
14.096	25.2453
14.18	25.1332
14.264	24.9935
14.348	24.8476
14.432	24.743
14.516	24.7802
14.6	25.0381
14.684	25.2022
14.768	25.0476
14.852	24.8533
14.936	24.6918
15.02	24.4514
15.104	24.3237
15.188	24.3308
15.272	24.1625
15.356	23.8178
15.44	23.6545
15.524	23.6937
15.608	23.6714
15.692	23.7129
15.776	23.9498
15.86	24.0957
15.944	24.0361
16.028	23.9356
16.112	23.7749
16.196	23.5206
16.28	23.3439
16.364	23.2722
16.448	23.1025
16.532	22.8507
16.616	22.7508
16.7	22.8257
16.784	22.8813
16.868	22.8285
16.952	22.7693
17.036	22.8129
17.12	22.8955
17.204	22.838
17.288	22.6097
17.372	22.3617
17.456	22.2022
17.54	22.1248
17.624	22.1041
17.708	22.1124
17.792	22.0852
17.876	21.9792
17.96	21.8315
18.044	21.6993
18.128	21.5814
18.212	21.433
18.296	21.2366
18.38	21.0485
18.464	20.9732
18.548	21.0798
18.632	21.3248
18.716	21.5717
18.8	21.6912
18.884	21.6451
18.968	21.4634
19.052	21.1893
19.136	20.8662
19.22	20.5623
19.304	20.3636
19.388	20.3186
19.472	20.3974
19.556	20.5142
19.64	20.5776
19.724	20.5086
19.808	20.2603
19.892	19.8562
19.976	19.3925
20.06	18.9874
20.144	18.7183
20.228	18.6139
20.312	18.6827
20.396	18.9152
20.48	19.2572
20.564	19.6109
20.648	19.8844
20.732	20.0439
20.816	20.0972
20.9	20.0447
20.984	19.8732
21.068	19.6047
21.152	19.3413
21.236	19.2215
21.32	19.3064
21.404	19.5138
21.488	19.6755
21.572	19.6772
21.656	19.5527
21.74	19.4459
21.824	19.4897
21.908	19.6941
21.992	19.9446
22.076	20.0913
22.16	20.0317
22.244	19.7504
22.328	19.3015
22.412	18.7851
22.496	18.3312
22.58	18.0419
22.664	17.9611
22.748	18.0448
22.832	18.1718
22.916	18.2063
23	18.0605
23.084	17.7307
23.168	17.3064
23.252	16.9133
23.336	16.6534
23.42	16.562
23.504	16.599
23.588	16.6779
23.672	16.722
23.756	16.7033
23.84	16.6677
23.924	16.7424
24.008	17.0691
24.092	17.7397
24.176	18.7727
24.26	20.0864
24.344	21.4944
24.428	22.7607
24.512	23.6401
24.596	23.9349
24.68	23.5489
24.764	22.5421
24.848	21.0875
24.932	19.4422
25.016	17.8591
25.1	16.4915
25.184	15.4189
25.268	14.678
25.352	14.3095
25.436	14.4114
25.52	15.1153
25.604	16.5174
25.688	18.6462
25.772	21.3542
25.856	24.2725
25.94	26.8545
26.024	28.4447
26.108	28.4762
26.192	26.7379
26.276	23.4114
26.36	19.0586
26.444	14.3668
26.528	9.909462
26.612	5.973354
26.696	2.587567
26.78	-0.392572
26.864	-3.012178
26.948	-5.164753
27.028	-6.658506

File: LPE453_t14_cm-1.asc
PE IR       SPECTRUM    SPECTRUM    ASCII       PEDS        1.60
  -1
LPE75B~1.ASC
17/05/16
15:28:37.00
17/05/16
15:28:37.00
tln
$LPE453_t0014$<tbV0>[7.8,-10.4,8.0,0.0,27,1,0]
370
64

2002,4.07
MIRTGS : RIGHTBACK : INTERNAL 2
MIR : ON : INTERNAL 2
OPTKBR

0.200000
8
8.000000
FILLER
RATIO
SPECTRUM
UNLOCKED 256

DOUBLE
64
COMBINED
1
0
0

1.000000
RATIO

1
0
TRUE
51149
0
LEFT NOT FITTED RIGHT NOT FITTED 0
NONE
NONE
15600
12
4.427000
51148
TRUE
1 0 8 72 0 0 0 0

15798

#HDR
-1
-1
#GR
CM-1
%T
2.38419e-05
0.0
5000
-1.000000
4631
8
32.4607
-6.658506
#DATA
5000	-0.105190
4984	-0.170469
4968	0.402450
4952	0.147509
4936	0.630116
4920	0.087308
4904	0.477027
4888	0.273036
4872	0.263905
4856	0.202131
4840	0.053119
4824	0.360083
4808	0.322031
4792	0.020313
4776	-0.090956
4760	0.588917
4744	0.212240
4728	-0.046730
4712	0.607514
4696	0.084352
4680	-0.112724
4664	0.341844
4648	0.499439
4632	0.211048
4616	0.246119
4600	0.322961
4584	0.296330
4568	0.469803
4552	1.249504
4536	-0.093126
4520	1.478147
4504	0.394988
4488	-0.604534
4472	0.112104
4456	-0.414490
4440	0.470995
4424	-0.160479
4408	0.477027
4392	0.336837
4376	0.350284
4360	-0.323367
4344	0.095748
4328	-0.005340
4312	0.136399
4296	0.053143
4280	-0.056266
4264	-0.141596
4248	0.204038
4232	0.001978
4216	-0.022268
4200	-0.128483
4184	0.794291
4168	-0.243258
4152	0.023388
4136	-0.212907
4120	-0.011038
4104	0.207924
4088	0.248622
4072	0.033068
4056	-0.185489
4040	0.210428
4024	0.060606
4008	0.182104
3992	-0.094914
3976	0.101113
3960	0.034379
3944	0.127077
3928	0.042843
3912	0.233197
3896	-0.053262
3880	0.177264
3864	0.044775
3848	0.083184
3832	-0.138783
3816	0.151705
3800	0.010728
3784	-0.007104
3768	0.053453
3752	-0.015020
3736	-0.134515
3720	0.073313
3704	0.064992
3688	-0.038099
3672	0.150537
3656	0.158238
3640	0.178337
3624	0.046706
3608	0.208997
3592	-0.019788
3576	-0.108218
3560	0.120496
3544	0.088143
3528	-0.069808
3512	0.076675
3496	0.019383
3480	-0.073766
3464	0.108623
3448	-0.032472
3432	0.019025
3416	0.053977
3400	0.190472
3384	0.087118
3368	-0.173902
3352	0.048279
3336	0.196385
3320	0.001335
3304	0.072789
3288	0.075078
3272	0.135970
3256	-0.010657
3240	0.153326
3224	-0.016880
3208	-0.093030
3192	0.178408
3176	0.107669
3160	0.065732
3144	0.144314
3128	0.190162
3112	0.038790
3096	-0.037813
3080	-0.040578
3064	-0.006008
3048	0.021624
3032	0.032067
3016	-0.010800
3000	0.085973
2984	0.104808
2968	0.115394
2952	-0.088930
2936	0.015664
2920	-0.032782
2904	0.108194
2888	0.013589
2872	0.116753
2856	0.182986
2840	0.178551
2824	0.063848
2808	0.023436
2792	0.105357
2776	-0.070881
2760	-0.021743
2744	-0.050354
2728	0.070977
2712	0.119590
2696	0.020194
2680	0.014567
2664	0.070953
2648	0.003170
2632	0.087952
2616	0.050616
2600	0.170159
2584	0.072574
2568	0.074124
2552	0.093817
2536	-0.048279
2520	-0.092935
2504	0.173163
2488	0.076699
2472	0.028347
2456	0.006651
2440	0.084137
2424	0.331377
2408	0.197505
2392	0.056242
2376	0.033140
2360	0.035977
2344	0.033903
2328	0.113797
2312	0.021195
2296	0.167441
2280	0.420999
2264	0.478887
2248	0.669026
2232	1.179838
2216	1.712942
2200	2.476191
2184	3.214859
2168	4.430007
2152	5.663275
2136	7.220339
2120	9.060740
2104	10.8527
2088	12.7508
2072	14.3505
2056	16.507
2040	18.3837
2024	20.0497
2008	21.568
1992	22.9526
1976	24.2097
1960	25.3574
1944	26.395
1928	27.3212
1912	28.1168
1896	28.8224
1880	29.4182
1864	29.9077
1848	30.2037
1832	30.6449
1816	30.9176
1800	31.1857
1784	31.3468
1768	31.6571
1752	31.6573
1736	31.9748
1720	31.9144
1704	32.174
1688	32.1882
1672	32.2502
1656	32.4131
1640	32.3087
1624	32.2025
1608	32.1607
1592	32.153
1576	32.3744
1560	32.4262
1544	32.273
1528	32.2155
1512	32.1655
1496	31.8852
1480	32.0112
1464	31.8979
1448	31.7101
1432	31.9695
1416	31.7312
1400	31.6222
1384	31.6207
1368	31.7184
1352	31.2427
1336	31.6009
1320	31.2996
1304	31.2077
1288	31.2682
1272	31.1975
1256	30.7688
1240	31.0776
1224	31.0416
1208	30.8318
1192	30.8632
1176	30.8603
1160	30.5558
1144	30.4245
1128	30.6629
1112	30.4912
1096	30.1532
1080	30.3569
1064	29.8851
1048	30.087
1032	30.1418
1016	29.6855
1000	29.6117
984	 29.6744
968	 29.1431
952	 29.1143
936	 29.2069
920	 28.8366
904	 28.3908
888	 28.4454
872	 28.2617
856	 27.5434
840	 27.675
824	 27.5476
808	 26.8822
792	 27.1834
776	 26.8219
760	 26.2216
744	 25.7813
728	 26.4454
712	 25.3528
696	 24.8179
680	 25.1867
664	 24.3626
648	 23.6571
632	 24.0613
616	 23.4217
600	 22.7867
584	 22.8968
568	 22.1046
552	 21.5991
536	 21.4044
520	 20.5293
504	 20.1147
488	 19.3084
472	 19.2681
456	 19.7608
440	 18.0148
424	 16.6754
408	 23.6242
392	 14.9982
376	 6.688928
370	 -6.658506

File: LPE453_t15.asc
PE IR       SPECTRUM    SPECTRUM    ASCII       PEDS        1.60
  -1
LPD79D~1.ASC
17/05/16
15:33:14.00
17/05/16
15:33:40.00
tln
$LPE453_t0015$<tbV0>[5.2,-10.4,8.0,0.0,27,1,0]
27.028
64

2002,4.07
MIRTGS : RIGHTBACK : INTERNAL 2
MIR : ON : INTERNAL 2
OPTKBR

0.200000
8
8.000000
FILLER
RATIO
SPECTRUM
UNLOCKED 256

DOUBLE
64
COMBINED
1
0
0

0.002000
RATIO

1
0
TRUE
51149
0
LEFT NOT FITTED RIGHT NOT FITTED 0
NONE
NONE
15600
12
4.427000
51148
TRUE
1 0 8 72 0 0 0 0

15798

#HDR
-1
-1
#GR
µM
%T
2.38419e-05
0.0
2.000000
0.002000
12515
8
36.6227
-16.8645
#DATA
2.000000	 -0.042343
2.084000	 0.459272
2.168000	 1.126530
2.252000	 -1.628188
2.336000	 -0.178226
2.420000	 0.057793
2.504000	 0.145577
2.588000	 0.052606
2.672000	 0.271844
2.756000	 0.062224
2.840000	 0.074276
2.924000	 0.013028
3.008000	 -0.014743
3.092000	 0.033252
3.176000	 0.034628
3.260000	 0.085662
3.344000	 -0.023327
3.428000	 0.078392
3.512000	 -0.139960
3.596000	 0.071906
3.680000	 0.107335
3.764000	 0.108705
3.848000	 0.013117
3.932000	 0.061977
4.016000	 0.084396
4.100000	 0.019878
4.184000	 0.184102
4.268000	 0.029308
4.352000	 0.117580
4.436000	 0.317427
4.520000	 1.309750
4.604000	 3.208881
4.688000	 6.148155
4.772000	 10.0735
4.856000	 14.0194
4.940000	 17.4926
5.024000	 20.4403
5.108000	 22.8448
5.192000	 24.4986
5.276000	 25.731
5.359999	 26.8568
5.444000	 27.4388
5.528000	 27.899
5.612000	 28.3322
5.696000	 28.6231
5.780000	 28.7313
5.864000	 29.032
5.948000	 29.0869
6.032000	 28.9955
6.116000	 29.0991
6.200000	 29.0091
6.284000	 28.8614
6.368000	 29.0043
6.452000	 29.0257
6.536000	 28.9313
6.620000	 28.824
6.704000	 28.8047
6.788000	 28.7938
6.872000	 28.7313
6.956000	 28.5369
7.040000	 28.4143
7.124000	 28.3258
7.208000	 28.5165
7.292000	 28.3913
7.376000	 28.1525
7.460000	 28.2174
7.544000	 28.0978
7.628000	 27.904
7.712000	 27.9162
7.796000	 28.0348
7.880000	 27.7841
7.964000	 27.7608
8.048000	 27.7215
8.132000	 27.5563
8.216000	 27.668
8.300000	 27.6752
8.384000	 27.5051
8.468000	 27.6714
8.552000	 27.6217
8.635999	 27.5094
8.719999	 27.4108
8.804000	 27.4301
8.888000	 27.281
8.972000	 27.1615
9.056000	 26.8754
9.140000	 27.23
9.224000	 26.7046
9.308000	 26.9261
9.391999	 26.9306
9.475999	 26.7839
9.560000	 26.7219
9.644000	 26.4887
9.728000	 26.3676
9.812000	 26.5858
9.896000	 26.3465
9.980000	 26.0323
10.064	25.9661
10.148	25.7063
10.232	25.8526
10.316	25.9469
10.4	25.8936
10.484	25.6685
10.568	25.4865
10.652	25.3983
10.736	25.3663
10.82	25.2205
10.904	25.2237
10.988	25.1298
11.072	24.8074
11.156	24.709
11.24	24.7947
11.324	24.7279
11.408	24.8882
11.492	24.9275
11.576	24.5152
11.66	24.3135
11.744	24.1985
11.828	24.0836
11.912	24.0548
11.996	24.1789
12.08	24.1077
12.164	23.8618
12.248	23.67
12.332	23.5357
12.416	23.4198
12.5	23.5569
12.584	23.5923
12.668	23.4327
12.752	23.4014
12.836	23.5448
12.92	23.3753
13.004	23.0225
13.088	22.9345
13.172	22.7925
13.256	22.499
13.34	22.5182
13.424	22.4558
13.508	22.4628
13.592	22.6864
13.676	22.9556
13.76	23.1752
13.844	22.8125
13.928	22.3142
14.012	22.1142
14.096	21.9658
14.18	21.7868
14.264	21.6734
14.348	21.777
14.432	22.0281
14.516	22.0738
14.6	21.8376
14.684	21.652
14.768	21.5318
14.852	21.3304
14.936	21.1495
15.02	21.0292
15.104	20.8251
15.188	20.5786
15.272	20.5623
15.356	20.8098
15.44	21.0593
15.524	21.0865
15.608	20.8436
15.692	20.491
15.776	20.3304
15.86	20.4697
15.944	20.5728
16.028	20.3727
16.112	20.0668
16.196	19.8378
16.28	19.6163
16.364	19.4404
16.448	19.4274
16.532	19.4805
16.616	19.453
16.7	19.4122
16.784	19.4578
16.868	19.5118
16.952	19.5036
17.036	19.4764
17.12	19.3888
17.204	19.1121
17.288	18.7294
17.372	18.5096
17.456	18.5369
17.54	18.6107
17.624	18.5585
17.708	18.4602
17.792	18.4846
17.876	18.6147
17.96	18.6426
18.044	18.4523
18.128	18.2153
18.212	18.2136
18.296	18.4939
18.38	18.7844
18.464	18.802
18.548	18.5571
18.632	18.2875
18.716	18.1697
18.8	18.1765
18.884	18.1716
18.968	18.0747
19.052	17.912
19.136	17.7455
19.22	17.6089
19.304	17.5141
19.388	17.4825
19.472	17.5217
19.556	17.577
19.64	17.5409
19.724	17.3542
19.808	17.075
19.892	16.8203
19.976	16.6577
20.06	16.5617
20.144	16.4733
20.228	16.3776
20.312	16.321
20.396	16.3543
20.48	16.4699
20.564	16.5892
20.648	16.6162
20.732	16.5006
20.816	16.2709
20.9	16.0173
20.984	15.8413
21.068	15.8065
21.152	15.9176
21.236	16.1264
21.32	16.3495
21.404	16.5027
21.488	16.5323
21.572	16.4275
21.656	16.2019
21.74	15.8782
21.824	15.4984
21.908	15.1362
21.992	14.8769
22.076	14.7765
22.16	14.8242
22.244	14.9334
22.328	15.003
22.412	14.9734
22.496	14.862
22.58	14.7376
22.664	14.6734
22.748	14.7072
22.832	14.8254
22.916	14.9791
23	15.0896
23.084	15.0743
23.168	14.8859
23.252	14.5516
23.336	14.1758
23.42	13.9318
23.504	13.9496
23.588	14.2712
23.672	14.8359
23.756	15.4628
23.84	15.9478
23.924	16.1853
24.008	16.1949
24.092	16.0949
24.176	16.0782
24.26	16.2993
24.344	16.7705
24.428	17.3531
24.512	17.8784
24.596	18.2073
24.68	18.2152
24.764	17.7709
24.848	16.7424
24.932	14.949
25.016	12.2279
25.1	8.506799
25.184	3.910966
25.268	-1.104737
25.352	-5.770277
25.436	-8.966061
25.52	-9.579306
25.604	-6.925757
25.688	-1.004586
25.772	7.212430
25.856	15.9553
25.94	22.9566
26.024	26.0498
26.108	24.0295
26.192	17.192
26.276	7.222815
26.36	-3.202011
26.444	-11.4899
26.528	-16.0363
26.612	-16.738
26.696	-14.6328
26.78	-11.2732
26.864	-8.066471
26.948	-5.781939
27.028	-4.545116

File: LPE453_t15_cm-1.asc
PE IR       SPECTRUM    SPECTRUM    ASCII       PEDS        1.60
  -1
LPE7DB~1.ASC
17/05/16
15:33:14.00
17/05/16
15:33:14.00
tln
$LPE453_t0015$<tbV0>[5.2,-10.4,8.0,0.0,27,1,0]
370
64

2002,4.07
MIRTGS : RIGHTBACK : INTERNAL 2
MIR : ON : INTERNAL 2
OPTKBR

0.200000
8
8.000000
FILLER
RATIO
SPECTRUM
UNLOCKED 256

DOUBLE
64
COMBINED
1
0
0

1.000000
RATIO

1
0
TRUE
51149
0
LEFT NOT FITTED RIGHT NOT FITTED 0
NONE
NONE
15600
12
4.427000
51148
TRUE
1 0 8 72 0 0 0 0

15798

#HDR
-1
-1
#GR
CM-1
%T
2.38419e-05
0.0
5000
-1.000000
4631
8
38.163
-16.8547
#DATA
5000	-0.042343
4984	0.067806
4968	-0.389647
4952	0.253844
4936	0.310158
4920	-0.077199
4904	0.025868
4888	0.287818
4872	0.352072
4856	0.163865
4840	0.492906
4824	0.505924
4808	0.144100
4792	0.423336
4776	-0.038313
4760	0.675249
4744	-0.272965
4728	0.180649
4712	0.460743
4696	-0.023937
4680	0.522565
4664	0.717711
4648	0.920295
4632	0.777339
4616	1.061081
4600	0.389838
4584	-0.657010
4568	-1.672983
4552	-1.487088
4536	-1.650118
4520	10.7613
4504	-0.600075
4488	-1.622200
4472	-1.338601
4456	-1.383256
4440	-1.637363
4424	-0.221848
4408	0.287151
4392	0.729346
4376	0.816082
4360	0.402259
4344	0.396919
4328	0.443673
4312	-0.046491
4296	0.274443
4280	-0.135421
4264	-0.121998
4248	0.324797
4232	0.258421
4216	0.356268
4200	0.211238
4184	0.398874
4168	0.332713
4152	0.061011
4136	0.010848
4120	-0.049662
4104	0.051283
4088	-0.107121
4072	0.404024
4056	0.113296
4040	0.271773
4024	0.102686
4008	0.208044
3992	0.155639
3976	0.242447
3960	0.047588
3944	0.117611
3928	-0.037550
3912	0.200653
3896	-0.050139
3880	-0.097680
3864	0.052762
3848	0.014281
3832	0.183200
3816	-0.026297
3800	-0.017952
3784	0.173783
3768	0.123167
3752	0.260400
3736	0.146460
3720	0.006127
3704	0.133490
3688	0.035953
3672	-0.031995
3656	0.172400
3640	0.019931
3624	-0.000619
3608	0.169754
3592	-0.054764
3576	0.120282
3560	0.182986
3544	-0.044202
3528	-0.003337
3512	0.243735
3496	0.121235
3480	0.123238
3464	-0.088095
3448	0.062608
3432	-0.100255
3416	-0.053119
3400	0.084996
3384	-0.135087
3368	0.120353
3352	0.145792
3336	0.057220
3320	0.037574
3304	0.045895
3288	0.011444
3272	0.027084
3256	0.145792
3240	-0.093150
3224	0.081968
3208	0.145316
3192	0.008964
3176	-0.089859
3160	0.017142
3144	0.084233
3128	0.001931
3112	0.118112
3096	0.053620
3080	0.005030
3064	-0.037217
3048	-0.007009
3032	0.074744
3016	0.045943
3000	0.091838
2984	-0.043439
2968	0.073218
2952	0.045275
2936	0.133371
2920	0.115561
2904	0.024771
2888	0.077176
2872	0.054979
2856	-0.054526
2840	-0.012063
2824	0.070548
2808	0.062251
2792	-0.020527
2776	0.041174
2760	0.057363
2744	0.061774
2728	-0.046658
2712	0.096845
2696	0.013637
2680	0.035500
2664	0.073289
2648	0.184392
2632	-0.026631
2616	0.116348
2600	0.018453
2584	0.138568
2568	-0.035238
2552	-0.067377
2536	0.092220
2520	0.042629
2504	0.007939
2488	0.079369
2472	-0.000953
2456	-0.005817
2440	0.004768
2424	0.041317
2408	-0.058054
2392	0.186395
2376	0.018668
2360	-0.037622
2344	0.016880
2328	-0.002503
2312	-0.001764
2296	0.138854
2280	0.090241
2264	0.300955
2248	0.522875
2232	0.829267
2216	1.135587
2200	1.782917
2184	2.615165
2168	3.456711
2152	4.727649
2136	5.831146
2120	7.543826
2104	9.227299
2088	10.9036
2072	12.6601
2056	14.3367
2040	16.066
2024	17.5239
2008	19.0125
1992	20.3146
1976	21.6105
1960	22.6753
1944	23.7616
1928	24.3678
1912	25.2724
1896	25.7113
1880	26.3331
1864	26.8995
1848	27.1457
1832	27.5172
1816	27.8787
1800	28.1248
1784	28.2862
1768	28.5951
1752	28.6255
1736	28.7338
1720	28.7782
1704	29.0556
1688	29.0533
1672	28.9854
1656	29.0704
1640	29.0653
1624	28.9779
1608	28.897
1592	28.852
1576	29.0071
1560	29.1744
1544	29.0032
1528	28.9257
1512	28.775
1496	28.8854
1480	28.7601
1464	28.5545
1448	28.6498
1432	28.5717
1416	28.4574
1400	28.3271
1384	28.4902
1368	28.324
1352	28.1214
1336	28.2211
1320	27.8756
1304	27.9883
1288	27.9005
1272	27.7983
1256	27.7496
1240	27.6919
1224	27.5507
1208	27.6457
1192	27.4991
1176	27.6955
1160	27.4929
1144	27.3883
1128	27.2839
1112	27.0407
1096	27.2501
1080	26.7735
1064	26.9183
1048	26.737
1032	26.3924
1016	26.5849
1000	26.0243
984	 25.6975
968	 25.9831
952	 25.5961
936	 25.3785
920	 25.1873
904	 24.8326
888	 24.7995
872	 24.9937
856	 24.2728
840	 24.0484
824	 23.9418
808	 23.4643
792	 23.5078
776	 23.4993
760	 22.8396
744	 22.4323
728	 23.1571
712	 22.0611
696	 21.8335
680	 21.6236
664	 20.9485
648	 21.0431
632	 20.3847
616	 19.7409
600	 19.4201
584	 19.382
568	 18.5804
552	 18.2402
536	 18.2343
520	 17.5941
504	 16.9651
488	 16.4886
472	 15.9959
456	 15.0557
440	 14.6898
424	 14.2545
408	 17.8668
392	 -9.671902
376	 -16.8547
370	 -4.545116

File: LPE453_t16.asc
PE IR       SPECTRUM    SPECTRUM    ASCII       PEDS        1.60
  -1
LPD791~1.ASC
17/05/16
15:37:50.00
17/05/16
15:38:16.00
tln
$LPE453_t0016$<tbV0>[2.6,-10.4,8.0,0.0,27,1,0]
27.028
64

2002,4.07
MIRTGS : RIGHTBACK : INTERNAL 2
MIR : ON : INTERNAL 2
OPTKBR

0.200000
8
8.000000
FILLER
RATIO
SPECTRUM
UNLOCKED 256

DOUBLE
64
COMBINED
1
0
0

0.002000
RATIO

1
0
TRUE
51149
0
LEFT NOT FITTED RIGHT NOT FITTED 0
NONE
NONE
15600
12
4.427000
51148
TRUE
1 0 8 72 0 0 0 0

15798

#HDR
-1
-1
#GR
µM
%T
2.38419e-05
0.0
2.000000
0.002000
12515
8
30.744
-24.7175
#DATA
2.000000	 0.021910
2.084000	 0.170518
2.168000	 0.171351
2.252000	 0.454348
2.336000	 0.192226
2.420000	 -0.206322
2.504000	 0.182536
2.588000	 0.083776
2.672000	 0.223873
2.756000	 0.193264
2.840000	 0.151577
2.924000	 0.095343
3.008000	 0.059960
3.092000	 0.025481
3.176000	 -0.123751
3.260000	 -0.060763
3.344000	 0.147013
3.428000	 0.124651
3.512000	 0.118344
3.596000	 0.075869
3.680000	 0.006249
3.764000	 0.082666
3.848000	 0.041072
3.932000	 0.044602
4.016000	 0.036035
4.100000	 0.105479
4.184000	 0.018240
4.268000	 0.032363
4.352000	 0.095264
4.436000	 0.441507
4.520000	 1.416125
4.604000	 3.556933
4.688000	 6.921692
4.772000	 10.6688
4.856000	 14.8526
4.940000	 18.5296
5.024000	 21.5033
5.108000	 23.8498
5.192000	 25.6551
5.276000	 27.0289
5.359999	 28.0496
5.444000	 28.6818
5.528000	 29.3862
5.612000	 29.7363
5.696000	 30.0135
5.780000	 30.1337
5.864000	 30.3527
5.948000	 30.4848
6.032000	 30.6036
6.116000	 30.731
6.200000	 30.3801
6.284000	 30.1998
6.368000	 30.4328
6.452000	 30.3718
6.536000	 30.3851
6.620000	 30.5096
6.704000	 30.239
6.788000	 30.2684
6.872000	 30.3033
6.956000	 30.0685
7.040000	 30.0624
7.124000	 29.9586
7.208000	 29.9874
7.292000	 29.8623
7.376000	 29.8159
7.460000	 29.7106
7.544000	 29.7618
7.628000	 29.6371
7.712000	 29.5941
7.796000	 29.5081
7.880000	 29.4404
7.964000	 29.3781
8.048000	 29.3398
8.132000	 29.3965
8.216000	 29.2134
8.300000	 29.2091
8.384000	 29.1246
8.468000	 29.1333
8.552000	 29.0886
8.635999	 28.8859
8.719999	 28.8421
8.804000	 28.9951
8.888000	 28.9008
8.972000	 28.7915
9.056000	 28.6394
9.140000	 28.5259
9.224000	 28.4155
9.308000	 28.3372
9.391999	 28.4396
9.475999	 28.2511
9.560000	 28.381
9.644000	 28.177
9.728000	 28.0796
9.812000	 28.2622
9.896000	 28.0125
9.980000	 27.7482
10.064	27.9135
10.148	27.6943
10.232	27.4612
10.316	27.7531
10.4	27.4729
10.484	27.2837
10.568	27.1881
10.652	27.1543
10.736	27.0835
10.82	27.0296
10.904	26.953
10.988	26.8725
11.072	27.0226
11.156	26.7466
11.24	26.4797
11.324	26.4096
11.408	26.2959
11.492	26.3365
11.576	26.2621
11.66	26.0784
11.744	26.103
11.828	26.0405
11.912	25.9023
11.996	25.8159
12.08	25.6694
12.164	25.7185
12.248	25.5197
12.332	25.5424
12.416	25.4041
12.5	25.2139
12.584	25.1918
12.668	25.0334
12.752	24.9815
12.836	25.0746
12.92	24.9533
13.004	24.8059
13.088	24.5059
13.172	24.3136
13.256	24.3593
13.34	24.6173
13.424	24.8002
13.508	24.5171
13.592	24.0794
13.676	24.1218
13.76	24.2088
13.844	23.9829
13.928	23.7951
14.012	23.4799
14.096	23.3429
14.18	23.5001
14.264	23.3932
14.348	23.0158
14.432	22.9522
14.516	23.289
14.6	23.4463
14.684	23.2402
14.768	22.8872
14.852	22.6255
14.936	22.5565
15.02	22.5573
15.104	22.6183
15.188	22.7213
15.272	22.7185
15.356	22.5817
15.44	22.347
15.524	22.0489
15.608	21.9247
15.692	22.1894
15.776	22.5524
15.86	22.5933
15.944	22.3658
16.028	22.0849
16.112	21.7671
16.196	21.4625
16.28	21.2591
16.364	21.1578
16.448	21.2294
16.532	21.4251
16.616	21.4651
16.7	21.3196
16.784	21.2495
16.868	21.2569
16.952	21.1654
17.036	21.0379
17.12	20.98
17.204	20.8371
17.288	20.4508
17.372	19.9622
17.456	19.6316
17.54	19.5297
17.624	19.5357
17.708	19.577
17.792	19.7081
17.876	19.9433
17.96	20.1664
18.044	20.2613
18.128	20.2171
18.212	20.0885
18.296	19.9354
18.38	19.8169
18.464	19.754
18.548	19.6937
18.632	19.5656
18.716	19.3687
18.8	19.1565
18.884	18.9681
18.968	18.8113
19.052	18.695
19.136	18.6294
19.22	18.6056
19.304	18.6144
19.388	18.6759
19.472	18.8057
19.556	18.9589
19.64	19.0332
19.724	18.9586
19.808	18.765
19.892	18.5526
19.976	18.4027
20.06	18.3289
20.144	18.3064
20.228	18.3282
20.312	18.4225
20.396	18.6088
20.48	18.8437
20.564	19.0156
20.648	19.004
20.732	18.7598
20.816	18.347
20.9	17.8999
20.984	17.5414
21.068	17.3254
21.152	17.2303
21.236	17.2041
21.32	17.2018
21.404	17.1947
21.488	17.1604
21.572	17.0867
21.656	16.9892
21.74	16.8992
21.824	16.8315
21.908	16.7451
21.992	16.5713
22.076	16.2936
22.16	15.991
22.244	15.8256
22.328	15.9277
22.412	16.2934
22.496	16.7642
22.58	17.1409
22.664	17.308
22.748	17.295
22.832	17.2047
22.916	17.1224
23	17.0079
23.084	16.7211
23.168	16.103
23.252	15.0952
23.336	13.7731
23.42	12.3563
23.504	11.123
23.588	10.3193
23.672	10.0848
23.756	10.4114
23.84	11.1342
23.924	11.9902
24.008	12.7613
24.092	13.3809
24.176	13.9271
24.26	14.619
24.344	15.6362
24.428	16.9339
24.512	18.2405
24.596	19.1583
24.68	19.2497
24.764	18.2006
24.848	16.0161
24.932	13.0695
25.016	10.0252
25.1	7.672244
25.184	6.632007
25.268	7.094121
25.352	8.837967
25.436	11.398
25.52	14.2344
25.604	16.8353
25.688	18.5424
25.772	18.5529
25.856	16.1154
25.94	10.9079
26.024	3.328198
26.108	-5.429184
26.192	-13.8278
26.276	-20.3828
26.36	-24.0847
26.444	-24.4661
26.528	-21.5728
26.612	-15.7834
26.696	-7.750393
26.78	1.649294
26.864	11.3535
26.948	20.2979
27.028	27.2699