Folder: Masteroppgave/Bakgrunnsmateriale/MATLAB/FTIR/ftir_data/LPE453/Mapping_121 (part 15)

File: LPE453_t29.asc
PE IR       SPECTRUM    SPECTRUM    ASCII       PEDS        1.60
  -1
LPEB9D~1.ASC
17/05/16
16:44:56.00
17/05/16
16:45:22.00
tln
$LPE453_t0029$<tbV0>[-2.6,-7.8,8.0,0.0,27,1,0]
27.028
64

2002,4.07
MIRTGS : RIGHTBACK : INTERNAL 2
MIR : ON : INTERNAL 2
OPTKBR

0.200000
8
8.000000
FILLER
RATIO
SPECTRUM
UNLOCKED 256

DOUBLE
64
COMBINED
1
0
0

0.002000
RATIO

1
0
TRUE
51149
0
LEFT NOT FITTED RIGHT NOT FITTED 0
NONE
NONE
15600
12
4.427000
51148
TRUE
1 0 8 72 0 0 0 0

15798

#HDR
-1
-1
#GR
µM
%T
2.38419e-05
0.0
2.000000
0.002000
12515
8
35.6912
-5.601680
#DATA
2.000000	 0.752615
2.084000	 0.155491
2.168000	 0.606664
2.252000	 -0.681925
2.336000	 -0.181497
2.420000	 0.246279
2.504000	 0.070578
2.588000	 0.063350
2.672000	 0.034368
2.756000	 0.153417
2.840000	 0.058868
2.924000	 0.099361
3.008000	 -0.000167
3.092000	 0.183313
3.176000	 0.038819
3.260000	 -0.158900
3.344000	 0.018894
3.428000	 0.008711
3.512000	 0.117186
3.596000	 0.038105
3.680000	 0.101672
3.764000	 0.083992
3.848000	 0.068778
3.932000	 0.036021
4.016000	 0.116193
4.100000	 0.084344
4.184000	 -0.132728
4.268000	 0.151237
4.352000	 0.553082
4.436000	 1.375960
4.520000	 3.216846
4.604000	 6.630669
4.688000	 11.03
4.772000	 15.8606
4.856000	 20.3685
4.940000	 24.2383
5.024000	 27.2095
5.108000	 29.6103
5.192000	 31.1809
5.276000	 32.4902
5.359999	 33.2708
5.444000	 34.0157
5.528000	 34.5132
5.612000	 34.7937
5.696000	 34.9729
5.780000	 35.0815
5.864000	 35.2803
5.948000	 35.5031
6.032000	 35.5185
6.116000	 35.6525
6.200000	 35.4875
6.284000	 35.61
6.368000	 35.5447
6.452000	 35.4632
6.536000	 35.5125
6.620000	 35.6023
6.704000	 35.5161
6.788000	 35.4726
6.872000	 35.3967
6.956000	 35.5587
7.040000	 35.4029
7.124000	 35.4049
7.208000	 35.5062
7.292000	 35.2948
7.376000	 35.2382
7.460000	 35.3383
7.544000	 35.2186
7.628000	 35.2561
7.712000	 35.0468
7.796000	 35.1133
7.880000	 35.0968
7.964000	 34.9306
8.048000	 34.885
8.132000	 35.1111
8.216000	 35.034
8.300000	 34.8324
8.384000	 34.9166
8.468000	 34.8126
8.552000	 34.8903
8.635999	 34.8302
8.719999	 34.6248
8.804000	 34.6556
8.888000	 34.6533
8.972000	 34.6987
9.056000	 34.8125
9.140000	 34.7468
9.224000	 34.3316
9.308000	 34.338
9.391999	 34.2338
9.475999	 34.4293
9.560000	 34.5153
9.644000	 34.1635
9.728000	 33.7927
9.812000	 33.7759
9.896000	 34.0592
9.980000	 34.2487
10.064	33.9191
10.148	33.8618
10.232	33.6114
10.316	33.4157
10.4	33.4055
10.484	33.6793
10.568	33.6776
10.652	33.8091
10.736	33.6203
10.82	33.26
10.904	32.9132
10.988	32.6253
11.072	32.6187
11.156	32.7143
11.24	32.9456
11.324	32.9676
11.408	32.9398
11.492	32.8125
11.576	32.437
11.66	32.109
11.744	32.2012
11.828	32.2405
11.912	32.2211
11.996	32.4571
12.08	32.439
12.164	32.0734
12.248	31.9091
12.332	31.8699
12.416	31.6679
12.5	31.3058
12.584	31.2239
12.668	31.2785
12.752	31.3314
12.836	31.4558
12.92	31.4926
13.004	31.6302
13.088	31.634
13.172	31.4404
13.256	31.404
13.34	31.2693
13.424	30.9209
13.508	30.6046
13.592	30.4372
13.676	30.5124
13.76	30.6667
13.844	30.7219
13.928	30.7485
14.012	30.746
14.096	30.6543
14.18	30.4868
14.264	30.3186
14.348	30.0767
14.432	29.8047
14.516	29.5979
14.6	29.4184
14.684	29.3261
14.768	29.3116
14.852	29.3258
14.936	29.5059
15.02	29.7616
15.104	29.8583
15.188	29.8302
15.272	29.759
15.356	29.6073
15.44	29.3295
15.524	29.0225
15.608	28.8603
15.692	28.8131
15.776	28.6272
15.86	28.2674
15.944	28.0446
16.028	28.085
16.112	28.152
16.196	28.0576
16.28	27.8708
16.364	27.777
16.448	27.8454
16.532	27.9206
16.616	27.9006
16.7	27.8975
16.784	27.9642
16.868	28.0005
16.952	27.8984
17.036	27.643
17.12	27.3496
17.204	27.1926
17.288	27.2223
17.372	27.3395
17.456	27.4205
17.54	27.3817
17.624	27.2271
17.708	27.048
17.792	26.913
17.876	26.8125
17.96	26.7494
18.044	26.7935
18.128	26.9777
18.212	27.2077
18.296	27.3303
18.38	27.2579
18.464	27.0214
18.548	26.7311
18.632	26.4942
18.716	26.3662
18.8	26.3399
18.884	26.3415
18.968	26.2607
19.052	26.0388
19.136	25.732
19.22	25.4683
19.304	25.3296
19.388	25.2939
19.472	25.2946
19.556	25.2861
19.64	25.256
19.724	25.2048
19.808	25.1378
19.892	25.0754
19.976	25.0587
20.06	25.1269
20.144	25.2679
20.228	25.3967
20.312	25.3965
20.396	25.2155
20.48	24.9286
20.564	24.6901
20.648	24.5966
20.732	24.6011
20.816	24.5694
20.9	24.4101
20.984	24.1412
21.068	23.8559
21.152	23.6431
21.236	23.5422
21.32	23.5449
21.404	23.6327
21.488	23.7925
21.572	23.9997
21.656	24.2008
21.74	24.3165
21.824	24.2859
21.908	24.1148
21.992	23.8823
22.076	23.7052
22.16	23.6751
22.244	23.8013
22.328	24.0281
22.412	24.2989
22.496	24.5989
22.58	24.9498
22.664	25.3591
22.748	25.7787
22.832	26.1187
22.916	26.2718
23	26.1462
23.084	25.6977
23.168	24.9641
23.252	24.0633
23.336	23.1669
23.42	22.4758
23.504	22.1394
23.588	22.1767
23.672	22.4746
23.756	22.8276
23.84	23.0308
23.924	22.9394
24.008	22.5024
24.092	21.7587
24.176	20.8085
24.26	19.8149
24.344	18.9975
24.428	18.5352
24.512	18.4957
24.596	18.7602
24.68	18.9942
24.764	18.7406
24.848	17.6313
24.932	15.5883
25.016	12.9571
25.1	10.4245
25.184	8.705193
25.268	8.202541
25.352	8.926321
25.436	10.4789
25.52	12.2166
25.604	13.5253
25.688	13.9833
25.772	13.5011
25.856	12.2887
25.94	10.7198
26.024	9.239455
26.108	8.221693
26.192	7.948587
26.276	8.511951
26.36	9.830179
26.444	11.4563
26.528	12.7911
26.612	13.1851
26.696	12.5664
26.78	11.6504
26.864	11.875
26.948	14.7662
27.028	20.7333

File: LPE453_t29_cm-1.asc
PE IR       SPECTRUM    SPECTRUM    ASCII       PEDS        1.60
  -1
LP68D9~1.ASC
17/05/16
16:44:56.00
17/05/16
16:44:56.00
tln
$LPE453_t0029$<tbV0>[-2.6,-7.8,8.0,0.0,27,1,0]
370
64

2002,4.07
MIRTGS : RIGHTBACK : INTERNAL 2
MIR : ON : INTERNAL 2
OPTKBR

0.200000
8
8.000000
FILLER
RATIO
SPECTRUM
UNLOCKED 256

DOUBLE
64
COMBINED
1
0
0

1.000000
RATIO

1
0
TRUE
51149
0
LEFT NOT FITTED RIGHT NOT FITTED 0
NONE
NONE
15600
12
4.427000
51148
TRUE
1 0 8 72 0 0 0 0

15798

#HDR
-1
-1
#GR
CM-1
%T
2.38419e-05
0.0
5000
-1.000000
4631
8
35.6909
-5.564045
#DATA
5000	0.752615
4984	0.072360
4968	0.201177
4952	0.324225
4936	0.146913
4920	0.748634
4904	-0.185585
4888	-0.063586
4872	0.311636
4856	0.030374
4840	0.260663
4824	0.102996
4808	0.299525
4792	-0.264739
4776	-0.103878
4760	0.319170
4744	0.148820
4728	0.272250
4712	0.055861
4696	0.003337
4680	0.248813
4664	0.292801
4648	0.536894
4632	0.955247
4616	0.379228
4600	0.109577
4584	0.221323
4568	0.580167
4552	-0.469136
4536	-1.156067
4520	3.713130
4504	1.652717
4488	1.912164
4472	0.199818
4456	-0.067496
4440	-0.704908
4424	0.245833
4408	0.667643
4392	0.133490
4376	0.371003
4360	0.003194
4344	0.027990
4328	0.031638
4312	0.113344
4296	0.219345
4280	-0.204896
4264	0.402641
4248	0.016093
4232	-0.027751
4216	-0.045871
4200	0.300407
4184	0.329065
4168	0.640940
4152	-0.009703
4136	0.122928
4120	-0.039649
4104	-0.033974
4088	-0.129652
4072	0.052809
4056	0.231981
4040	0.280594
4024	0.260019
4008	0.034427
3992	0.013089
3976	0.099897
3960	0.066876
3944	-0.000858
3928	0.035166
3912	-0.090479
3896	0.096487
3880	-0.044178
3864	0.063157
3848	0.051403
3832	-0.034022
3816	0.088882
3800	0.010514
3784	0.100827
3768	0.014829
3752	0.081634
3736	-0.032353
3720	-0.001311
3704	0.128102
3688	0.148987
3672	0.106763
3656	-0.007772
3640	0.038313
3624	0.077366
3608	-0.020670
3592	0.204300
3576	0.054979
3560	-0.031805
3544	0.080919
3528	0.126242
3512	-0.023603
3496	-0.099730
3480	0.030851
3464	-0.028133
3448	0.010681
3432	-0.004744
3416	0.087070
3400	-0.034213
3384	0.036120
3368	-0.036931
3352	0.202369
3336	-0.030589
3320	-0.117087
3304	0.036191
3288	0.047516
3272	0.005674
3256	0.275349
3240	0.231981
3224	-0.012612
3208	-0.162982
3192	-0.004124
3176	0.028443
3160	-0.008845
3144	0.101375
3128	0.011610
3112	0.196385
3096	0.107526
3080	-0.047612
3064	-0.110673
3048	0.105524
3032	-0.000524
3016	0.013542
3000	0.011920
2984	0.040054
2968	0.037789
2952	0.075435
2936	0.092124
2920	0.060319
2904	0.047779
2888	0.029063
2872	-0.089502
2856	0.177145
2840	0.003695
2824	0.048494
2808	0.013399
2792	0.001645
2776	0.001859
2760	0.126647
2744	-0.034451
2728	0.072908
2712	0.111937
2696	-0.093054
2680	0.038671
2664	0.133395
2648	0.046014
2632	-0.075316
2616	-0.012946
2600	0.057196
2584	0.033092
2568	0.123333
2552	0.038599
2536	-0.057744
2520	0.044226
2504	-0.112199
2488	0.103044
2472	-0.002908
2456	0.105881
2440	0.105929
2424	-0.084614
2408	-0.086665
2392	-0.094723
2376	0.028371
2360	0.172448
2344	0.154232
2328	0.233650
2312	0.372600
2296	0.556850
2280	0.704860
2264	1.089072
2248	1.526165
2232	2.295899
2216	2.970433
2200	4.149031
2184	5.457901
2168	6.901168
2152	8.773446
2136	10.7142
2120	12.5973
2104	14.6696
2088	16.9037
2072	18.8146
2056	20.849
2040	22.5745
2024	24.2687
2008	25.7987
1992	27.1089
1976	28.3059
1960	29.5084
1944	30.2025
1928	31.099
1912	31.786
1896	32.4697
1880	32.8729
1864	33.3253
1848	33.8022
1832	34.0503
1816	34.3037
1800	34.645
1784	34.7853
1768	34.8268
1752	35.0576
1736	35.0972
1720	35.1324
1704	35.2946
1688	35.4708
1672	35.3651
1656	35.5653
1640	35.6379
1624	35.5794
1608	35.5457
1592	35.6265
1576	35.6656
1560	35.5455
1544	35.4584
1528	35.5141
1512	35.6287
1496	35.5747
1480	35.4855
1464	35.4995
1448	35.4576
1432	35.3932
1416	35.4382
1400	35.4106
1384	35.4835
1368	35.3037
1352	35.235
1336	35.33
1320	35.1699
1304	35.0057
1288	35.2264
1272	35.0957
1256	34.9333
1240	34.9112
1224	35.1058
1208	34.7749
1192	34.8986
1176	34.8707
1160	34.8794
1144	34.6549
1128	34.6245
1112	34.6611
1096	34.8195
1080	34.457
1064	34.2375
1048	34.5123
1032	33.931
1016	33.8489
1000	34.1668
984	 33.8435
968	 33.3952
952	 33.6762
936	 33.7638
920	 33.0714
904	 32.6133
888	 32.9776
872	 32.8648
856	 32.093
840	 32.2044
824	 32.2186
808	 31.7852
792	 31.2618
776	 31.478
760	 31.4662
744	 30.8497
728	 30.6323
712	 30.7235
696	 30.0092
680	 29.3196
664	 29.8313
648	 29.3595
632	 28.4314
616	 27.9741
600	 27.8888
584	 27.3401
568	 27.2668
552	 26.9451
536	 26.4443
520	 25.4431
504	 25.1106
488	 24.8889
472	 23.5879
456	 24.0559
440	 25.6788
424	 22.17
408	 18.4922
392	 12.0291
376	 13.1984
370	 20.7333

File: LPE453_t30.asc
PE IR       SPECTRUM    SPECTRUM    ASCII       PEDS        1.60
  -1
LPCF99~1.ASC
17/05/16
16:49:33.00
17/05/16
16:49:59.00
tln
$LPE453_t0030$<tbV0>[-5.2,-7.8,8.0,0.0,27,1,0]
27.028
64

2002,4.07
MIRTGS : RIGHTBACK : INTERNAL 2
MIR : ON : INTERNAL 2
OPTKBR

0.200000
8
8.000000
FILLER
RATIO
SPECTRUM
UNLOCKED 256

DOUBLE
64
COMBINED
1
0
0

0.002000
RATIO

1
0
TRUE
51149
0
LEFT NOT FITTED RIGHT NOT FITTED 0
NONE
NONE
15600
12
4.427000
51148
TRUE
1 0 8 72 0 0 0 0

15798

#HDR
-1
-1
#GR
µM
%T
2.38419e-05
0.0
2.000000
0.002000
12515
8
38.1804
-4.964221
#DATA
2.000000	 -0.191950
2.084000	 0.302138
2.168000	 0.706471
2.252000	 -0.937245
2.336000	 0.209001
2.420000	 0.043320
2.504000	 0.062217
2.588000	 0.042384
2.672000	 0.046423
2.756000	 -0.098025
2.840000	 0.079641
2.924000	 0.089129
3.008000	 -0.022261
3.092000	 -0.013671
3.176000	 -0.042173
3.260000	 0.033861
3.344000	 0.090430
3.428000	 -0.018174
3.512000	 0.078703
3.596000	 0.030113
3.680000	 0.002559
3.764000	 0.070393
3.848000	 0.031111
3.932000	 0.044540
4.016000	 0.088010
4.100000	 -0.100086
4.184000	 0.192816
4.268000	 0.358914
4.352000	 0.951228
4.436000	 2.174885
4.520000	 4.768987
4.604000	 8.566943
4.688000	 13.7003
4.772000	 18.8043
4.856000	 23.4872
4.940000	 27.2761
5.024000	 30.1284
5.108000	 32.2905
5.192000	 33.8742
5.276000	 35.1074
5.359999	 35.9579
5.444000	 36.61
5.528000	 37.0651
5.612000	 37.4232
5.696000	 37.5086
5.780000	 37.6277
5.864000	 37.8706
5.948000	 37.8783
6.032000	 37.8987
6.116000	 38.0822
6.200000	 37.9919
6.284000	 38.0673
6.368000	 38.0463
6.452000	 37.6889
6.536000	 38.0194
6.620000	 38.079
6.704000	 37.8384
6.788000	 37.907
6.872000	 38.0964
6.956000	 37.7497
7.040000	 37.7956
7.124000	 38.0783
7.208000	 37.8788
7.292000	 37.7597
7.376000	 37.6778
7.460000	 37.945
7.544000	 37.7565
7.628000	 37.686
7.712000	 37.6529
7.796000	 37.6388
7.880000	 37.7749
7.964000	 37.4786
8.048000	 37.3185
8.132000	 37.4383
8.216000	 37.7938
8.300000	 37.6954
8.384000	 37.4801
8.468000	 37.0925
8.552000	 37.3207
8.635999	 37.4189
8.719999	 37.5165
8.804000	 37.4755
8.888000	 36.9612
8.972000	 36.9526
9.056000	 37.0155
9.140000	 37.3994
9.224000	 37.4274
9.308000	 36.8974
9.391999	 36.6063
9.475999	 36.4801
9.560000	 36.5594
9.644000	 36.8841
9.728000	 37.013
9.812000	 36.9435
9.896000	 36.4799
9.980000	 36.1992
10.064	36.0856
10.148	36.3006
10.232	36.4086
10.316	36.6521
10.4	36.499
10.484	36.3774
10.568	36.2325
10.652	35.9568
10.736	35.6361
10.82	35.6154
10.904	35.7888
10.988	36.1078
11.072	36.2795
11.156	36.0482
11.24	35.732
11.324	35.5547
11.408	35.3357
11.492	35.0328
11.576	35.1129
11.66	35.1983
11.744	35.4001
11.828	35.5497
11.912	35.528
11.996	35.4781
12.08	35.2563
12.164	34.7604
12.248	34.5685
12.332	34.2841
12.416	33.9535
12.5	34.0715
12.584	34.3094
12.668	34.5392
12.752	34.648
12.836	34.6442
12.92	34.7851
13.004	34.8369
13.088	34.4961
13.172	33.8759
13.256	33.2937
13.34	33.3239
13.424	33.2703
13.508	33.1347
13.592	33.3503
13.676	33.5743
13.76	33.6806
13.844	33.6158
13.928	33.792
14.012	34.0508
14.096	34.052
14.18	33.7677
14.264	33.2093
14.348	32.7505
14.432	32.5819
14.516	32.5269
14.6	32.343
14.684	32.196
14.768	32.1104
14.852	31.8771
14.936	31.7953
15.02	32.0675
15.104	32.3652
15.188	32.5919
15.272	32.8698
15.356	32.9517
15.44	32.7308
15.524	32.5487
15.608	32.4665
15.692	32.3085
15.776	32.1597
15.86	32.027
15.944	31.7507
16.028	31.4188
16.112	31.2305
16.196	31.1517
16.28	31.0443
16.364	30.9493
16.448	31.0177
16.532	31.1635
16.616	31.1581
16.7	31.0667
16.784	31.1182
16.868	31.2597
16.952	31.2926
17.036	31.2511
17.12	31.2547
17.204	31.2194
17.288	31.0297
17.372	30.7638
17.456	30.5519
17.54	30.3925
17.624	30.2135
17.708	29.9932
17.792	29.7736
17.876	29.6257
17.96	29.566
18.044	29.5152
18.128	29.4109
18.212	29.3405
18.296	29.4515
18.38	29.7418
18.464	30.0528
18.548	30.2386
18.632	30.243
18.716	30.0756
18.8	29.798
18.884	29.5157
18.968	29.3392
19.052	29.3255
19.136	29.4526
19.22	29.6145
19.304	29.6451
19.388	29.4417
19.472	29.0959
19.556	28.838
19.64	28.8202
19.724	28.979
19.808	29.1152
19.892	29.0718
19.976	28.8231
20.06	28.4441
20.144	28.0485
20.228	27.7399
20.312	27.5595
20.396	27.4601
20.48	27.3691
20.564	27.284
20.648	27.2874
20.732	27.4407
20.816	27.6757
20.9	27.8156
20.984	27.7353
21.068	27.4854
21.152	27.2498
21.236	27.1901
21.32	27.3225
21.404	27.5392
21.488	27.7191
21.572	27.8204
21.656	27.8778
21.74	27.9339
21.824	27.968
21.908	27.8907
21.992	27.6146
22.076	27.1221
22.16	26.5015
22.244	25.9263
22.328	25.5713
22.412	25.5478
22.496	25.8584
22.58	26.3932
22.664	26.9755
22.748	27.419
22.832	27.5979
22.916	27.4751
23	27.149
23.084	26.779
23.168	26.5354
23.252	26.509
23.336	26.673
23.42	26.891
23.504	27.0065
23.588	26.9234
23.672	26.6536
23.756	26.3356
23.84	26.1808
23.924	26.3577
24.008	26.9344
24.092	27.8534
24.176	28.89
24.26	29.7205
24.344	29.9866
24.428	29.4373
24.512	27.9585
24.596	25.6797
24.68	22.96
24.764	20.3041
24.848	18.2066
24.932	17.1337
25.016	17.3567
25.1	18.8356
25.184	21.247
25.268	24.0033
25.352	26.3378
25.436	27.3742
25.52	26.4422
25.604	23.3076
25.688	18.1841
25.772	11.7687
25.856	5.092528
25.94	-0.632742
26.024	-4.210995
26.108	-4.814905
26.192	-2.265476
26.276	2.939408
26.36	9.631543
26.444	16.5448
26.528	22.5829
26.612	27.023
26.696	29.2108
26.78	28.4886
26.864	24.2076
26.948	16.1469
27.028	5.660724

File: LPE453_t30_cm-1.asc
PE IR       SPECTRUM    SPECTRUM    ASCII       PEDS        1.60
  -1
LPD855~1.ASC
17/05/16
16:49:33.00
17/05/16
16:49:33.00
tln
$LPE453_t0030$<tbV0>[-5.2,-7.8,8.0,0.0,27,1,0]
370
64

2002,4.07
MIRTGS : RIGHTBACK : INTERNAL 2
MIR : ON : INTERNAL 2
OPTKBR

0.200000
8
8.000000
FILLER
RATIO
SPECTRUM
UNLOCKED 256

DOUBLE
64
COMBINED
1
0
0

1.000000
RATIO

1
0
TRUE
51149
0
LEFT NOT FITTED RIGHT NOT FITTED 0
NONE
NONE
15600
12
4.427000
51148
TRUE
1 0 8 72 0 0 0 0

15798

#HDR
-1
-1
#GR
CM-1
%T
2.38419e-05
0.0
5000
-1.000000
4631
8
38.1804
-4.794764
#DATA
5000	-0.191950
4984	-0.011873
4968	-0.079226
4952	0.411224
4936	0.406885
4920	0.383877
4904	-0.168514
4888	0.312232
4872	0.316143
4856	0.194740
4840	0.257110
4824	0.218915
4808	0.152802
4792	0.319099
4776	0.590372
4760	0.033998
4744	-0.090980
4728	-0.078511
4712	-0.138878
4696	0.220012
4680	0.383138
4664	0.650835
4648	0.066399
4632	0.592875
4616	0.961017
4600	0.247120
4584	-0.171709
4568	0.266432
4552	-0.580430
4536	-1.017594
4520	-3.245258
4504	18.8641
4488	-2.458691
4472	-0.784635
4456	-0.275611
4440	-0.921654
4424	-0.455212
4408	0.518178
4392	0.062751
4376	0.164866
4360	0.190639
4344	0.222539
4328	-0.197315
4312	0.103187
4296	0.057101
4280	0.273203
4264	0.449466
4248	0.152921
4232	0.424695
4216	-0.109601
4200	0.227713
4184	0.037240
4168	0.526928
4152	0.210285
4136	-0.118517
4120	0.004005
4104	-0.088596
4088	-0.184535
4072	0.219607
4056	0.041675
4040	0.122952
4024	0.292801
4008	0.108838
3992	0.063395
3976	0.132107
3960	0.269818
3944	0.107693
3928	-0.014758
3912	-0.141525
3896	0.026249
3880	0.142049
3864	0.042724
3848	0.104641
3832	0.246620
3816	-0.060558
3800	-0.168037
3784	0.050282
3768	0.163650
3752	-0.058245
3736	-0.031447
3720	0.166845
3704	0.033020
3688	0.092625
3672	0.056791
3656	-0.072193
3640	-0.004410
3624	-0.056838
3608	0.154924
3592	0.071358
3576	0.181579
3560	-0.124287
3544	-0.022792
3528	0.165939
3512	0.008797
3496	-0.038623
3480	0.006270
3464	0.008964
3448	-0.037908
3432	0.116777
3416	0.150990
3400	0.283765
3384	0.179100
3368	0.109052
3352	0.001454
3336	-0.089073
3320	0.001597
3304	0.014877
3288	-0.049114
3272	0.043988
3256	-0.140166
3240	-0.019860
3224	0.103282
3208	0.014448
3192	0.106024
3176	-0.018739
3160	0.052332
3144	0.077533
3128	-0.021362
3112	0.173354
3096	-0.051188
3080	0.067758
3064	0.045680
3048	0.143814
3032	0.031590
3016	0.112938
3000	0.024676
2984	0.073599
2968	0.011062
2952	0.031185
2936	0.023841
2920	-0.015592
2904	0.040864
2888	0.104355
2872	-0.012540
2856	0.225448
2840	0.120496
2824	0.070905
2808	0.018095
2792	0.106000
2776	-0.011992
2760	-0.001835
2744	-0.028824
2728	0.066757
2712	-0.030636
2696	-0.005269
2680	0.052881
2664	0.064587
2648	0.015902
2632	-0.070691
2616	0.017523
2600	0.026941
2584	0.119018
2568	0.035214
2552	0.001597
2536	0.025725
2520	-0.099325
2504	-0.106692
2488	0.077795
2472	-0.073742
2456	-0.082182
2440	-0.074315
2424	0.092792
2408	-0.034976
2392	0.187587
2376	0.106644
2360	0.148200
2344	0.358033
2328	0.478911
2312	0.679326
2296	0.975012
2280	1.355671
2264	1.750540
2248	2.455711
2232	3.303480
2216	4.492163
2200	5.836081
2184	7.248330
2168	9.085845
2152	11.1381
2136	13.2853
2120	15.4051
2104	17.6147
2088	19.7761
2072	21.8256
2056	23.9245
2040	25.6214
2024	27.3101
2008	28.8316
1992	30.0049
1976	31.165
1960	32.1409
1944	33.1294
1928	33.8072
1912	34.6043
1896	35.0893
1880	35.5658
1864	35.9975
1848	36.3261
1832	36.7451
1816	36.8972
1800	37.0317
1784	37.3915
1768	37.4268
1752	37.5802
1736	37.608
1720	37.8035
1704	37.8587
1688	37.805
1672	37.8825
1656	37.9217
1640	38.0418
1624	37.9807
1608	37.9229
1592	38.0587
1576	38.0367
1560	37.8504
1544	37.9144
1528	38.0112
1512	38.0835
1496	37.8811
1480	37.8279
1464	38.1782
1448	38.0183
1432	37.8685
1416	37.8957
1400	37.9234
1384	37.8629
1368	37.6933
1352	37.7193
1336	37.8809
1320	37.7369
1304	37.5738
1288	37.6044
1272	37.7629
1256	37.4888
1240	37.3323
1224	37.6641
1208	37.733
1192	37.4671
1176	37.1335
1160	37.4215
1144	37.5847
1128	37.0775
1112	36.9049
1096	37.3597
1080	37.2502
1064	36.5942
1048	36.5284
1032	36.9888
1016	36.8184
1000	36.1931
984	 36.3406
968	 36.6347
952	 36.3636
936	 35.8114
920	 35.7096
904	 36.2892
888	 35.6556
872	 35.0709
856	 35.2318
840	 35.53
824	 34.9107
808	 34.0656
792	 34.4299
776	 34.7054
760	 33.9994
744	 33.2234
728	 33.6722
712	 34.0811
696	 32.6857
680	 32.1801
664	 32.2263
648	 32.7553
632	 32.0958
616	 31.1105
600	 31.0955
584	 31.2551
568	 30.2566
552	 29.4275
536	 30.21
520	 29.6291
504	 29.124
488	 27.3558
472	 27.1991
456	 27.8406
440	 27.3306
424	 26.9301
408	 28.0081
392	 26.6648
376	 26.3248
370	 5.660724

File: LPE453_t31.asc
PE IR       SPECTRUM    SPECTRUM    ASCII       PEDS        1.60
  -1
LPCF9D~1.ASC
17/05/16
16:54:09.00
17/05/16
16:54:35.00
tln
$LPE453_t0031$<tbV0>[-7.8,-7.8,8.0,0.0,27,1,0]
27.028
64

2002,4.07
MIRTGS : RIGHTBACK : INTERNAL 2
MIR : ON : INTERNAL 2
OPTKBR

0.200000
8
8.000000
FILLER
RATIO
SPECTRUM
UNLOCKED 256

DOUBLE
64
COMBINED
1
0
0

0.002000
RATIO

1
0
TRUE
51149
0
LEFT NOT FITTED RIGHT NOT FITTED 0
NONE
NONE
15600
12
4.427000
51148
TRUE
1 0 8 72 0 0 0 0

15798

#HDR
-1
-1
#GR
µM
%T
2.38419e-05
0.0
2.000000
0.002000
12515
8
37.317
-0.886054
#DATA
2.000000	 0.082755
2.084000	 0.349589
2.168000	 0.676198
2.252000	 0.420852
2.336000	 -0.058693
2.420000	 -0.047007
2.504000	 -0.022696
2.588000	 0.056403
2.672000	 -0.042299
2.756000	 -0.035268
2.840000	 0.069918
2.924000	 0.131051
3.008000	 0.035270
3.092000	 0.065647
3.176000	 -0.092091
3.260000	 0.050128
3.344000	 0.133099
3.428000	 -0.055166
3.512000	 0.246432
3.596000	 0.165977
3.680000	 -0.077617
3.764000	 0.125034
3.848000	 -0.065835
3.932000	 0.080510
4.016000	 -0.040520
4.100000	 0.030968
4.184000	 0.176395
4.268000	 0.432569
4.352000	 1.010062
4.436000	 2.385098
4.520000	 5.106101
4.604000	 9.178628
4.688000	 14.1425
4.772000	 19.1178
4.856000	 23.5451
4.940000	 27.0449
5.024000	 29.7419
5.108000	 31.7903
5.192000	 33.2244
5.276000	 34.402
5.359999	 35.0899
5.444000	 35.7091
5.528000	 36.0866
5.612000	 36.1957
5.696000	 36.5789
5.780000	 36.4596
5.864000	 36.8079
5.948000	 36.6769
6.032000	 36.8313
6.116000	 37.0384
6.200000	 36.7704
6.284000	 36.9926
6.368000	 37.005
6.452000	 36.7066
6.536000	 36.8936
6.620000	 37.2271
6.704000	 36.8194
6.788000	 36.821
6.872000	 37.0377
6.956000	 36.8219
7.040000	 36.6852
7.124000	 36.8228
7.208000	 37.1191
7.292000	 36.8899
7.376000	 36.4672
7.460000	 36.7455
7.544000	 37.1618
7.628000	 36.8565
7.712000	 36.4632
7.796000	 36.5025
7.880000	 36.9656
7.964000	 37.1025
8.048000	 36.6752
8.132000	 36.3276
8.216000	 36.4935
8.300000	 36.6887
8.384000	 36.998
8.468000	 36.8374
8.552000	 36.3302
8.635999	 36.0502
8.719999	 36.3659
8.804000	 36.7883
8.888000	 36.7913
8.972000	 36.3983
9.056000	 35.8792
9.140000	 36.0407
9.224000	 36.1269
9.308000	 36.6522
9.391999	 36.8341
9.475999	 36.4393
9.560000	 36.1542
9.644000	 35.7764
9.728000	 35.6825
9.812000	 36.0998
9.896000	 36.3292
9.980000	 36.5826
10.064	36.4911
10.148	36.0336
10.232	35.535
10.316	35.386
10.4	35.4671
10.484	35.9154
10.568	36.0718
10.652	36.2602
10.736	36.1116
10.82	35.9808
10.904	35.8121
10.988	35.2639
11.072	34.9715
11.156	34.8178
11.24	35.1742
11.324	35.3847
11.408	35.7611
11.492	36.0479
11.576	35.8028
11.66	35.3752
11.744	34.8725
11.828	34.4392
11.912	34.4121
11.996	34.577
12.08	34.5352
12.164	34.5849
12.248	34.8786
12.332	35.0737
12.416	34.8961
12.5	35.0455
12.584	34.8376
12.668	34.4338
12.752	34.2107
12.836	33.9716
12.92	33.8351
13.004	33.7271
13.088	33.7594
13.172	34.0676
13.256	34.3806
13.34	34.2829
13.424	34.3735
13.508	34.6638
13.592	34.6424
13.676	34.2956
13.76	33.8105
13.844	33.4379
13.928	33.2817
14.012	33.062
14.096	32.7211
14.18	32.466
14.264	32.4019
14.348	32.6608
14.432	33.2539
14.516	33.7089
14.6	33.696
14.684	33.5586
14.768	33.5654
14.852	33.5698
14.936	33.4853
15.02	33.3675
15.104	33.1744
15.188	32.8548
15.272	32.5264
15.356	32.3227
15.44	32.1495
15.524	31.8609
15.608	31.6354
15.692	31.6797
15.776	31.8649
15.86	32.0831
15.944	32.3491
16.028	32.5611
16.112	32.6549
16.196	32.6444
16.28	32.4856
16.364	32.2661
16.448	32.169
16.532	32.0998
16.616	31.8695
16.7	31.5675
16.784	31.3453
16.868	31.1921
16.952	31.0889
17.036	31.0618
17.12	31.0486
17.204	30.9441
17.288	30.7626
17.372	30.6255
17.456	30.6378
17.54	30.818
17.624	31.0802
17.708	31.2552
17.792	31.2061
17.876	30.9591
17.96	30.688
18.044	30.5695
18.128	30.6849
18.212	30.9823
18.296	31.2952
18.38	31.4408
18.464	31.3488
18.548	31.1041
18.632	30.8552
18.716	30.6848
18.8	30.5598
18.884	30.3673
18.968	30.0383
19.052	29.6482
19.136	29.3549
19.22	29.2369
19.304	29.2215
19.388	29.1693
19.472	29.0011
19.556	28.7445
19.64	28.5008
19.724	28.381
19.808	28.4514
19.892	28.696
19.976	29.0123
20.06	29.2614
20.144	29.3448
20.228	29.2536
20.312	29.0678
20.396	28.9102
20.48	28.8989
20.564	29.0872
20.648	29.4232
20.732	29.7591
20.816	29.9252
20.9	29.8398
20.984	29.5528
21.068	29.2088
21.152	28.9599
21.236	28.8771
21.32	28.9108
21.404	28.9297
21.488	28.793
21.572	28.4311
21.656	27.8756
21.74	27.2505
21.824	26.7431
21.908	26.5355
21.992	26.7253
22.076	27.272
22.16	27.9741
22.244	28.5462
22.328	28.7599
22.412	28.5631
22.496	28.1422
22.58	27.7993
22.664	27.8022
22.748	28.257
22.832	29.0617
22.916	29.9655
23	30.7201
23.084	31.1392
23.168	31.137
23.252	30.7395
23.336	30.0334
23.42	29.1302
23.504	28.1439
23.588	27.1921
23.672	26.3948
23.756	25.8722
23.84	25.7373
23.924	26.0895
24.008	26.9657
24.092	28.2714
24.176	29.743
24.26	30.9088
24.344	31.1253
24.428	29.8769
24.512	26.999
24.596	22.833
24.68	18.1628
24.764	13.967
24.848	11.0062
24.932	9.663177
25.016	9.792563
25.1	10.8398
25.184	12.0657
25.268	12.9062
25.352	13.1647
25.436	13.0104
25.52	12.9146
25.604	13.4351
25.688	15.0201
25.772	17.7281
25.856	21.1378
25.94	24.4466
26.024	26.6616
26.108	26.9762
26.192	25.1727
26.276	21.685
26.36	17.4551
26.444	13.6505
26.528	11.1891
26.612	10.4525
26.696	11.0744
26.78	12.0538
26.864	12.1596
26.948	10.6496
27.028	8.088564