Folder: Masteroppgave/Bakgrunnsmateriale/MATLAB/FTIR/ftir_data/LPE453/Mapping_121 (part 47)

File: LPE453_t109.asc
PE IR       SPECTRUM    SPECTRUM    ASCII       PEDS        1.60
  -1
LP9796~1.ASC
17/05/16
23:16:25.00
17/05/16
23:16:51.00
tln
$LPE453_t0109$<tbV0>[-10.4,10.4,8.0,0.0,27,1,0]
27.028
64

2002,4.07
MIRTGS : RIGHTBACK : INTERNAL 2
MIR : ON : INTERNAL 2
OPTKBR

0.200000
8
8.000000
FILLER
RATIO
SPECTRUM
UNLOCKED 256

DOUBLE
64
COMBINED
1
0
0

0.002000
RATIO

1
0
TRUE
51149
0
LEFT NOT FITTED RIGHT NOT FITTED 0
NONE
NONE
15600
12
4.427000
51148
TRUE
1 0 8 72 0 0 0 0

15798

#HDR
-1
-1
#GR
µM
%T
2.38419e-05
0.0
2.000000
0.002000
12515
8
27.9026
-4.461801
#DATA
2.000000	 0.004339
2.084000	 0.188962
2.168000	 0.905298
2.252000	 -1.182225
2.336000	 -0.010083
2.420000	 0.253958
2.504000	 0.024681
2.588000	 0.131792
2.672000	 0.028505
2.756000	 0.026557
2.840000	 0.102754
2.924000	 0.069158
3.008000	 0.147010
3.092000	 0.028662
3.176000	 -0.026803
3.260000	 0.108017
3.344000	 0.106305
3.428000	 0.008197
3.512000	 0.065598
3.596000	 -0.015128
3.680000	 0.033848
3.764000	 -0.048991
3.848000	 0.007884
3.932000	 -0.023234
4.016000	 0.131772
4.100000	 0.073159
4.184000	 -0.080685
4.268000	 0.276620
4.352000	 0.523560
4.436000	 1.198645
4.520000	 2.588583
4.604000	 4.774496
4.688000	 7.790294
4.772000	 10.8427
4.856000	 13.7621
4.940000	 16.1311
5.024000	 18.3827
5.108000	 19.6117
5.192000	 20.9339
5.276000	 21.5414
5.359999	 22.4128
5.444000	 22.6329
5.528000	 23.2122
5.612000	 23.0153
5.696000	 23.7066
5.780000	 23.2131
5.864000	 23.7252
5.948000	 23.4717
6.032000	 23.4537
6.116000	 23.8601
6.200000	 23.2864
6.284000	 23.7204
6.368000	 23.8522
6.452000	 23.265
6.536000	 23.637
6.620000	 23.9212
6.704000	 23.1716
6.788000	 23.5549
6.872000	 23.954
6.956000	 23.4847
7.040000	 23.1782
7.124000	 23.6376
7.208000	 23.6879
7.292000	 23.1777
7.376000	 23.28
7.460000	 23.7492
7.544000	 23.7276
7.628000	 23.25
7.712000	 23.1627
7.796000	 23.6221
7.880000	 23.8495
7.964000	 23.3415
8.048000	 23.1021
8.132000	 23.4286
8.216000	 23.8366
8.300000	 23.9338
8.384000	 23.3803
8.468000	 23.1272
8.552000	 23.2349
8.635999	 23.7985
8.719999	 24.0181
8.804000	 23.6683
8.888000	 23.2051
8.972000	 23.056
9.056000	 23.5374
9.140000	 23.9159
9.224000	 24.1197
9.308000	 23.6403
9.391999	 23.3673
9.475999	 23.3581
9.560000	 23.5481
9.644000	 23.9662
9.728000	 24.2618
9.812000	 24.1467
9.896000	 23.9445
9.980000	 23.598
10.064	23.4451
10.148	23.4508
10.232	23.7965
10.316	24.1904
10.4	24.1626
10.484	24.0618
10.568	23.6778
10.652	23.5063
10.736	23.2845
10.82	23.3588
10.904	23.5896
10.988	24.0968
11.072	24.2875
11.156	24.0804
11.24	23.9993
11.324	23.527
11.408	23.3495
11.492	23.16
11.576	23.2686
11.66	23.4826
11.744	23.7045
11.828	24.0534
11.912	24.2045
11.996	24.2348
12.08	23.9996
12.164	23.7284
12.248	23.5566
12.332	23.2792
12.416	23.1462
12.5	23.2235
12.584	23.5217
12.668	23.8943
12.752	24.0581
12.836	24.0679
12.92	24.0621
13.004	24.0049
13.088	23.8861
13.172	23.6951
13.256	23.4868
13.34	23.2987
13.424	23.0821
13.508	23.0619
13.592	23.2497
13.676	23.5323
13.76	23.6308
13.844	23.6696
13.928	23.7991
14.012	23.9029
14.096	23.9492
14.18	23.8491
14.264	23.5303
14.348	23.1745
14.432	22.9289
14.516	22.8262
14.6	22.8169
14.684	22.8552
14.768	23.0614
14.852	23.267
14.936	23.2298
15.02	23.2739
15.104	23.5801
15.188	23.7224
15.272	23.6135
15.356	23.5939
15.44	23.6529
15.524	23.6366
15.608	23.6021
15.692	23.4924
15.776	23.1849
15.86	22.8104
15.944	22.5304
16.028	22.3637
16.112	22.3452
16.196	22.4745
16.28	22.6249
16.364	22.7226
16.448	22.8341
16.532	23.0135
16.616	23.2213
16.7	23.4068
16.784	23.5559
16.868	23.6311
16.952	23.589
17.036	23.4761
17.12	23.4113
17.204	23.4253
17.288	23.3905
17.372	23.1769
17.456	22.8342
17.54	22.5432
17.624	22.4174
17.708	22.4232
17.792	22.4686
17.876	22.4826
17.96	22.4289
18.044	22.3295
18.128	22.2839
18.212	22.3912
18.296	22.6378
18.38	22.897
18.464	23.0335
18.548	23.0034
18.632	22.8621
18.716	22.7199
18.8	22.6717
18.884	22.7313
18.968	22.8265
19.052	22.8646
19.136	22.8037
19.22	22.6775
19.304	22.5768
19.388	22.5838
19.472	22.692
19.556	22.7859
19.64	22.7289
19.724	22.4887
19.808	22.1739
19.892	21.9233
19.976	21.7832
20.06	21.6878
20.144	21.5678
20.228	21.442
20.312	21.3985
20.396	21.4875
20.48	21.6598
20.564	21.813
20.648	21.8975
20.732	21.9694
20.816	22.1411
20.9	22.4743
20.984	22.922
21.068	23.3575
21.152	23.6575
21.236	23.7637
21.32	23.6889
21.404	23.476
21.488	23.1633
21.572	22.793
21.656	22.4276
21.74	22.1521
21.824	22.0381
21.908	22.0938
21.992	22.251
22.076	22.3974
22.16	22.4327
22.244	22.3238
22.328	22.0788
22.412	21.715
22.496	21.2337
22.58	20.6506
22.664	20.0388
22.748	19.541
22.832	19.3054
22.916	19.423
23	19.8555
23.084	20.4857
23.168	21.1636
23.252	21.774
23.336	22.2427
23.42	22.5147
23.504	22.5129
23.588	22.1578
23.672	21.4203
23.756	20.3807
23.84	19.2585
23.924	18.3299
24.008	17.8079
24.092	17.7661
24.176	18.1256
24.26	18.7313
24.344	19.472
24.428	20.3524
24.512	21.4384
24.596	22.7707
24.68	24.2678
24.764	25.6896
24.848	26.6972
24.932	26.9897
25.016	26.4671
25.1	25.2586
25.184	23.5773
25.268	21.5923
25.352	19.3769
25.436	16.9102
25.52	14.181
25.604	11.2975
25.688	8.480734
25.772	6.074641
25.856	4.489041
25.94	4.120158
26.024	5.250923
26.108	7.886891
26.192	11.7019
26.276	16.0015
26.36	19.7801
26.444	21.9853
26.528	21.8751
26.612	19.2195
26.696	14.4813
26.78	8.756612
26.864	3.491395
26.948	0.031782
27.028	-0.828671

File: LPE453_t109_cm-1.asc
PE IR       SPECTRUM    SPECTRUM    ASCII       PEDS        1.60
  -1
LP0C78~1.ASC
17/05/16
23:16:25.00
17/05/16
23:16:25.00
tln
$LPE453_t0109$<tbV0>[-10.4,10.4,8.0,0.0,27,1,0]
370
64

2002,4.07
MIRTGS : RIGHTBACK : INTERNAL 2
MIR : ON : INTERNAL 2
OPTKBR

0.200000
8
8.000000
FILLER
RATIO
SPECTRUM
UNLOCKED 256

DOUBLE
64
COMBINED
1
0
0

1.000000
RATIO

1
0
TRUE
51149
0
LEFT NOT FITTED RIGHT NOT FITTED 0
NONE
NONE
15600
12
4.427000
51148
TRUE
1 0 8 72 0 0 0 0

15798

#HDR
-1
-1
#GR
CM-1
%T
2.38419e-05
0.0
5000
-1.000000
4631
8
29.0646
-5.376911
#DATA
5000	0.004339
4984	0.025200
4968	-0.094199
4952	0.231242
4936	0.246214
4920	-0.019526
4904	0.006961
4888	0.386118
4872	0.310993
4856	0.391149
4840	0.355195
4824	0.056242
4808	0.072145
4792	0.543212
4776	0.125217
4760	-0.156402
4744	-0.008964
4728	0.050687
4712	-0.265264
4696	0.581002
4680	-1.167154
4664	0.868034
4648	0.098228
4632	-1.005434
4616	1.376175
4600	1.018953
4584	0.652766
4568	0.347948
4552	-0.846052
4536	-0.974178
4520	0.247812
4504	0.624299
4488	6.428456
4472	0.654387
4456	-0.826191
4440	-1.194334
4424	-1.392006
4408	0.545048
4392	0.798463
4376	0.145769
4360	-0.035429
4344	0.478172
4328	0.654554
4312	0.208067
4296	0.044250
4280	0.025773
4264	0.439286
4248	0.052285
4232	-0.305223
4216	0.080657
4200	-0.116348
4184	0.307893
4168	0.249505
4152	0.312376
4136	0.366139
4120	0.209712
4104	0.255823
4088	-0.016927
4072	-0.142335
4056	0.161767
4040	0.129795
4024	-0.114297
4008	0.291728
3992	-0.040626
3976	0.050640
3960	0.029206
3944	0.178956
3928	0.025200
3912	-0.056457
3896	0.186729
3880	-0.052928
3864	0.131678
3848	0.139570
3832	-0.038576
3816	0.095224
3800	-0.000405
3784	-0.008106
3768	0.015687
3752	-0.150513
3736	0.052404
3720	0.009179
3704	0.181913
3688	-0.015616
3672	-0.043511
3656	0.110149
3640	-0.096726
3624	-0.001668
3608	-0.006771
3592	-0.013351
3576	-0.053739
3560	0.125384
3544	0.014328
3528	0.071740
3512	0.246262
3496	0.152564
3480	0.014448
3464	0.021123
3448	-0.084972
3432	0.006580
3416	0.089216
3400	-0.041341
3384	0.266623
3368	0.027942
3352	0.062465
3336	0.171494
3320	0.084280
3304	0.092148
3288	0.101113
3272	0.112175
3256	0.018835
3240	-0.041031
3224	0.077891
3208	0.029516
3192	-0.021743
3176	0.071573
3160	0.001120
3144	-0.015473
3128	0.028467
3112	0.026726
3096	0.024199
3080	-0.065898
3064	0.129938
3048	0.095224
3032	0.141906
3016	0.077819
3000	0.141334
2984	0.149106
2968	-0.101041
2952	0.013566
2936	0.107097
2920	-0.034976
2904	0.072717
2888	0.046491
2872	0.051283
2856	-0.016212
2840	0.008106
2824	-0.013828
2808	-0.046253
2792	0.025391
2776	-0.018358
2760	0.033617
2744	-0.003314
2728	0.046586
2712	0.043487
2696	0.045347
2680	-0.042438
2664	-0.002646
2648	0.072336
2632	0.019407
2616	0.095796
2600	-0.004935
2584	-0.007486
2568	0.106477
2552	-0.006079
2536	-0.014281
2520	0.070142
2504	0.033068
2488	0.151729
2472	-0.044083
2456	0.096225
2440	0.057220
2424	0.053119
2408	0.167369
2392	-0.082683
2376	0.013494
2360	0.084686
2344	0.276827
2328	0.218605
2312	0.407099
2296	0.524759
2280	0.717496
2264	0.988578
2248	1.396417
2232	1.727485
2216	2.477836
2200	3.175044
2184	3.967905
2168	5.059576
2152	6.231117
2136	7.533931
2120	8.738660
2104	10.1883
2088	11.5179
2072	12.8293
2056	13.9266
2040	15.2118
2024	16.1431
2008	17.1888
1992	18.3222
1976	18.9557
1960	19.4932
1944	20.2974
1928	20.9186
1912	21.1507
1896	21.5147
1880	22.2035
1864	22.4064
1848	22.3489
1832	22.7716
1816	23.2088
1800	23.1
1784	22.9743
1768	23.412
1752	23.661
1736	23.3021
1720	23.31
1704	23.7386
1688	23.6689
1672	23.2532
1656	23.4743
1640	23.8794
1624	23.5932
1608	23.2572
1592	23.7
1576	23.85
1560	23.5471
1544	23.2929
1528	23.728
1512	23.945
1496	23.2966
1480	23.4464
1464	23.8168
1448	23.8548
1432	23.1302
1416	23.2638
1400	23.7808
1384	23.6412
1368	23.1031
1352	23.4166
1336	23.8747
1320	23.626
1304	23.0955
1288	23.4254
1272	23.8559
1256	23.3581
1240	23.1191
1224	23.6492
1208	23.9939
1192	23.3453
1176	23.1522
1160	23.6486
1144	23.936
1128	23.3219
1112	23.1028
1096	23.9221
1080	23.9941
1064	23.3498
1048	23.4614
1032	24.1902
1016	24.0682
1000	23.5456
984	 23.4948
968	 24.2206
952	 23.9669
936	 23.3997
920	 23.4787
904	 24.3077
888	 23.8735
872	 23.1872
856	 23.5202
840	 24.1914
824	 23.8163
808	 23.1747
792	 23.7162
776	 24.0693
760	 23.7333
744	 23.0588
728	 23.623
712	 23.929
696	 23.1049
680	 22.8907
664	 23.408
648	 23.6501
632	 22.9701
616	 22.5478
600	 23.3369
584	 23.4107
568	 22.4308
552	 22.2824
536	 22.815
520	 22.6611
504	 22.061
488	 21.6845
472	 23.7251
456	 22.129
440	 19.6445
424	 22.1777
408	 21.4068
392	 14.5095
376	 19.917
370	 -0.828671

File: LPE453_t110.asc
PE IR       SPECTRUM    SPECTRUM    ASCII       PEDS        1.60
  -1
LP9378~1.ASC
17/05/16
23:21:02.00
17/05/16
23:21:28.00
tln
$LPE453_t0110$<tbV0>[-13.0,10.4,8.0,0.0,27,1,0]
27.028
64

2002,4.07
MIRTGS : RIGHTBACK : INTERNAL 2
MIR : ON : INTERNAL 2
OPTKBR

0.200000
8
8.000000
FILLER
RATIO
SPECTRUM
UNLOCKED 256

DOUBLE
64
COMBINED
1
0
0

0.002000
RATIO

1
0
TRUE
51149
0
LEFT NOT FITTED RIGHT NOT FITTED 0
NONE
NONE
15600
12
4.427000
51148
TRUE
1 0 8 72 0 0 0 0

15798

#HDR
-1
-1
#GR
µM
%T
2.38419e-05
0.0
2.000000
0.002000
12515
8
33.7663
-14.2751
#DATA
2.000000	 0.098323
2.084000	 0.123066
2.168000	 2.600772
2.252000	 0.313431
2.336000	 0.181453
2.420000	 0.541560
2.504000	 0.060909
2.588000	 0.156331
2.672000	 0.179528
2.756000	 -0.143775
2.840000	 0.035890
2.924000	 -0.113652
3.008000	 0.055896
3.092000	 -0.028508
3.176000	 0.138092
3.260000	 0.099668
3.344000	 0.043924
3.428000	 0.128512
3.512000	 -0.103918
3.596000	 0.077611
3.680000	 0.039168
3.764000	 0.018441
3.848000	 0.036367
3.932000	 -0.008368
4.016000	 -0.043529
4.100000	 -0.010104
4.184000	 0.029283
4.268000	 0.053234
4.352000	 0.459231
4.436000	 1.222102
4.520000	 2.859565
4.604000	 5.458781
4.688000	 8.928576
4.772000	 13.117
4.856000	 16.9922
4.940000	 20.2469
5.024000	 23.0079
5.108000	 25.1171
5.192000	 26.7245
5.276000	 27.91
5.359999	 28.843
5.444000	 29.5491
5.528000	 30.2444
5.612000	 30.5353
5.696000	 30.9215
5.780000	 31.1882
5.864000	 31.4432
5.948000	 31.6004
6.032000	 31.6914
6.116000	 31.9762
6.200000	 31.9344
6.284000	 32.2365
6.368000	 32.3357
6.452000	 32.3486
6.536000	 32.501
6.620000	 32.5472
6.704000	 32.3925
6.788000	 32.6795
6.872000	 32.5934
6.956000	 32.5849
7.040000	 32.6796
7.124000	 32.7508
7.208000	 32.4947
7.292000	 32.5749
7.376000	 32.8209
7.460000	 32.7571
7.544000	 32.7157
7.628000	 32.7575
7.712000	 32.6069
7.796000	 32.7703
7.880000	 32.6475
7.964000	 32.4932
8.048000	 32.5568
8.132000	 32.7308
8.216000	 32.6205
8.300000	 32.3524
8.384000	 32.231
8.468000	 32.3639
8.552000	 32.3742
8.635999	 32.283
8.719999	 32.1075
8.804000	 31.979
8.888000	 31.9378
8.972000	 31.9441
9.056000	 31.9701
9.140000	 31.5759
9.224000	 31.6011
9.308000	 31.3626
9.391999	 31.3732
9.475999	 31.4206
9.560000	 31.5893
9.644000	 31.3339
9.728000	 31.0526
9.812000	 30.8845
9.896000	 30.589
9.980000	 30.7009
10.064	30.9459
10.148	30.9139
10.232	30.6466
10.316	30.526
10.4	30.3542
10.484	30.3957
10.568	30.2095
10.652	30.0797
10.736	30.1363
10.82	30.0651
10.904	29.8554
10.988	29.6366
11.072	29.3677
11.156	29.2238
11.24	29.1871
11.324	29.2108
11.408	29.2315
11.492	29.1676
11.576	29.1049
11.66	28.9606
11.744	28.7802
11.828	28.6817
11.912	28.6006
11.996	28.4682
12.08	28.0845
12.164	28.0827
12.248	28.3225
12.332	28.4428
12.416	28.2363
12.5	27.9175
12.584	27.6931
12.668	27.6441
12.752	27.6419
12.836	27.5432
12.92	27.403
13.004	27.3469
13.088	27.2864
13.172	27.4184
13.256	27.5305
13.34	27.3606
13.424	27.1679
13.508	27.0887
13.592	27.058
13.676	26.8765
13.76	26.6404
13.844	26.5098
13.928	26.4244
14.012	26.2695
14.096	26.0964
14.18	25.9785
14.264	26.0216
14.348	26.2571
14.432	26.4801
14.516	26.4599
14.6	26.2387
14.684	26.0914
14.768	26.0543
14.852	25.9051
14.936	25.624
15.02	25.4391
15.104	25.3828
15.188	25.2819
15.272	25.1976
15.356	25.2743
15.44	25.3781
15.524	25.3203
15.608	25.1744
15.692	25.1759
15.776	25.3568
15.86	25.4813
15.944	25.4535
16.028	25.3982
16.112	25.3206
16.196	25.0934
16.28	24.6994
16.364	24.2839
16.448	24.0485
16.532	24.0526
16.616	24.1279
16.7	24.0886
16.784	23.9337
16.868	23.7745
16.952	23.7158
17.036	23.8429
17.12	24.1392
17.204	24.4044
17.288	24.4274
17.372	24.2404
17.456	24.0644
17.54	24.0321
17.624	24.0831
17.708	24.1125
17.792	24.1123
17.876	24.1536
17.96	24.2632
18.044	24.3619
18.128	24.3348
18.212	24.1444
18.296	23.8572
18.38	23.5819
18.464	23.389
18.548	23.2803
18.632	23.2139
18.716	23.1575
18.8	23.1096
18.884	23.0835
18.968	23.0926
19.052	23.1531
19.136	23.2622
19.22	23.3751
19.304	23.4311
19.388	23.4141
19.472	23.367
19.556	23.3451
19.64	23.3568
19.724	23.3599
19.808	23.3094
19.892	23.1945
19.976	23.0457
20.06	22.9204
20.144	22.8678
20.228	22.9044
20.312	22.9995
20.396	23.081
20.48	23.0564
20.564	22.8633
20.648	22.524
20.732	22.1613
20.816	21.9305
20.9	21.9046
20.984	21.9991
21.068	22.0258
21.152	21.8393
21.236	21.4586
21.32	21.0543
21.404	20.82
21.488	20.8345
21.572	21.037
21.656	21.3037
21.74	21.5415
21.824	21.7288
21.908	21.8813
21.992	21.9957
22.076	22.0415
22.16	21.9957
22.244	21.8973
22.328	21.8329
22.412	21.873
22.496	22.0177
22.58	22.1971
22.664	22.3259
22.748	22.367
22.832	22.3495
22.916	22.3313
23	22.3595
23.084	22.4309
23.168	22.4978
23.252	22.4993
23.336	22.3757
23.42	22.0908
23.504	21.6336
23.588	21.0556
23.672	20.4769
23.756	20.0667
23.84	19.9751
23.924	20.2699
24.008	20.8939
24.092	21.6649
24.176	22.3364
24.26	22.6702
24.344	22.4901
24.428	21.7556
24.512	20.5564
24.596	19.1023
24.68	17.6582
24.764	16.4546
24.848	15.6309
24.932	15.2077
25.016	15.0854
25.1	15.0852
25.184	15.0597
25.268	14.9531
25.352	14.7661
25.436	14.6284
25.52	14.7011
25.604	15.0549
25.688	15.7324
25.772	16.6792
25.856	17.7341
25.94	18.7427
26.024	19.6207
26.108	20.3986
26.192	21.1753
26.276	22.104
26.36	23.3658
26.444	25.0815
26.528	27.2093
26.612	29.6021
26.696	31.8699
26.78	33.434
26.864	33.6746
26.948	32.086
27.028	28.6866

File: LPE453_t110_cm-1.asc
PE IR       SPECTRUM    SPECTRUM    ASCII       PEDS        1.60
  -1
LP03FC~1.ASC
17/05/16
23:21:02.00
17/05/16
23:21:02.00
tln
$LPE453_t0110$<tbV0>[-13.0,10.4,8.0,0.0,27,1,0]
370
64

2002,4.07
MIRTGS : RIGHTBACK : INTERNAL 2
MIR : ON : INTERNAL 2
OPTKBR

0.200000
8
8.000000
FILLER
RATIO
SPECTRUM
UNLOCKED 256

DOUBLE
64
COMBINED
1
0
0

1.000000
RATIO

1
0
TRUE
51149
0
LEFT NOT FITTED RIGHT NOT FITTED 0
NONE
NONE
15600
12
4.427000
51148
TRUE
1 0 8 72 0 0 0 0

15798

#HDR
-1
-1
#GR
CM-1
%T
2.38419e-05
0.0
5000
-1.000000
4631
8
33.6948
-14.6998
#DATA
5000	0.098323
4984	0.144219
4968	0.178694
4952	0.315904
4936	0.015234
4920	0.495243
4904	0.259780
4888	0.604963
4872	0.383830
4856	0.489854
4840	0.310254
4824	0.052523
4808	0.118541
4792	0.188040
4776	-0.093841
4760	0.156426
4744	0.199532
4728	0.189304
4712	0.393867
4696	0.470161
4680	-0.550031
4664	-0.266480
4648	0.081372
4632	1.161813
4616	2.089953
4600	2.442836
4584	0.922918
4568	0.823545
4552	0.380492
4536	1.058888
4520	-0.494003
4504	-11.8178
4488	22.4188
4472	0.383329
4456	0.364613
4440	0.348687
4424	0.180816
4408	0.129461
4392	0.540065
4376	0.201082
4360	0.337696
4344	0.557279
4328	-0.172066
4312	0.335502
4296	0.320601
4280	0.187540
4264	0.152516
4248	0.059199
4232	0.284290
4216	0.159502
4200	0.420212
4184	0.102996
4168	0.292205
4152	0.179862
4136	0.502514
4120	0.146532
4104	0.089430
4088	-0.113606
4072	-0.189542
4056	0.044989
4040	0.033211
4024	0.161194
4008	0.104427
3992	-0.055932
3976	-0.202322
3960	-0.009346
3944	-0.002408
3928	0.099325
3912	0.005793
3896	0.112295
3880	-0.024795
3864	0.156211
3848	-0.001120
3832	0.255036
3816	-0.092029
3800	-0.073027
3784	0.018024
3768	0.078582
3752	0.237870
3736	0.233483
3720	0.270724
3704	-0.023818
3688	0.097298
3672	0.019192
3656	0.097846
3640	0.079870
3624	-0.123405
3608	0.151324
3592	0.056648
3576	0.027871
3560	-0.035071
3544	0.073909
3528	0.038552
3512	0.233650
3496	-0.079226
3480	0.058102
3464	0.124144
3448	-0.056219
3432	0.203943
3416	-0.008273
3400	0.133442
3384	0.005674
3368	0.073528
3352	0.055670
3336	0.002312
3320	-0.057005
3304	0.177049
3288	0.166368
3272	0.161933
3256	0.031232
3240	-0.044631
3224	-0.065684
3208	0.098729
3192	0.019979
3176	0.228190
3160	0.021171
3144	0.115704
3128	0.152659
3112	-0.045514
3096	-0.008916
3080	0.021338
3064	0.161314
3048	0.085973
3032	0.152969
3016	0.075244
3000	0.108480
2984	-0.017905
2968	0.012707
2952	0.145745
2936	0.112009
2920	0.088477
2904	0.134730
2888	0.065612
2872	0.066685
2856	-0.117731
2840	0.016236
2824	0.039863
2808	-0.102496
2792	0.100755
2776	0.046801
2760	0.020384
2744	-0.019335
2728	0.066184
2712	-0.004196
2696	0.000619
2680	0.050854
2664	0.048923
2648	0.003314
2632	-0.031208
2616	0.001382
2600	0.035214
2584	0.001335
2568	0.085043
2552	-0.097322
2536	0.090932
2520	-0.036644
2504	0.057983
2488	-0.034213
2472	-0.050425
2456	0.047421
2440	-0.019645
2424	-0.142598
2408	0.151252
2392	0.005340
2376	0.116562
2360	0.141429
2344	0.048255
2328	0.203108
2312	0.305986
2296	0.444006
2280	0.657320
2264	0.988507
2248	1.400017
2232	1.985692
2216	2.657914
2200	3.523373
2184	4.610252
2168	5.809473
2152	7.210612
2136	8.637380
2120	10.5162
2104	12.2445
2088	13.9401
2072	15.4534
2056	17.3203
2040	18.9098
2024	20.2718
2008	21.6712
1992	22.8969
1976	23.9943
1960	25.0128
1944	25.7295
1928	26.6324
1912	27.2317
1896	27.8907
1880	28.3803
1864	28.8778
1848	29.2899
1832	29.702
1816	30.031
1800	30.2997
1784	30.4978
1768	30.7322
1752	30.9436
1736	31.0581
1720	31.3814
1704	31.4478
1688	31.6643
1672	31.576
1656	31.7103
1640	31.891
1624	32.0067
1608	31.9962
1592	32.2339
1576	32.2815
1560	32.3075
1544	32.3977
1528	32.5058
1512	32.5729
1496	32.3562
1480	32.5945
1464	32.5943
1448	32.5943
1432	32.5626
1416	32.6624
1400	32.6675
1384	32.492
1368	32.583
1352	32.8501
1336	32.79
1320	32.7106
1304	32.6335
1288	32.7159
1272	32.6676
1256	32.4976
1240	32.5586
1224	32.6743
1208	32.3903
1192	32.2436
1176	32.3335
1160	32.3187
1144	32.1448
1128	31.9252
1112	32.0022
1096	31.6149
1080	31.4976
1064	31.3805
1048	31.6178
1032	31.1727
1016	30.7621
1000	30.7346
984	 30.874
968	 30.5153
952	 30.4137
936	 30.0763
920	 29.9178
904	 29.3936
888	 29.1925
872	 29.1839
856	 28.9136
840	 28.6038
824	 28.0269
808	 28.3758
792	 27.6464
776	 27.45
760	 27.3821
744	 27.141
728	 26.7
712	 26.1989
696	 26.3213
680	 26.079
664	 25.4076
648	 25.3738
632	 25.4471
616	 24.9312
600	 24.1223
584	 24.1517
568	 24.0712
552	 24.3491
536	 23.1969
520	 23.3865
504	 23.2709
488	 23.0401
472	 21.699
456	 21.9155
440	 22.3642
424	 21.0775
408	 20.5917
392	 14.6788
376	 29.1374
370	 28.6866

File: LPE453_t111.asc
PE IR       SPECTRUM    SPECTRUM    ASCII       PEDS        1.60
  -1
LP9778~1.ASC
17/05/16
23:31:51.00
17/05/16
23:32:18.00
tln
$LPE453_t0111$<tbV0>[13.0,13.0,8.0,0.0,27,1,0]
27.028
64

2002,4.07
MIRTGS : RIGHTBACK : INTERNAL 2
MIR : ON : INTERNAL 2
OPTKBR

0.200000
8
8.000000
FILLER
RATIO
SPECTRUM
UNLOCKED 256

DOUBLE
64
COMBINED
1
0
0

0.002000
RATIO

1
0
TRUE
51149
0
LEFT NOT FITTED RIGHT NOT FITTED 0
NONE
NONE
15600
12
4.427000
51148
TRUE
1 0 8 72 0 0 0 0

15798

#HDR
-1
-1
#GR
µM
%T
2.38419e-05
0.0
2.000000
0.002000
12515
8
19.741
-6.063604
#DATA
2.000000	 -0.153827
2.084000	 0.418221
2.168000	 0.013509
2.252000	 -0.597435
2.336000	 0.079335
2.420000	 0.104724
2.504000	 -0.360725
2.588000	 -0.172549
2.672000	 -0.072773
2.756000	 0.069944
2.840000	 0.125398
2.924000	 0.071572
3.008000	 -0.032923
3.092000	 0.037288
3.176000	 0.035211
3.260000	 0.041353
3.344000	 0.009733
3.428000	 0.144329
3.512000	 -0.054308
3.596000	 -0.035850
3.680000	 -0.003834
3.764000	 0.028841
3.848000	 0.028223
3.932000	 -0.054950
4.016000	 0.105053
4.100000	 0.052160
4.184000	 0.041953
4.268000	 -0.032194
4.352000	 -0.018043
4.436000	 0.103701
4.520000	 0.445906
4.604000	 1.287946
4.688000	 2.730010
4.772000	 4.730860
4.856000	 7.086703
4.940000	 9.361014
5.024000	 11.2726
5.108000	 13.0036
5.192000	 14.3381
5.276000	 15.6839
5.359999	 16.5027
5.444000	 17.0993
5.528000	 17.7308
5.612000	 18.1509
5.696000	 18.4786
5.780000	 18.7426
5.864000	 18.8671
5.948000	 19.2011
6.032000	 19.2813
6.116000	 19.4445
6.200000	 19.4336
6.284000	 19.4868
6.368000	 19.6819
6.452000	 19.6419
6.536000	 19.6298
6.620000	 19.6979
6.704000	 19.4914
6.788000	 19.4245
6.872000	 19.6464
6.956000	 19.6503
7.040000	 19.5761
7.124000	 19.515
7.208000	 19.4281
7.292000	 19.4134
7.376000	 19.441
7.460000	 19.4178
7.544000	 19.353
7.628000	 19.2346
7.712000	 19.1292
7.796000	 19.0294
7.880000	 19.0323
7.964000	 18.9241
8.048000	 18.6333
8.132000	 18.5127
8.216000	 18.5426
8.300000	 18.5894
8.384000	 18.3811
8.468000	 18.335
8.552000	 18.1623
8.635999	 18.2541
8.719999	 18.1462
8.804000	 18.1232
8.888000	 17.9431
8.972000	 17.6793
9.056000	 17.7952
9.140000	 17.5664
9.224000	 17.4162
9.308000	 17.2359
9.391999	 17.3006
9.475999	 17.1244
9.560000	 17.1616
9.644000	 16.9753
9.728000	 16.8986
9.812000	 16.7408
9.896000	 16.7094
9.980000	 16.6387
10.064	16.6758
10.148	16.466
10.232	16.2881
10.316	16.174
10.4	16.2294
10.484	16.077
10.568	15.9875
10.652	16.0123
10.736	15.9175
10.82	15.8447
10.904	15.7
10.988	15.465
11.072	15.454
11.156	15.3814
11.24	15.4001
11.324	15.3937
11.408	15.1541
11.492	14.91
11.576	14.8217
11.66	14.8295
11.744	14.7977
11.828	14.8364
11.912	14.7589
11.996	14.5153
12.08	14.4164
12.164	14.4538
12.248	14.6634
12.332	14.2829
12.416	14.1365
12.5	14.1944
12.584	14.0283
12.668	14.0438
12.752	13.9776
12.836	13.8749
12.92	13.7498
13.004	13.4799
13.088	13.4406
13.172	13.563
13.256	13.494
13.34	13.375
13.424	13.2968
13.508	13.202
13.592	13.1342
13.676	13.1494
13.76	13.1266
13.844	13.0266
13.928	12.8677
14.012	12.8073
14.096	12.7823
14.18	12.6945
14.264	12.7291
14.348	12.8244
14.432	12.6995
14.516	12.44
14.6	12.3016
14.684	12.2911
14.768	12.2607
14.852	12.1033
14.936	11.8741
15.02	11.664
15.104	11.4954
15.188	11.4199
15.272	11.445
15.356	11.487
15.44	11.4609
15.524	11.3024
15.608	11.0839
15.692	11.0069
15.776	11.1026
15.86	11.2039
15.944	11.2188
16.028	11.214
16.112	11.2498
16.196	11.2779
16.28	11.2147
16.364	11.0453
16.448	10.8593
16.532	10.7701
16.616	10.7538
16.7	10.6752
16.784	10.5116
16.868	10.3807
16.952	10.3471
17.036	10.3513
17.12	10.3082
17.204	10.2037
17.288	10.1229
17.372	10.1664
17.456	10.3106
17.54	10.4217
17.624	10.4151
17.708	10.3171
17.792	10.1925
17.876	10.1094
17.96	10.1139
18.044	10.1395
18.128	10.0155
18.212	9.682671
18.296	9.312148
18.38	9.116309
18.464	9.128885
18.548	9.236320
18.632	9.336147
18.716	9.374602
18.8	9.301110
18.884	9.107180
18.968	8.881449
19.052	8.747166
19.136	8.751131
19.22	8.846135
19.304	8.967715
19.388	9.091020
19.472	9.216841
19.556	9.333272
19.64	9.407496
19.724	9.398745
19.808	9.286710
19.892	9.099409
19.976	8.897182
20.06	8.724715
20.144	8.583858
20.228	8.457124
20.312	8.346880
20.396	8.278769
20.48	8.276825
20.564	8.339611
20.648	8.444923
20.732	8.561609
20.816	8.652418
20.9	8.671528
20.984	8.589465
21.068	8.424402
21.152	8.245197
21.236	8.129746
21.32	8.106191
21.404	8.130885
21.488	8.129214
21.572	8.062381
21.656	7.966916
21.74	7.918935
21.824	7.960096
21.908	8.044748
21.992	8.074365
22.076	7.978424
22.16	7.765460
22.244	7.521600
22.328	7.337503
22.412	7.253667
22.496	7.245131
22.58	7.255128
22.664	7.235306
22.748	7.161056
22.832	7.016682
22.916	6.782395
23	6.459267
23.084	6.059176
23.168	5.613156
23.252	5.155557
23.336	4.701793
23.42	4.255080
23.504	3.840186
23.588	3.498981
23.672	3.279475
23.756	3.232157
23.84	3.364890
23.924	3.648276
24.008	4.030633
24.092	4.448761
24.176	4.836046
24.26	5.106349
24.344	5.137415
24.428	4.789390
24.512	3.902240
24.596	2.389850
24.68	0.326405
24.764	-1.999872
24.848	-4.167567
24.932	-5.656285
25.016	-6.039076
25.1	-5.147200
25.184	-3.046336
25.268	-0.032162
25.352	3.451721
25.436	6.855246
25.52	9.659209
25.604	11.4975
25.688	12.2392
25.772	12.0437
25.856	11.2763
25.94	10.4065
26.024	9.855021
26.108	9.833159
26.192	10.3701
26.276	11.334
26.36	12.5302
26.444	13.6691
26.528	14.4055
26.612	14.3658
26.696	13.2539
26.78	10.9599
26.864	7.663076
26.948	3.770601
27.028	-0.041055