Folder: Masteroppgave/Bakgrunnsmateriale/MATLAB/FTIR/ftir_data/LPE453/Mapping_121 (part 20)

File: LPE453_t41_cm-1.asc
PE IR       SPECTRUM    SPECTRUM    ASCII       PEDS        1.60
  -1
LP59D5~1.ASC
17/05/16
17:40:53.00
17/05/16
17:40:53.00
tln
$LPE453_t0041$<tbV0>[-5.2,-5.2,8.0,0.0,27,1,0]
370
64

2002,4.07
MIRTGS : RIGHTBACK : INTERNAL 2
MIR : ON : INTERNAL 2
OPTKBR

0.200000
8
8.000000
FILLER
RATIO
SPECTRUM
UNLOCKED 256

DOUBLE
64
COMBINED
1
0
0

1.000000
RATIO

1
0
TRUE
51149
0
LEFT NOT FITTED RIGHT NOT FITTED 0
NONE
NONE
15600
12
4.427000
51148
TRUE
1 0 8 72 0 0 0 0

15798

#HDR
-1
-1
#GR
CM-1
%T
2.38419e-05
0.0
5000
-1.000000
4631
8
35.904
-37.5846
#DATA
5000	0.154805
4984	-0.085330
4968	0.734615
4952	-0.122189
4936	-0.342082
4920	0.139260
4904	0.248599
4888	0.017905
4872	0.810647
4856	-0.043988
4840	0.069355
4824	0.082826
4808	-0.080680
4792	0.204086
4776	-0.035047
4760	0.066041
4744	0.326418
4728	-0.005602
4712	0.171256
4696	0.240826
4680	0.401473
4664	0.309586
4648	0.274229
4632	0.357031
4616	0.180482
4600	-0.332880
4584	0.515961
4568	-0.023794
4552	-1.213884
4536	-1.921749
4520	5.980396
4504	0.009417
4488	-1.313066
4472	-0.418996
4456	-0.559592
4440	-0.073027
4424	-0.254487
4408	0.365447
4392	0.428748
4376	0.394058
4360	-0.024628
4344	-0.279784
4328	0.264167
4312	-0.323271
4296	-0.025057
4280	0.031375
4264	-0.088024
4248	-0.230121
4232	0.049972
4216	-0.096058
4200	0.167989
4184	0.665879
4168	0.064945
4152	0.119256
4136	0.100159
4120	-0.124597
4104	-0.053811
4088	0.131201
4072	0.013422
4056	0.196266
4040	-0.006175
4024	0.097203
4008	0.190210
3992	0.022745
3976	0.036573
3960	0.115513
3944	-0.104260
3928	0.069236
3912	-0.007247
3896	-0.017952
3880	-0.152277
3864	0.009226
3848	0.291490
3832	0.159287
3816	0.007987
3800	0.043010
3784	-0.027132
3768	0.203537
3752	0.073409
3736	-0.185227
3720	0.132179
3704	-0.034356
3688	0.199961
3672	0.080275
3656	0.333571
3640	0.056838
3624	0.044584
3608	0.290083
3592	0.051188
3576	0.196743
3560	0.216412
3544	0.064373
3528	0.117778
3512	0.130295
3496	0.043964
3480	0.075912
3464	0.227046
3448	0.071930
3432	0.004863
3416	0.011849
3400	0.125360
3384	0.086379
3368	0.116491
3352	-0.010418
3336	0.108313
3320	-0.141406
3304	0.108361
3288	0.056743
3272	0.063014
3256	0.139284
3240	0.210428
3224	-0.077819
3208	-0.019860
3192	0.208210
3176	0.010228
3160	-0.016999
3144	0.090169
3128	0.125646
3112	0.291872
3096	0.043416
3080	-0.133299
3064	-0.027465
3048	0.038146
3032	0.033211
3016	0.023698
3000	-0.082635
2984	0.019145
2968	0.085854
2952	-0.011539
2936	-0.016617
2920	-0.002479
2904	0.103831
2888	0.110435
2872	0.024914
2856	0.212240
2840	0.118994
2824	0.021052
2808	0.089764
2792	0.034666
2776	0.041604
2760	-0.096702
2744	-0.075268
2728	-0.052642
2712	0.066876
2696	0.047588
2680	0.038146
2664	0.044059
2648	0.044107
2632	-0.018930
2616	0.030112
2600	0.102210
2584	0.011634
2568	-0.039815
2552	0.062966
2536	0.041365
2520	0.053668
2504	0.112724
2488	0.247645
2472	0.006413
2456	0.072193
2440	-0.039219
2424	-0.198650
2408	0.135445
2392	0.004458
2376	0.088930
2360	0.074648
2344	0.062417
2328	0.267744
2312	0.351953
2296	0.450396
2280	0.654244
2264	1.145100
2248	1.631784
2232	2.066564
2216	3.056788
2200	4.127383
2184	5.425262
2168	7.160043
2152	8.928704
2136	10.7888
2120	12.8613
2104	14.8001
2088	17.0761
2072	19.2472
2056	21.0173
2040	22.8105
2024	24.6582
2008	26.0397
1992	27.2763
1976	28.7182
1960	29.6899
1944	30.6072
1928	31.4546
1912	32.2413
1896	32.7122
1880	33.3518
1864	33.848
1848	34.1923
1832	34.4284
1816	34.8209
1800	34.9185
1784	35.0918
1768	35.314
1752	35.3253
1736	35.4582
1720	35.4711
1704	35.6098
1688	35.6168
1672	35.7019
1656	35.8126
1640	35.8319
1624	35.7262
1608	35.6724
1592	35.8361
1576	35.8058
1560	35.5572
1544	35.8457
1528	35.7996
1512	35.6099
1496	35.6251
1480	35.6568
1464	35.3086
1448	35.4455
1432	35.5294
1416	35.5104
1400	35.1452
1384	35.364
1368	35.3972
1352	35.1684
1336	35.1086
1320	35.4307
1304	35.1004
1288	34.9267
1272	34.9565
1256	34.9725
1240	34.7539
1224	34.8727
1208	34.9472
1192	34.8161
1176	34.4745
1160	34.4434
1144	34.6577
1128	34.4554
1112	34.1867
1096	34.1413
1080	34.0192
1064	33.7952
1048	33.7059
1032	33.9859
1016	33.7253
1000	33.2376
984	 33.6489
968	 33.4042
952	 32.593
936	 32.8394
920	 33.1405
904	 32.3545
888	 32.1079
872	 32.459
856	 31.9925
840	 31.2933
824	 31.7903
808	 31.4921
792	 31.0433
776	 30.4332
760	 30.626
744	 31.0168
728	 29.8697
712	 29.5483
696	 29.9487
680	 28.8414
664	 28.3672
648	 28.5523
632	 28.1421
616	 27.2439
600	 26.5146
584	 27.2195
568	 26.4798
552	 25.4994
536	 25.9774
520	 24.4254
504	 24.3559
488	 23.9107
472	 23.6667
456	 23.9544
440	 22.1128
424	 21.9189
408	 20.8866
392	 29.7765
376	 -29.617
370	 -27.3467

File: LPE453_t42.asc
PE IR       SPECTRUM    SPECTRUM    ASCII       PEDS        1.60
  -1
LPC3A1~1.ASC
17/05/16
17:45:30.00
17/05/16
17:45:56.00
tln
$LPE453_t0042$<tbV0>[-7.8,-5.2,8.0,0.0,27,1,0]
27.028
64

2002,4.07
MIRTGS : RIGHTBACK : INTERNAL 2
MIR : ON : INTERNAL 2
OPTKBR

0.200000
8
8.000000
FILLER
RATIO
SPECTRUM
UNLOCKED 256

DOUBLE
64
COMBINED
1
0
0

0.002000
RATIO

1
0
TRUE
51149
0
LEFT NOT FITTED RIGHT NOT FITTED 0
NONE
NONE
15600
12
4.427000
51148
TRUE
1 0 8 72 0 0 0 0

15798

#HDR
-1
-1
#GR
µM
%T
2.38419e-05
0.0
2.000000
0.002000
12515
8
46.9136
-1.724343
#DATA
2.000000	 0.288605
2.084000	 0.535552
2.168000	 0.497293
2.252000	 -0.780344
2.336000	 0.082306
2.420000	 -0.340897
2.504000	 0.059827
2.588000	 0.219243
2.672000	 0.054840
2.756000	 0.069287
2.840000	 -0.099105
2.924000	 0.071926
3.008000	 0.111718
3.092000	 -0.121043
3.176000	 0.106174
3.260000	 0.024300
3.344000	 -0.014012
3.428000	 0.028305
3.512000	 -0.022695
3.596000	 0.056414
3.680000	 -0.056498
3.764000	 -0.044818
3.848000	 0.014064
3.932000	 0.109457
4.016000	 -0.014987
4.100000	 0.000480
4.184000	 -0.073570
4.268000	 0.084296
4.352000	 0.675498
4.436000	 1.767745
4.520000	 4.092167
4.604000	 7.840722
4.688000	 12.5717
4.772000	 17.546
4.856000	 22.2784
4.940000	 26.0391
5.024000	 28.9895
5.108000	 31.2649
5.192000	 32.8848
5.276000	 34.1778
5.359999	 34.9219
5.444000	 35.5516
5.528000	 35.922
5.612000	 36.2938
5.696000	 36.5478
5.780000	 36.7287
5.864000	 36.704
5.948000	 36.8037
6.032000	 36.8724
6.116000	 36.9488
6.200000	 36.9031
6.284000	 36.744
6.368000	 36.8221
6.452000	 36.8869
6.536000	 36.8397
6.620000	 36.7746
6.704000	 36.8032
6.788000	 36.5343
6.872000	 36.6633
6.956000	 36.6564
7.040000	 36.5168
7.124000	 36.2882
7.208000	 36.5031
7.292000	 36.4893
7.376000	 36.2999
7.460000	 36.2477
7.544000	 36.4085
7.628000	 36.3822
7.712000	 36.1238
7.796000	 36.1652
7.880000	 36.1998
7.964000	 36.0487
8.048000	 35.8607
8.132000	 35.7779
8.216000	 35.8568
8.300000	 35.9081
8.384000	 35.8606
8.468000	 35.6949
8.552000	 35.5958
8.635999	 35.7053
8.719999	 35.8436
8.804000	 35.7274
8.888000	 35.3451
8.972000	 35.3481
9.056000	 35.1312
9.140000	 35.4985
9.224000	 35.4301
9.308000	 35.3113
9.391999	 35.105
9.475999	 34.8645
9.560000	 34.9654
9.644000	 35.0932
9.728000	 35.1637
9.812000	 35.2331
9.896000	 34.5658
9.980000	 34.394
10.064	34.44
10.148	34.5456
10.232	34.8876
10.316	34.8569
10.4	34.57
10.484	34.4841
10.568	34.2372
10.652	33.9792
10.736	34.0487
10.82	34.209
10.904	33.9829
10.988	33.9998
11.072	34.1072
11.156	34.0261
11.24	33.6034
11.324	33.1935
11.408	33.3354
11.492	33.3016
11.576	33.3258
11.66	33.746
11.744	33.8154
11.828	33.6672
11.912	33.3412
11.996	32.8312
12.08	32.5337
12.164	32.3255
12.248	32.4346
12.332	32.6253
12.416	32.7039
12.5	32.8308
12.584	32.8952
12.668	32.7509
12.752	32.5709
12.836	32.3769
12.92	32.1762
13.004	32.0893
13.088	31.8432
13.172	31.5269
13.256	31.5105
13.34	31.7024
13.424	31.793
13.508	31.9021
13.592	31.9803
13.676	32.0989
13.76	32.0268
13.844	31.6766
13.928	31.3858
14.012	31.2084
14.096	31.0167
14.18	31.0434
14.264	31.083
14.348	30.8762
14.432	30.7386
14.516	30.7144
14.6	30.7661
14.684	30.9576
14.768	31.0096
14.852	30.771
14.936	30.4694
15.02	30.3422
15.104	30.2844
15.188	30.1086
15.272	29.9149
15.356	29.7649
15.44	29.5884
15.524	29.4606
15.608	29.4507
15.692	29.4171
15.776	29.3075
15.86	29.3268
15.944	29.4715
16.028	29.5305
16.112	29.571
16.196	29.6786
16.28	29.5847
16.364	29.1749
16.448	28.804
16.532	28.7145
16.616	28.6903
16.7	28.4861
16.784	28.1591
16.868	27.8747
16.952	27.7019
17.036	27.6398
17.12	27.6657
17.204	27.7448
17.288	27.8641
17.372	28.0189
17.456	28.1823
17.54	28.3209
17.624	28.4118
17.708	28.4238
17.792	28.3254
17.876	28.1146
17.96	27.8278
18.044	27.5402
18.128	27.3687
18.212	27.3978
18.296	27.5881
18.38	27.8014
18.464	27.9102
18.548	27.871
18.632	27.7153
18.716	27.5048
18.8	27.2949
18.884	27.1122
18.968	26.9601
19.052	26.8395
19.136	26.738
19.22	26.6169
19.304	26.4462
19.388	26.2603
19.472	26.1612
19.556	26.2467
19.64	26.5135
19.724	26.8292
19.808	27.0137
19.892	26.9661
19.976	26.7422
20.06	26.5031
20.144	26.3699
20.228	26.3207
20.312	26.2376
20.396	26.0358
20.48	25.7373
20.564	25.4396
20.648	25.2259
20.732	25.1253
20.816	25.1233
20.9	25.1856
20.984	25.2731
21.068	25.3374
21.152	25.3452
21.236	25.2874
21.32	25.1718
21.404	25
21.488	24.774
21.572	24.5342
21.656	24.378
21.74	24.4296
21.824	24.7522
21.908	25.2676
21.992	25.767
22.076	26.0085
22.16	25.8491
22.244	25.3341
22.328	24.6436
22.412	23.9882
22.496	23.4847
22.58	23.1324
22.664	22.8724
22.748	22.6617
22.832	22.529
22.916	22.5418
23	22.7659
23.084	23.2038
23.168	23.7851
23.252	24.3952
23.336	24.8988
23.42	25.2103
23.504	25.2856
23.588	25.0959
23.672	24.6171
23.756	23.8456
23.84	22.7745
23.924	21.4583
24.008	20.0048
24.092	18.5472
24.176	17.2458
24.26	16.1995
24.344	15.4401
24.428	14.9352
24.512	14.5923
24.596	14.2925
24.68	13.8729
24.764	13.1457
24.848	11.9729
24.932	10.3689
25.016	8.581011
25.1	7.055826
25.184	6.357649
25.268	6.914353
25.352	8.839945
25.436	11.998
25.52	16.0368
25.604	20.5113
25.688	24.9476
25.772	28.9381
25.856	32.207
25.94	34.7015
26.024	36.5344
26.108	37.8701
26.192	38.8529
26.276	39.5194
26.36	39.7073
26.444	39.4167
26.528	38.9082
26.612	38.6746
26.696	39.1739
26.78	40.5787
26.864	42.7621
26.948	45.2169
27.028	46.9136

File: LPE453_t42_cm-1.asc
PE IR       SPECTRUM    SPECTRUM    ASCII       PEDS        1.60
  -1
LP5950~1.ASC
17/05/16
17:45:30.00
17/05/16
17:45:30.00
tln
$LPE453_t0042$<tbV0>[-7.8,-5.2,8.0,0.0,27,1,0]
370
64

2002,4.07
MIRTGS : RIGHTBACK : INTERNAL 2
MIR : ON : INTERNAL 2
OPTKBR

0.200000
8
8.000000
FILLER
RATIO
SPECTRUM
UNLOCKED 256

DOUBLE
64
COMBINED
1
0
0

1.000000
RATIO

1
0
TRUE
51149
0
LEFT NOT FITTED RIGHT NOT FITTED 0
NONE
NONE
15600
12
4.427000
51148
TRUE
1 0 8 72 0 0 0 0

15798

#HDR
-1
-1
#GR
CM-1
%T
2.38419e-05
0.0
5000
-1.000000
4631
8
46.9136
-1.813125
#DATA
5000	0.288605
4984	0.312972
4968	-0.054597
4952	-0.114560
4936	0.229454
4920	0.551748
4904	0.231862
4888	0.105404
4872	0.606012
4856	0.356674
4840	0.205731
4824	0.204658
4808	0.160264
4792	0.271749
4776	-0.430011
4760	0.181794
4744	0.013113
4728	0.313210
4712	0.443530
4696	0.468492
4680	0.662183
4664	0.845456
4648	1.136541
4632	0.663971
4616	0.646257
4600	0.041770
4584	-0.338029
4568	-1.388907
4552	-0.568294
4536	-1.202201
4520	30.0636
4504	1.365256
4488	-1.523137
4472	-1.010656
4456	-0.945591
4440	-0.821208
4424	-0.574445
4408	0.153493
4392	0.382614
4376	0.522875
4360	-0.283098
4344	0.186514
4328	0.365948
4312	0.273728
4296	0.450348
4280	0.083971
4264	0.200152
4248	0.385665
4232	0.420212
4216	0.427865
4200	0.284290
4184	0.498509
4168	0.306940
4152	-0.077271
4136	-0.273370
4120	0.005006
4104	-0.252413
4088	0.100398
4072	0.053119
4056	0.271296
4040	0.246596
4024	0.213241
4008	0.055813
3992	0.002932
3976	-0.010323
3960	0.114655
3944	0.163125
3928	0.311136
3912	-0.027513
3896	0.213670
3880	-0.015616
3864	0.219225
3848	0.037097
3832	0.116610
3816	-0.010490
3800	0.015139
3784	0.147986
3768	-0.035786
3752	0.079274
3736	0.112032
3720	0.019741
3704	-0.018620
3688	0.206232
3672	0.049805
3656	-0.219821
3640	0.081729
3624	-0.017666
3608	-0.017476
3592	0.091266
3576	-0.010561
3560	0.030112
3544	-0.055670
3528	-0.064253
3512	0.105643
3496	0.001502
3480	0.133681
3464	-0.015497
3448	0.172853
3432	-0.020503
3416	0.063681
3400	0.073981
3384	-0.039434
3368	0.147724
3352	0.087070
3336	0.221300
3320	0.108623
3304	-0.055527
3288	0.057172
3272	0.150847
3256	-0.042462
3240	-0.032091
3224	0.024390
3208	-0.134921
3192	0.080418
3176	-0.082445
3160	0.084352
3144	-0.022006
3128	0.164318
3112	0.065851
3096	0.001835
3080	0.109529
3064	-0.013232
3048	-0.075554
3032	-0.034475
3016	-0.035452
3000	-0.061416
2984	0.188708
2968	0.020408
2952	0.168728
2936	0.079774
2920	0.071406
2904	0.009012
2888	-0.091862
2872	0.246453
2856	-0.127816
2840	0.049066
2824	0.102043
2808	0.018000
2792	0.116395
2776	0.017428
2760	0.024938
2744	-0.058412
2728	0.020098
2712	-0.025820
2696	-0.141286
2680	0.017762
2664	-0.052118
2648	0.043988
2632	0.091052
2616	-0.036573
2600	0.007677
2584	-0.047636
2568	0.066733
2552	-0.009131
2536	0.125575
2520	0.028824
2504	0.121712
2488	0.000071
2472	0.022482
2456	0.083065
2440	-0.010156
2424	0.100755
2408	0.251650
2392	-0.073194
2376	0.128078
2360	0.091910
2344	0.086331
2328	0.331568
2312	0.431823
2296	0.677609
2280	0.958800
2264	1.357436
2248	2.077484
2232	2.854895
2216	3.843903
2200	4.977989
2184	6.549048
2168	8.264803
2152	10.0034
2136	12.1978
2120	14.2592
2104	16.4418
2088	18.5264
2072	20.5887
2056	22.7369
2040	24.4001
2024	26.0731
2008	27.7261
1992	28.8937
1976	30.1377
1960	31.1465
1944	32.1358
1928	32.7965
1912	33.5101
1896	34.1618
1880	34.5193
1864	34.9562
1848	35.5543
1832	35.6642
1816	35.8787
1800	36.2032
1784	36.3053
1768	36.3612
1752	36.5097
1736	36.6837
1720	36.7207
1704	36.7111
1688	36.7665
1672	36.8605
1656	36.8704
1640	36.9084
1624	36.8576
1608	36.841
1592	36.7537
1576	36.8912
1560	36.805
1544	36.9333
1528	36.8286
1512	36.8002
1496	36.9473
1480	36.6897
1464	36.6326
1448	36.6955
1432	36.5665
1416	36.5354
1400	36.2966
1384	36.5014
1368	36.4659
1352	36.2501
1336	36.2814
1320	36.5165
1304	36.1851
1288	36.1751
1272	36.2104
1256	36.0543
1240	35.8284
1224	35.797
1208	35.9422
1192	35.8523
1176	35.6481
1160	35.7029
1144	35.9095
1128	35.3842
1112	35.3466
1096	35.4562
1080	35.3241
1064	35.0944
1048	34.8626
1032	35.1452
1016	34.936
1000	34.3585
984	 34.602
968	 34.8029
952	 34.4224
936	 33.9339
920	 34.058
904	 34.0973
888	 33.4377
872	 33.3134
856	 33.8202
840	 33.38
824	 32.3853
808	 32.667
792	 32.8374
776	 32.2427
760	 31.5682
744	 31.8137
728	 32.0829
712	 31.1252
696	 30.8264
680	 30.9984
664	 30.3233
648	 29.6052
632	 29.2923
616	 29.6804
600	 28.591
584	 27.668
568	 28.3972
552	 27.3818
536	 27.6562
520	 26.598
504	 27.0231
488	 25.6931
472	 25.3291
456	 25.4091
440	 22.7084
424	 25.108
408	 14.6004
392	 15.537
376	 38.669
370	 46.9136

File: LPE453_t43.asc
PE IR       SPECTRUM    SPECTRUM    ASCII       PEDS        1.60
  -1
LPC3A5~1.ASC
17/05/16
17:50:06.00
17/05/16
17:50:32.00
tln
$LPE453_t0043$<tbV0>[-10.4,-5.2,8.0,0.0,27,1,0]
27.028
64

2002,4.07
MIRTGS : RIGHTBACK : INTERNAL 2
MIR : ON : INTERNAL 2
OPTKBR

0.200000
8
8.000000
FILLER
RATIO
SPECTRUM
UNLOCKED 256

DOUBLE
64
COMBINED
1
0
0

0.002000
RATIO

1
0
TRUE
51149
0
LEFT NOT FITTED RIGHT NOT FITTED 0
NONE
NONE
15600
12
4.427000
51148
TRUE
1 0 8 72 0 0 0 0

15798

#HDR
-1
-1
#GR
µM
%T
2.38419e-05
0.0
2.000000
0.002000
12515
8
47.6744
-1.815913
#DATA
2.000000	 0.005578
2.084000	 0.477223
2.168000	 0.694604
2.252000	 -1.060483
2.336000	 -0.068379
2.420000	 0.060476
2.504000	 0.014888
2.588000	 -0.114398
2.672000	 0.193934
2.756000	 0.162364
2.840000	 -0.007127
2.924000	 0.002449
3.008000	 0.195492
3.092000	 0.162987
3.176000	 -0.058532
3.260000	 -0.066888
3.344000	 0.061127
3.428000	 0.098726
3.512000	 0.096572
3.596000	 -0.093556
3.680000	 0.000876
3.764000	 0.051926
3.848000	 -0.075347
3.932000	 0.113131
4.016000	 0.035821
4.100000	 0.014482
4.184000	 0.052561
4.268000	 0.127377
4.352000	 0.472679
4.436000	 1.559211
4.520000	 3.631602
4.604000	 6.997913
4.688000	 11.6088
4.772000	 16.3282
4.856000	 20.8271
4.940000	 24.7435
5.024000	 27.6119
5.108000	 29.9835
5.192000	 31.6392
5.276000	 32.6909
5.359999	 33.7558
5.444000	 34.1414
5.528000	 34.8675
5.612000	 34.9297
5.696000	 35.2208
5.780000	 35.1934
5.864000	 35.5478
5.948000	 35.3095
6.032000	 35.4296
6.116000	 35.5802
6.200000	 35.371
6.284000	 35.5641
6.368000	 35.3211
6.452000	 35.4381
6.536000	 35.5707
6.620000	 35.2593
6.704000	 35.3697
6.788000	 35.3278
6.872000	 35.0517
6.956000	 34.8575
7.040000	 35.3203
7.124000	 35.0004
7.208000	 34.7044
7.292000	 35.0493
7.376000	 35.0355
7.460000	 34.6934
7.544000	 34.5971
7.628000	 35.0349
7.712000	 34.8837
7.796000	 34.5069
7.880000	 34.4049
7.964000	 34.7061
8.048000	 34.6437
8.132000	 34.4399
8.216000	 34.1336
8.300000	 34.3541
8.384000	 34.6785
8.468000	 34.544
8.552000	 34.2192
8.635999	 33.8362
8.719999	 34.131
8.804000	 34.3843
8.888000	 34.2642
8.972000	 34.089
9.056000	 33.6127
9.140000	 33.5252
9.224000	 34.2304
9.308000	 34.1689
9.391999	 34.0031
9.475999	 33.7092
9.560000	 33.367
9.644000	 33.3326
9.728000	 33.4965
9.812000	 33.9752
9.896000	 33.8872
9.980000	 33.4537
10.064	32.9419
10.148	32.9439
10.232	33.1029
10.316	33.2765
10.4	33.3347
10.484	33.3343
10.568	33.1887
10.652	32.7857
10.736	32.44
10.82	32.4337
10.904	32.8143
10.988	32.8578
11.072	32.8314
11.156	32.9628
11.24	32.514
11.324	32.2862
11.408	31.9597
11.492	31.9268
11.576	31.8298
11.66	31.9156
11.744	32.1695
11.828	32.396
11.912	32.2494
11.996	32.0469
12.08	31.7164
12.164	31.3029
12.248	31.2294
12.332	31.058
12.416	31.0356
12.5	31.1603
12.584	31.3337
12.668	31.5307
12.752	31.698
12.836	31.5556
12.92	31.354
13.004	30.933
13.088	30.5332
13.172	30.3906
13.256	30.1223
13.34	29.6441
13.424	29.8307
13.508	30.5587
13.592	30.8695
13.676	30.8493
13.76	30.699
13.844	30.4464
13.928	30.1218
14.012	29.8139
14.096	29.5863
14.18	29.4118
14.264	29.4104
14.348	29.555
14.432	29.5666
14.516	29.3896
14.6	29.318
14.684	29.475
14.768	29.6736
14.852	29.8451
14.936	29.8887
15.02	29.7856
15.104	29.6827
15.188	29.4924
15.272	29.1976
15.356	28.9963
15.44	28.8506
15.524	28.653
15.608	28.5195
15.692	28.5294
15.776	28.6235
15.86	28.7237
15.944	28.6926
16.028	28.4906
16.112	28.3163
16.196	28.3406
16.28	28.4365
16.364	28.3613
16.448	28.1496
16.532	28.0094
16.616	27.8783
16.7	27.5814
16.784	27.2939
16.868	27.2557
16.952	27.3089
17.036	27.2116
17.12	27.0492
17.204	26.9707
17.288	26.9097
17.372	26.8235
17.456	26.8437
17.54	27.0239
17.624	27.1994
17.708	27.2106
17.792	27.0981
17.876	27.0405
17.96	27.1598
18.044	27.3891
18.128	27.5103
18.212	27.3843
18.296	27.1022
18.38	26.8635
18.464	26.7427
18.548	26.6648
18.632	26.5526
18.716	26.4255
18.8	26.3364
18.884	26.2902
18.968	26.2326
19.052	26.0858
19.136	25.7997
19.22	25.4103
19.304	25.078
19.388	25.0061
19.472	25.2851
19.556	25.7765
19.64	26.1863
19.724	26.2812
19.808	26.0474
19.892	25.6615
19.976	25.3404
20.06	25.1973
20.144	25.1968
20.228	25.1979
20.312	25.0545
20.396	24.7171
20.48	24.2832
20.564	23.9353
20.648	23.7978
20.732	23.8524
20.816	23.9849
20.9	24.0973
20.984	24.1732
21.068	24.2346
21.152	24.2863
21.236	24.2899
21.32	24.1877
21.404	23.9518
21.488	23.5993
21.572	23.1865
21.656	22.787
21.74	22.487
21.824	22.3675
21.908	22.4691
21.992	22.7569
22.076	23.1078
22.16	23.3397
22.244	23.2928
22.328	22.9189
22.412	22.313
22.496	21.6848
22.58	21.2341
22.664	21.0673
22.748	21.1695
22.832	21.462
22.916	21.8736
23	22.3862
23.084	23.0065
23.168	23.7022
23.252	24.3641
23.336	24.8223
23.42	24.9576
23.504	24.7515
23.588	24.2977
23.672	23.7597
23.756	23.3304
23.84	23.1147
23.924	23.149
24.008	23.4037
24.092	23.7848
24.176	24.1743
24.26	24.4676
24.344	24.5788
24.428	24.4839
24.512	24.2803
24.596	24.083
24.68	23.9137
24.764	23.6537
24.848	23.0449
24.932	21.8829
25.016	20.248
25.1	18.5629
25.184	17.5751
25.268	18.0236
25.352	20.294
25.436	24.389
25.52	29.8491
25.604	35.8912
25.688	41.4997
25.772	45.6569
25.856	47.5837
25.94	47.0152
26.024	44.1723
26.108	39.6187
26.192	33.9556
26.276	27.6741
26.36	21.1322
26.444	14.7188
26.528	8.945672
26.612	4.550008
26.696	2.149732
26.78	1.956387
26.864	3.516581
26.948	5.771894
27.028	7.262730

File: LPE453_t43_cm-1.asc
PE IR       SPECTRUM    SPECTRUM    ASCII       PEDS        1.60
  -1
LP59D0~1.ASC
17/05/16
17:50:06.00
17/05/16
17:50:06.00
tln
$LPE453_t0043$<tbV0>[-10.4,-5.2,8.0,0.0,27,1,0]
370
64

2002,4.07
MIRTGS : RIGHTBACK : INTERNAL 2
MIR : ON : INTERNAL 2
OPTKBR

0.200000
8
8.000000
FILLER
RATIO
SPECTRUM
UNLOCKED 256

DOUBLE
64
COMBINED
1
0
0

1.000000
RATIO

1
0
TRUE
51149
0
LEFT NOT FITTED RIGHT NOT FITTED 0
NONE
NONE
15600
12
4.427000
51148
TRUE
1 0 8 72 0 0 0 0

15798

#HDR
-1
-1
#GR
CM-1
%T
2.38419e-05
0.0
5000
-1.000000
4631
8
47.5392
-1.816344
#DATA
5000	0.005578
4984	0.103259
4968	0.668001
4952	0.189542
4936	0.149655
4920	-0.041913
4904	0.176358
4888	0.640940
4872	-0.217294
4856	0.466799
4840	0.511288
4824	0.224184
4808	0.060439
4792	0.020647
4776	-0.133085
4760	-0.091123
4744	-0.105118
4728	0.631380
4712	0.105118
4696	0.479149
4680	0.639605
4664	0.438666
4648	0.428104
4632	0.487995
4616	0.773167
4600	0.229287
4584	-1.084518
4568	-1.233625
4552	-1.096463
4536	-1.129865
4520	14.7132
4504	-1.416563
4488	-0.798273
4472	-1.684117
4456	-1.330018
4440	-1.023459
4424	-0.198864
4408	0.443720
4392	1.025867
4376	0.358819
4360	0.483417
4344	0.428247
4328	0.193643
4312	-0.067734
4296	0.270009
4280	-0.049543
4264	-0.013875
4248	-0.000953
4232	0.402450
4216	0.141215
4200	0.405526
4184	-0.188064
4168	0.622153
4152	0.237846
4136	0.272822
4120	-0.011086
4104	0.012826
4088	0.136518
4072	0.060677
4056	0.178027
4040	0.143861
4024	0.190234
4008	-0.070881
3992	0.024080
3976	0.231695
3960	0.309967
3944	0.195240
3928	0.026297
3912	0.064277
3896	-0.081205
3880	0.130510
3864	-0.114083
3848	0.114083
3832	-0.070595
3816	0.220441
3800	-0.097465
3784	0.000095
3768	0.051641
3752	0.263190
3736	0.198888
3720	0.232291
3704	0.122618
3688	-0.092148
3672	-0.011610
3656	-0.049114
3640	0.066542
3624	0.119400
3608	-0.031065
3592	0.023984
3576	0.094938
3560	0.206637
3544	0.075793
3528	-0.142145
3512	-0.047802
3496	0.081992
3480	0.312733
3464	0.002717
3448	-0.133061
3432	0.019001
3416	-0.039672
3400	0.050354
3384	0.008964
3368	-0.053644
3352	0.112271
3336	0.132942
3320	0.067186
3304	0.236678
3288	0.137042
3272	0.161385
3256	-0.054430
3240	0.154161
3224	0.092768
3208	0.020503
3192	0.177073
3176	0.009512
3160	0.093007
3144	-0.018143
3128	0.316071
3112	-0.116562
3096	0.032043
3080	0.043439
3064	-0.037646
3048	0.027751
3032	0.022554
3016	-0.054717
3000	0.016307
2984	0.113320
2968	-0.119352
2952	0.009346
2936	-0.014162
2920	0.058412
2904	-0.011610
2888	-0.017070
2872	0.032520
2856	-0.028872
2840	0.039339
2824	0.031876
2808	0.001239
2792	-0.063347
2776	-0.042939
2760	0.130891
2744	0.017881
2728	-0.066399
2712	-0.081801
2696	0.013208
2680	-0.009107
2664	0.030684
2648	0.028920
2632	0.000214
2616	0.015902
2600	-0.050354
2584	-0.095558
2568	0.022625
2552	0.035381
2536	0.144195
2520	0.140166
2504	0.052428
2488	0.047874
2472	0.026988
2456	0.036525
2440	0.021839
2424	0.028467
2408	0.148463
2392	0.046515
2376	0.035738
2360	0.094723
2344	0.132656
2328	0.227189
2312	0.440835
2296	0.502061
2280	0.947642
2264	1.295423
2248	1.754689
2232	2.434635
2216	3.445529
2200	4.476475
2184	5.753540
2168	7.451248
2152	9.114718
2136	11.2631
2120	13.0177
2104	15.2532
2088	17.3451
2072	19.1444
2056	21.251
2040	23.0721
2024	24.778
2008	26.2049
1992	27.5024
1976	28.7385
1960	29.8623
1944	30.724
1928	31.5023
1912	32.2079
1896	32.6705
1880	33.3216
1864	33.7897
1848	34.0003
1832	34.2808
1816	34.6195
1800	34.9428
1784	34.9471
1768	35.1367
1752	35.1893
1736	35.1613
1720	35.3936
1704	35.5416
1688	35.3882
1672	35.2414
1656	35.4497
1640	35.5812
1624	35.4257
1608	35.4395
1592	35.5627
1576	35.4298
1560	35.2708
1544	35.622
1528	35.5089
1512	35.3052
1496	35.2663
1480	35.4621
1464	35.2109
1448	35.0226
1432	34.9551
1416	35.3348
1400	34.9347
1384	34.6632
1368	35.1175
1352	34.9426
1336	34.5827
1320	34.7162
1304	35.0414
1288	34.6151
1272	34.3655
1256	34.7124
1240	34.6326
1224	34.2179
1208	34.2612
1192	34.7059
1176	34.4502
1160	33.8569
1144	34.2484
1128	34.3879
1112	34.0241
1096	33.4968
1080	34.1824
1064	33.9771
1048	33.3847
1032	33.4014
1016	34.001
1000	33.2899
984	 32.9558
968	 33.3202
952	 33.3698
936	 32.6755
920	 32.679
904	 32.8175
888	 32.4387
872	 31.925
856	 31.9813
840	 32.2723
824	 31.4059
808	 31.0071
792	 31.4242
776	 31.4429
760	 30.4098
744	 29.9721
728	 30.7535
712	 29.718
696	 29.5786
680	 29.5286
664	 29.7356
648	 28.8666
632	 28.6862
616	 28.3918
600	 27.7163
584	 27.0443
568	 27.1722
552	 27.5074
536	 26.5139
520	 25.3604
504	 25.8992
488	 24.2253
472	 24.2971
456	 22.5292
440	 21.1232
424	 24.3167
408	 24.2858
392	 29.1698
376	 5.253481
370	 7.262730