Folder: Masteroppgave/Bakgrunnsmateriale/MATLAB/FTIR/ftir_data/LPE453/Mapping_121 (part 3)

File: LPE453_e126.asc
PE IR       SPECTRUM    SPECTRUM    ASCII       PEDS        1.60
  -1
LP8B83~1.ASC
17/05/16
21:38:07.00
17/05/16
21:38:34.00
tln
$LPE453_e0126$<ebV0>[-23.3,12.1,10.0,0.0,27,1,0]
27.028
64

2002,4.07
MIRTGS : RIGHTBACK : INTERNAL 2
MIR : ON : INTERNAL 2
OPTKBR

0.200000
8
8.000000
FILLER
SINGLE
SPECTRUM
UNLOCKED 256

DOUBLE

COMBINED
1
0
0

0.002000
BACKG

1
0
TRUE
51149
0
LEFT NOT FITTED RIGHT NOT FITTED 0
NONE
NONE
15600
12
4.427000
51148
TRUE
1 0 8 72 0 0 0 0

15798

#HDR
-1
-1
#GR
µM
EGY
2.38419e-05
0.0
2.000000
0.002000
12515
8
2.420753
0.009417
#DATA
2.000000	 0.769877
2.084000	 0.861260
2.168000	 0.918751
2.252000	 1.015149
2.336000	 1.130155
2.420000	 1.227764
2.504000	 1.387040
2.588000	 1.440731
2.672000	 1.538650
2.756000	 1.563813
2.840000	 1.613388
2.924000	 1.575079
3.008000	 1.668402
3.092000	 1.763981
3.176000	 1.794920
3.260000	 1.911052
3.344000	 2.010637
3.428000	 1.821502
3.512000	 1.989623
3.596000	 2.192109
3.680000	 2.233230
3.764000	 2.202772
3.848000	 2.203784
3.932000	 2.269059
4.016000	 2.300550
4.100000	 2.262499
4.184000	 2.226270
4.268000	 2.237338
4.352000	 2.308957
4.436000	 2.348118
4.520000	 2.336741
4.604000	 2.309578
4.688000	 2.303625
4.772000	 2.306335
4.856000	 2.349387
4.940000	 2.407967
5.024000	 2.420424
5.108000	 2.394496
5.192000	 2.367854
5.276000	 2.334056
5.359999	 2.340580
5.444000	 2.363499
5.528000	 2.389522
5.612000	 2.390889
5.696000	 2.361514
5.780000	 2.289017
5.864000	 2.248262
5.948000	 2.204206
6.032000	 2.156661
6.116000	 2.105697
6.200000	 1.974744
6.284000	 1.982978
6.368000	 1.947849
6.452000	 1.923144
6.536000	 2.063657
6.620000	 2.048064
6.704000	 1.663835
6.788000	 1.941662
6.872000	 1.763512
6.956000	 1.834812
7.040000	 1.827722
7.124000	 1.700378
7.208000	 1.761080
7.292000	 1.784986
7.376000	 1.788117
7.460000	 1.787873
7.544000	 1.817248
7.628000	 1.823107
7.712000	 1.825613
7.796000	 1.822274
7.880000	 1.746795
7.964000	 1.734446
8.048000	 1.806419
8.132000	 1.798762
8.216000	 1.760047
8.300000	 1.719936
8.384000	 1.717852
8.468000	 1.690009
8.552000	 1.650913
8.635999	 1.599985
8.719999	 1.581307
8.804000	 1.552664
8.888000	 1.504343
8.972000	 1.450257
9.056000	 1.411035
9.140000	 1.403480
9.224000	 1.406038
9.308000	 1.407537
9.391999	 1.416216
9.475999	 1.338434
9.560000	 1.306327
9.644000	 1.363478
9.728000	 1.350018
9.812000	 1.340904
9.896000	 1.359967
9.980000	 1.377292
10.064	1.377162
10.148	1.363620
10.232	1.346819
10.316	1.328371
10.4	1.300318
10.484	1.272900
10.568	1.254285
10.652	1.238440
10.736	1.224162
10.82	1.208269
10.904	1.190074
10.988	1.162808
11.072	1.144623
11.156	1.133668
11.24	1.113754
11.324	1.063443
11.408	1.017781
11.492	1.034563
11.576	1.068636
11.66	1.077817
11.744	1.073217
11.828	1.063990
11.912	1.042900
11.996	0.978723
12.08	0.870271
12.164	0.840927
12.248	0.901220
12.332	0.932541
12.416	0.932836
12.5	0.931119
12.584	0.939331
12.668	0.952981
12.752	0.963060
12.836	0.965038
12.92	0.962635
13.004	0.958795
13.088	0.954505
13.172	0.950587
13.256	0.944620
13.34	0.937363
13.424	0.930788
13.508	0.922697
13.592	0.911681
13.676	0.898758
13.76	0.885114
13.844	0.873268
13.928	0.861701
14.012	0.848884
14.096	0.836346
14.18	0.822718
14.264	0.806149
14.348	0.784631
14.432	0.755164
14.516	0.728173
14.6	0.719622
14.684	0.722969
14.768	0.722868
14.852	0.717265
14.936	0.709457
15.02	0.700376
15.104	0.691536
15.188	0.683879
15.272	0.675594
15.356	0.665536
15.44	0.655563
15.524	0.646089
15.608	0.636200
15.692	0.626398
15.776	0.617221
15.86	0.608668
15.944	0.600895
16.028	0.593523
16.112	0.585438
16.196	0.575222
16.28	0.561991
16.364	0.546012
16.448	0.530474
16.532	0.519938
16.616	0.515647
16.7	0.514392
16.784	0.512921
16.868	0.510397
16.952	0.507309
17.036	0.503601
17.12	0.499525
17.204	0.495793
17.288	0.493226
17.372	0.491622
17.456	0.489997
17.54	0.487250
17.624	0.483225
17.708	0.478617
17.792	0.474268
17.876	0.470351
17.96	0.466515
18.044	0.462583
18.128	0.458503
18.212	0.453974
18.296	0.448996
18.38	0.444020
18.464	0.439692
18.548	0.436076
18.632	0.432549
18.716	0.428493
18.8	0.423726
18.884	0.418354
18.968	0.412445
19.052	0.406278
19.136	0.400271
19.22	0.394688
19.304	0.389564
19.388	0.384756
19.472	0.380006
19.556	0.374979
19.64	0.369420
19.724	0.363435
19.808	0.357284
19.892	0.351175
19.976	0.344947
20.06	0.338263
20.144	0.331072
20.228	0.323623
20.312	0.316184
20.396	0.308897
20.48	0.301714
20.564	0.294653
20.648	0.287665
20.732	0.280780
20.816	0.273995
20.9	0.267346
20.984	0.260899
21.068	0.254854
21.152	0.249326
21.236	0.244230
21.32	0.239436
21.404	0.234659
21.488	0.229677
21.572	0.224294
21.656	0.218262
21.74	0.211596
21.824	0.204384
21.908	0.196866
21.992	0.189436
22.076	0.182531
22.16	0.176453
22.244	0.171268
22.328	0.166881
22.412	0.162985
22.496	0.159210
22.58	0.155431
22.664	0.151491
22.748	0.147277
22.832	0.142880
22.916	0.138302
23	0.133604
23.084	0.128813
23.168	0.123945
23.252	0.119028
23.336	0.114055
23.42	0.109004
23.504	0.103982
23.588	0.099025
23.672	0.094228
23.756	0.089651
23.84	0.085355
23.924	0.081322
24.008	0.077448
24.092	0.073675
24.176	0.069915
24.26	0.066124
24.344	0.062295
24.428	0.058438
24.512	0.054620
24.596	0.051101
24.68	0.047909
24.764	0.045254
24.848	0.043155
24.932	0.041577
25.016	0.040325
25.1	0.039174
25.184	0.037876
25.268	0.036207
25.352	0.034133
25.436	0.031749
25.52	0.029168
25.604	0.026646
25.688	0.024289
25.772	0.022224
25.856	0.020445
25.94	0.018922
26.024	0.017573
26.108	0.016378
26.192	0.015276
26.276	0.014326
26.36	0.013489
26.444	0.012770
26.528	0.012139
26.612	0.011580
26.696	0.011075
26.78	0.010581
26.864	0.010144
26.948	0.009778
27.028	0.009417

File: LPE453_e126_cm-1.asc
PE IR       SPECTRUM    SPECTRUM    ASCII       PEDS        1.60
  -1
LP09BB~1.ASC
17/05/16
21:38:07.00
17/05/16
21:38:07.00
tln
$LPE453_e0126$<ebV0>[-23.3,12.1,10.0,0.0,27,1,0]
370
64

2002,4.07
MIRTGS : RIGHTBACK : INTERNAL 2
MIR : ON : INTERNAL 2
OPTKBR

0.200000
8
8.000000
FILLER
SINGLE
SPECTRUM
UNLOCKED 256

DOUBLE

COMBINED
1
0
0

1.000000
BACKG

1
0
TRUE
51149
0
LEFT NOT FITTED RIGHT NOT FITTED 0
NONE
NONE
15600
12
4.427000
51148
TRUE
1 0 8 72 0 0 0 0

15798

#HDR
-1
-1
#GR
CM-1
EGY
2.38419e-05
0.0
5000
-1.000000
4631
8
2.420759
0.009417
#DATA
5000	0.769877
4984	0.778770
4968	0.780558
4952	0.786066
4936	0.795435
4920	0.800395
4904	0.808262
4888	0.812005
4872	0.823450
4856	0.828552
4840	0.835680
4824	0.845766
4808	0.857877
4792	0.867319
4776	0.878524
4760	0.887060
4744	0.888919
4728	0.895380
4712	0.901675
4696	0.906205
4680	0.910544
4664	0.920605
4648	0.906538
4632	0.909876
4616	0.921702
4600	0.928187
4584	0.939559
4568	0.950837
4552	0.967025
4536	0.983548
4520	1.013040
4504	0.863313
4488	0.957107
4472	0.999712
4456	1.014518
4440	1.015114
4424	1.017642
4408	1.016783
4392	1.026606
4376	1.033067
4360	1.045250
4344	1.057815
4328	1.075959
4312	1.093912
4296	1.111745
4280	1.130843
4264	1.147484
4248	1.161813
4232	1.170706
4216	1.180243
4200	1.188516
4184	1.198410
4168	1.203751
4152	1.213479
4136	1.224637
4120	1.236653
4104	1.255416
4088	1.272463
4072	1.294875
4056	1.316380
4040	1.339125
4024	1.355695
4008	1.370263
3992	1.388692
3976	1.397275
3960	1.402521
3944	1.412630
3928	1.418685
3912	1.422643
3896	1.427602
3880	1.431393
3864	1.440715
3848	1.453542
3832	1.474189
3816	1.483702
3800	1.504397
3784	1.529097
3768	1.539158
3752	1.534700
3736	1.548504
3720	1.562094
3704	1.565051
3688	1.558756
3672	1.555562
3656	1.561379
3640	1.569151
3624	1.568722
3608	1.574182
3592	1.584100
3576	1.595449
3560	1.601028
3544	1.608157
3528	1.611042
3512	1.613497
3496	1.606202
3480	1.600623
3464	1.594471
3448	1.579999
3432	1.573467
3416	1.576781
3400	1.583003
3384	1.592826
3368	1.608633
3352	1.630210
3336	1.652956
3320	1.673316
3304	1.695299
3288	1.720929
3272	1.736378
3256	1.750063
3240	1.760673
3224	1.769185
3208	1.771950
3192	1.775574
3176	1.777672
3160	1.784753
3144	1.798462
3128	1.812577
3112	1.833248
3096	1.862788
3080	1.894021
3064	1.916313
3048	1.940393
3032	1.957535
3016	1.942348
3000	2.003097
2984	2.006697
2968	1.941323
2952	1.902174
2936	1.798462
2920	1.787519
2904	1.927518
2888	1.977562
2872	1.965522
2856	1.906871
2840	2.047324
2824	2.105355
2808	2.140927
2792	2.167582
2776	2.201223
2760	2.220129
2744	2.230119
2728	2.235913
2712	2.230310
2696	2.224397
2680	2.215242
2664	2.204942
2648	2.200698
2632	2.197504
2616	2.197575
2600	2.203440
2584	2.215266
2568	2.239918
2552	2.259564
2536	2.277922
2520	2.289843
2504	2.296733
2488	2.300095
2472	2.293944
2456	2.281379
2440	2.263569
2424	2.248287
2408	2.235865
2392	2.226567
2376	2.216815
2360	2.211618
2344	2.237057
2328	2.257847
2312	2.290916
2296	2.311921
2280	2.333116
2264	2.345728
2248	2.349090
2232	2.349615
2216	2.338314
2200	2.327871
2184	2.316570
2168	2.306485
2152	2.302598
2136	2.303862
2120	2.305293
2104	2.306437
2088	2.306294
2072	2.322411
2056	2.355599
2040	2.386379
2024	2.408194
2008	2.416944
1992	2.420687
1976	2.409934
1960	2.396559
1944	2.382373
1928	2.369999
1912	2.350926
1896	2.334475
1880	2.339911
1864	2.342486
1848	2.353906
1832	2.365612
1816	2.384829
1800	2.391695
1784	2.391600
1768	2.374100
1752	2.348899
1736	2.292227
1720	2.269911
1704	2.241539
1688	2.215051
1672	2.193474
1656	2.145314
1640	2.120971
1624	2.069902
1608	1.941037
1592	1.982927
1576	1.952767
1560	1.896190
1544	1.923799
1528	2.072381
1512	2.054715
1496	1.675224
1480	1.927351
1464	1.905608
1448	1.755499
1432	1.841139
1416	1.815772
1400	1.704311
1384	1.758027
1368	1.787877
1352	1.786708
1336	1.797366
1320	1.821565
1304	1.823997
1288	1.825571
1272	1.777553
1256	1.730513
1240	1.807451
1224	1.787090
1208	1.723599
1192	1.716613
1176	1.676321
1160	1.607704
1144	1.576232
1128	1.518058
1112	1.437020
1096	1.404356
1080	1.404762
1064	1.415443
1048	1.287508
1032	1.357436
1016	1.345610
1000	1.379013
984	 1.360559
968	 1.324009
952	 1.267743
936	 1.233410
920	 1.198577
904	 1.146197
888	 1.103997
872	 1.024222
856	 1.077413
840	 1.045799
824	 0.835371
808	 0.934219
792	 0.946164
776	 0.963783
760	 0.951337
744	 0.929450
728	 0.888872
712	 0.843930
696	 0.778341
680	 0.723600
664	 0.696015
648	 0.656461
632	 0.612378
616	 0.569677
600	 0.514793
584	 0.499367
568	 0.484204
552	 0.459098
536	 0.431418
520	 0.394010
504	 0.354862
488	 0.300717
472	 0.247192
456	 0.194907
440	 0.148320
424	 0.099205
408	 0.054717
392	 0.029468
376	 0.011682
370	 0.009417

File: LPE453_e127.asc
PE IR       SPECTRUM    SPECTRUM    ASCII       PEDS        1.60
  -1
LP8F83~1.ASC
17/05/16
23:26:29.00
17/05/16
23:26:55.00
tln
$LPE453_e0127$<ebV0>[-23.3,12.1,10.0,0.0,27,1,0]
27.028
64

2002,4.07
MIRTGS : RIGHTBACK : INTERNAL 2
MIR : ON : INTERNAL 2
OPTKBR

0.200000
8
8.000000
FILLER
SINGLE
SPECTRUM
UNLOCKED 256

DOUBLE

COMBINED
1
0
0

0.002000
BACKG

1
0
TRUE
51149
0
LEFT NOT FITTED RIGHT NOT FITTED 0
NONE
NONE
15600
12
4.427000
51148
TRUE
1 0 8 72 0 0 0 0

15798

#HDR
-1
-1
#GR
µM
EGY
2.38419e-05
0.0
2.000000
0.002000
12515
8
2.419396
0.007241
#DATA
2.000000	 0.767540
2.084000	 0.866863
2.168000	 0.914785
2.252000	 0.997874
2.336000	 1.130407
2.420000	 1.228397
2.504000	 1.381111
2.588000	 1.444039
2.672000	 1.540223
2.756000	 1.563934
2.840000	 1.613418
2.924000	 1.571079
3.008000	 1.670662
3.092000	 1.766988
3.176000	 1.794750
3.260000	 1.910972
3.344000	 2.008019
3.428000	 1.819829
3.512000	 1.991930
3.596000	 2.192099
3.680000	 2.232895
3.764000	 2.201308
3.848000	 2.204921
3.932000	 2.269577
4.016000	 2.301159
4.100000	 2.265714
4.184000	 2.226358
4.268000	 2.240056
4.352000	 2.312833
4.436000	 2.349767
4.520000	 2.337528
4.604000	 2.307565
4.688000	 2.299647
4.772000	 2.306086
4.856000	 2.347677
4.940000	 2.406538
5.024000	 2.418939
5.108000	 2.394790
5.192000	 2.365057
5.276000	 2.335414
5.359999	 2.341886
5.444000	 2.368036
5.528000	 2.388908
5.612000	 2.390539
5.696000	 2.361046
5.780000	 2.287644
5.864000	 2.246264
5.948000	 2.203786
6.032000	 2.158153
6.116000	 2.103910
6.200000	 1.975412
6.284000	 1.980729
6.368000	 1.947406
6.452000	 1.926536
6.536000	 2.062085
6.620000	 2.048002
6.704000	 1.664413
6.788000	 1.942664
6.872000	 1.765447
6.956000	 1.835708
7.040000	 1.827294
7.124000	 1.701083
7.208000	 1.760250
7.292000	 1.785149
7.376000	 1.786991
7.460000	 1.787597
7.544000	 1.818383
7.628000	 1.825422
7.712000	 1.825420
7.796000	 1.822370
7.880000	 1.744718
7.964000	 1.733405
8.048000	 1.806013
8.132000	 1.798253
8.216000	 1.757870
8.300000	 1.719923
8.384000	 1.716071
8.468000	 1.688475
8.552000	 1.650498
8.635999	 1.600257
8.719999	 1.580164
8.804000	 1.548915
8.888000	 1.502348
8.972000	 1.449415
9.056000	 1.412105
9.140000	 1.403491
9.224000	 1.407394
9.308000	 1.411132
9.391999	 1.416946
9.475999	 1.337957
9.560000	 1.307228
9.644000	 1.364990
9.728000	 1.348024
9.812000	 1.339310
9.896000	 1.359889
9.980000	 1.378294
10.064	1.376874
10.148	1.364798
10.232	1.348109
10.316	1.327406
10.4	1.300461
10.484	1.274927
10.568	1.252938
10.652	1.237693
10.736	1.221457
10.82	1.207088
10.904	1.187953
10.988	1.161496
11.072	1.143000
11.156	1.133462
11.24	1.113744
11.324	1.062297
11.408	1.015060
11.492	1.031213
11.576	1.067912
11.66	1.078123
11.744	1.072553
11.828	1.061589
11.912	1.040796
11.996	0.978427
12.08	0.869956
12.164	0.839716
12.248	0.901008
12.332	0.933005
12.416	0.932560
12.5	0.931477
12.584	0.939014
12.668	0.951655
12.752	0.962095
12.836	0.964505
12.92	0.962372
13.004	0.957888
13.088	0.953735
13.172	0.950165
13.256	0.944182
13.34	0.938282
13.424	0.931502
13.508	0.921425
13.592	0.909927
13.676	0.898346
13.76	0.885535
13.844	0.872787
13.928	0.860533
14.012	0.848524
14.096	0.836899
14.18	0.823108
14.264	0.806316
14.348	0.784922
14.432	0.756279
14.516	0.729519
14.6	0.720082
14.684	0.723207
14.768	0.723644
14.852	0.717933
14.936	0.709471
15.02	0.700840
15.104	0.692612
15.188	0.683838
15.272	0.674282
15.356	0.664605
15.44	0.655419
15.524	0.646909
15.608	0.638376
15.692	0.629347
15.776	0.620806
15.86	0.612985
15.944	0.604546
16.028	0.594905
16.112	0.584555
16.196	0.573024
16.28	0.559303
16.364	0.543498
16.448	0.528548
16.532	0.519029
16.616	0.516136
16.7	0.516222
16.784	0.515240
16.868	0.512283
16.952	0.508311
17.036	0.504388
17.12	0.501260
17.204	0.498916
17.288	0.496661
17.372	0.493902
17.456	0.490621
17.54	0.487080
17.624	0.483710
17.708	0.480475
17.792	0.477071
17.876	0.473321
17.96	0.469177
18.044	0.464706
18.128	0.459809
18.212	0.454609
18.296	0.449462
18.38	0.444684
18.464	0.440232
18.548	0.435802
18.632	0.431230
18.716	0.426345
18.8	0.421215
18.884	0.415817
18.968	0.410150
19.052	0.404467
19.136	0.399022
19.22	0.394064
19.304	0.389535
19.388	0.384950
19.472	0.379987
19.556	0.374478
19.64	0.368656
19.724	0.362792
19.808	0.356833
19.892	0.350497
19.976	0.343619
20.06	0.336376
20.144	0.329221
20.228	0.322510
20.312	0.316175
20.396	0.309813
20.48	0.303126
20.564	0.296035
20.648	0.288712
20.732	0.281378
20.816	0.274240
20.9	0.267491
20.984	0.261237
21.068	0.255629
21.152	0.250518
21.236	0.245637
21.32	0.240660
21.404	0.235296
21.488	0.229436
21.572	0.223171
21.656	0.216508
21.74	0.209689
21.824	0.202811
21.908	0.196014
21.992	0.189356
22.076	0.183061
22.16	0.177248
22.244	0.172052
22.328	0.167537
22.412	0.163535
22.496	0.159778
22.58	0.156077
22.664	0.152135
22.748	0.147897
22.832	0.143380
22.916	0.138621
23	0.133694
23.084	0.128791
23.168	0.123955
23.252	0.119275
23.336	0.114779
23.42	0.110321
23.504	0.105841
23.588	0.101201
23.672	0.096411
23.756	0.091493
23.84	0.086609
23.924	0.081889
24.008	0.077340
24.092	0.072895
24.176	0.068690
24.26	0.064595
24.344	0.060766
24.428	0.057152
24.512	0.053822
24.596	0.050755
24.68	0.047985
24.764	0.045581
24.848	0.043423
24.932	0.041575
25.016	0.039951
25.1	0.038473
25.184	0.036996
25.268	0.035412
25.352	0.033654
25.436	0.031638
25.52	0.029388
25.604	0.027012
25.688	0.024650
25.772	0.022370
25.856	0.020287
25.94	0.018441
26.024	0.016852
26.108	0.015452
26.192	0.014165
26.276	0.012933
26.36	0.011747
26.444	0.010609
26.528	0.009551
26.612	0.008636
26.696	0.007937
26.78	0.007473
26.864	0.007262
26.948	0.007265
27.028	0.007390

File: LPE453_e127_cm-1.asc
PE IR       SPECTRUM    SPECTRUM    ASCII       PEDS        1.60
  -1
LP0ABB~1.ASC
17/05/16
23:26:29.00
17/05/16
23:26:29.00
tln
$LPE453_e0127$<ebV0>[-23.3,12.1,10.0,0.0,27,1,0]
370
64

2002,4.07
MIRTGS : RIGHTBACK : INTERNAL 2
MIR : ON : INTERNAL 2
OPTKBR

0.200000
8
8.000000
FILLER
SINGLE
SPECTRUM
UNLOCKED 256

DOUBLE

COMBINED
1
0
0

1.000000
BACKG

1
0
TRUE
51149
0
LEFT NOT FITTED RIGHT NOT FITTED 0
NONE
NONE
15600
12
4.427000
51148
TRUE
1 0 8 72 0 0 0 0

15798

#HDR
-1
-1
#GR
CM-1
EGY
2.38419e-05
0.0
5000
-1.000000
4631
8
2.419400
0.007247
#DATA
5000	0.767540
4984	0.771903
4968	0.782585
4952	0.791168
4936	0.794553
4920	0.799250
4904	0.807118
4888	0.812602
4872	0.823116
4856	0.831437
4840	0.837588
4824	0.851655
4808	0.859737
4792	0.873112
4776	0.880885
4760	0.887155
4744	0.892114
4728	0.902676
4712	0.907611
4696	0.896883
4680	0.899410
4664	0.920176
4648	0.895643
4632	0.923657
4616	0.917458
4600	0.932908
4584	0.944423
4568	0.952434
4552	0.960850
4536	0.969505
4520	0.968480
4504	0.972795
4488	1.138186
4472	0.994038
4456	0.998234
4440	0.997924
4424	1.006698
4408	1.008915
4392	1.018810
4376	1.030898
4360	1.041293
4344	1.049733
4328	1.072669
4312	1.095795
4296	1.112604
4280	1.131367
4264	1.147484
4248	1.161098
4232	1.173472
4216	1.186203
4200	1.192164
4184	1.203513
4168	1.210498
4152	1.218724
4136	1.225852
4120	1.240515
4104	1.252102
4088	1.273107
4072	1.292514
4056	1.316022
4040	1.338005
4024	1.356339
4008	1.371884
3992	1.383066
3976	1.396369
3960	1.403641
3944	1.411199
3928	1.416182
3912	1.422166
3896	1.426076
3880	1.435065
3864	1.444029
3848	1.454257
3832	1.472806
3816	1.486372
3800	1.505637
3784	1.529288
3768	1.539635
3752	1.535964
3736	1.547479
3720	1.562023
3704	1.566147
3688	1.559829
3672	1.553559
3656	1.563739
3640	1.571702
3624	1.569342
3608	1.574945
3592	1.581358
3576	1.593422
3560	1.600861
3544	1.608133
3528	1.608943
3512	1.612067
3496	1.607823
3480	1.599550
3464	1.594448
3448	1.579022
3432	1.572847
3416	1.575064
3400	1.583266
3384	1.593160
3368	1.607131
3352	1.628732
3336	1.652026
3320	1.676750
3304	1.700019
3288	1.718854
3272	1.735997
3256	1.750993
3240	1.762962
3224	1.770234
3208	1.770734
3192	1.773595
3176	1.778578
3160	1.785326
3144	1.799416
3128	1.814603
3112	1.835060
3096	1.861739
3080	1.896166
3064	1.915192
3048	1.942777
3032	1.956653
3016	1.940679
3000	2.002310
2984	2.003145
2968	1.937580
2952	1.901936
2936	1.798057
2920	1.785254
2904	1.927804
2888	1.976561
2872	1.964068
2856	1.904320
2840	2.048373
2824	2.106499
2808	2.142238
2792	2.170014
2776	2.201533
2760	2.222275
2744	2.231144
2728	2.236104
2712	2.229309
2696	2.224469
2680	2.217721
2664	2.205777
2648	2.198338
2632	2.197790
2616	2.200579
2600	2.204680
2584	2.215456
2568	2.240538
2552	2.260065
2536	2.277278
2520	2.291846
2504	2.298378
2488	2.300596
2472	2.294445
2456	2.281570
2440	2.266550
2424	2.251625
2408	2.235436
2392	2.226519
2376	2.218508
2360	2.213811
2344	2.239775
2328	2.259182
2312	2.290797
2296	2.315402
2280	2.333807
2264	2.347183
2248	2.351331
2232	2.349281
2216	2.340364
2200	2.328372
2184	2.316045
2168	2.306818
2152	2.303123
2136	2.300310
2120	2.302765
2104	2.306604
2088	2.306294
2072	2.322196
2056	2.354311
2040	2.388167
2024	2.406787
2008	2.418184
1992	2.419185
1976	2.411174
1960	2.396345
1944	2.382946
1928	2.368068
1912	2.351117
1896	2.335953
1880	2.337718
1864	2.343821
1848	2.354788
1832	2.368950
1816	2.383756
1800	2.391099
1784	2.390861
1768	2.374434
1752	2.348685
1736	2.291727
1720	2.270722
1704	2.238988
1688	2.213597
1672	2.193379
1656	2.146267
1640	2.119159
1624	2.071070
1608	1.941394
1592	1.980710
1576	1.951694
1560	1.897644
1544	1.924967
1528	2.071261
1512	2.055335
1496	1.675295
1480	1.929974
1464	1.906466
1448	1.756477
1432	1.840996
1416	1.813936
1400	1.705479
1384	1.757907
1368	1.786518
1352	1.785612
1336	1.796483
1320	1.822400
1304	1.824927
1288	1.825022
1272	1.775503
1256	1.729536
1240	1.807141
1224	1.785445
1208	1.722788
1192	1.714801
1176	1.675081
1160	1.607346
1144	1.574492
1128	1.517128
1112	1.437497
1096	1.404142
1080	1.407814
1064	1.416230
1048	1.287961
1032	1.357316
1016	1.344752
1000	1.379179
984	 1.361966
968	 1.322841
952	 1.269006
936	 1.231336
920	 1.196789
904	 1.144504
888	 1.103901
872	 1.020765
856	 1.077604
840	 1.043605
824	 0.834369
808	 0.934219
792	 0.945115
776	 0.963521
760	 0.950932
744	 0.929737
728	 0.889253
712	 0.844025
696	 0.778770
680	 0.723934
664	 0.696897
648	 0.656247
632	 0.616431
616	 0.567150
600	 0.516152
584	 0.501155
568	 0.484418
552	 0.460529
536	 0.429797
520	 0.393462
504	 0.354385
488	 0.302147
472	 0.248527
456	 0.194263
440	 0.148963
424	 0.101375
408	 0.053906
392	 0.029659
376	 0.008797
370	 0.007390

File: LPE453_t01.asc
PE IR       SPECTRUM    SPECTRUM    ASCII       PEDS        1.60
  -1
LPE453~4.ASC
17/05/16
14:28:01.00
17/05/16
14:28:28.00
tln
$LPE453_t0001$<tbV0>[13.0,-13.0,8.0,0.0,27,1,0]
27.028
64

2002,4.07
MIRTGS : RIGHTBACK : INTERNAL 2
MIR : ON : INTERNAL 2
OPTKBR

0.200000
8
8.000000
FILLER
RATIO
SPECTRUM
UNLOCKED 256

DOUBLE
64
COMBINED
1
0
0

0.002000
RATIO

1
0
TRUE
51149
0
LEFT NOT FITTED RIGHT NOT FITTED 0
NONE
NONE
15600
12
4.427000
51148
TRUE
1 0 8 72 0 0 0 0

15798

#HDR
-1
-1
#GR
µM
%T
2.38419e-05
0.0
2.000000
0.002000
12515
8
33.3907
-6.039347
#DATA
2.000000	 0.128602
2.084000	 -1.306122
2.168000	 0.306197
2.252000	 0.603822
2.336000	 -0.066104
2.420000	 0.008597
2.504000	 0.010890
2.588000	 0.101679
2.672000	 -0.054723
2.756000	 0.215206
2.840000	 0.262028
2.924000	 0.071040
3.008000	 0.070407
3.092000	 0.061180
3.176000	 0.061431
3.260000	 -0.141404
3.344000	 0.055342
3.428000	 0.008505
3.512000	 0.047635
3.596000	 -0.005581
3.680000	 0.032015
3.764000	 0.132480
3.848000	 -0.007118
3.932000	 0.083470
4.016000	 0.030013
4.100000	 0.035483
4.184000	 0.144707
4.268000	 0.027403
4.352000	 0.189848
4.436000	 0.503723
4.520000	 1.513539
4.604000	 3.110268
4.688000	 5.952279
4.772000	 9.217756
4.856000	 12.5576
4.940000	 15.5317
5.024000	 18.0972
5.108000	 20.0417
5.192000	 21.5771
5.276000	 22.8643
5.359999	 23.7067
5.444000	 24.486
5.528000	 25.0193
5.612000	 25.4051
5.696000	 25.653
5.780000	 25.854
5.864000	 26.1905
5.948000	 26.3598
6.032000	 26.6505
6.116000	 26.6619
6.200000	 26.8102
6.284000	 26.8043
6.368000	 26.9729
6.452000	 26.9307
6.536000	 26.9075
6.620000	 26.9066
6.704000	 27.1346
6.788000	 26.8841
6.872000	 27.197
6.956000	 27.0556
7.040000	 27.0635
7.124000	 27.0456
7.208000	 27.0375
7.292000	 27.1426
7.376000	 27.0702
7.460000	 26.9782
7.544000	 27.0164
7.628000	 27.031
7.712000	 26.8872
7.796000	 26.8757
7.880000	 26.7287
7.964000	 26.7422
8.048000	 26.839
8.132000	 26.7019
8.216000	 26.7691
8.300000	 26.8384
8.384000	 26.7607
8.468000	 26.5795
8.552000	 26.7749
8.635999	 26.6267
8.719999	 26.5255
8.804000	 26.6104
8.888000	 26.4322
8.972000	 26.4136
9.056000	 26.3309
9.140000	 26.5042
9.224000	 26.3776
9.308000	 26.0751
9.391999	 25.9878
9.475999	 26.3053
9.560000	 26.0455
9.644000	 26.0587
9.728000	 25.9631
9.812000	 25.6895
9.896000	 25.5064
9.980000	 25.7497
10.064	25.5617
10.148	25.596
10.232	25.4319
10.316	25.443
10.4	25.4278
10.484	25.3928
10.568	25.3012
10.652	25.1319
10.736	25.0596
10.82	25.0219
10.904	24.8052
10.988	24.9634
11.072	25.0053
11.156	24.8133
11.24	24.7548
11.324	24.7927
11.408	24.6599
11.492	24.5134
11.576	24.4206
11.66	24.4486
11.744	24.3713
11.828	24.302
11.912	24.0654
11.996	24.163
12.08	24.0833
12.164	23.8482
12.248	23.8006
12.332	23.7848
12.416	23.517
12.5	23.4953
12.584	23.5449
12.668	23.5371
12.752	23.5091
12.836	23.3604
12.92	23.0969
13.004	22.8794
13.088	22.8484
13.172	22.8371
13.256	22.9226
13.34	23.0599
13.424	22.7436
13.508	22.4008
13.592	22.5455
13.676	22.6325
13.76	22.5772
13.844	22.4392
13.928	22.2392
14.012	22.1506
14.096	22.1182
14.18	22.0619
14.264	21.8995
14.348	21.6914
14.432	21.7802
14.516	22.009
14.6	21.9454
14.684	21.7159
14.768	21.6233
14.852	21.6753
14.936	21.5983
15.02	21.4383
15.104	21.4837
15.188	21.4959
15.272	21.3361
15.356	21.2325
15.44	21.1119
15.524	20.8919
15.608	20.7296
15.692	20.7154
15.776	20.8297
15.86	20.9649
15.944	21.0294
16.028	21.0219
16.112	20.8844
16.196	20.6053
16.28	20.3046
16.364	20.0224
16.448	19.8095
16.532	19.8185
16.616	19.9956
16.7	20.1238
16.784	20.1907
16.868	20.2471
16.952	20.2082
17.036	20.0535
17.12	19.9125
17.204	19.8575
17.288	19.8108
17.372	19.6686
17.456	19.432
17.54	19.219
17.624	19.1458
17.708	19.1978
17.792	19.2694
17.876	19.2849
17.96	19.2243
18.044	19.1068
18.128	19.0257
18.212	19.1022
18.296	19.3172
18.38	19.4639
18.464	19.3703
18.548	19.0946
18.632	18.8166
18.716	18.6325
18.8	18.5361
18.884	18.5149
18.968	18.5622
19.052	18.6318
19.136	18.6686
19.22	18.6795
19.304	18.7086
19.388	18.7409
19.472	18.6846
19.556	18.4613
19.64	18.095
19.724	17.6945
19.808	17.3698
19.892	17.1616
19.976	17.0482
20.06	16.9869
20.144	16.9481
20.228	16.9257
20.312	16.9339
20.396	16.9873
20.48	17.0762
20.564	17.1654
20.648	17.2276
20.732	17.2699
20.816	17.3222
20.9	17.3946
20.984	17.4482
21.068	17.4345
21.152	17.3433
21.236	17.216
21.32	17.1036
21.404	17.0124
21.488	16.9084
21.572	16.7669
21.656	16.6042
21.74	16.4572
21.824	16.3436
21.908	16.2399
21.992	16.124
22.076	16.0293
22.16	16.0413
22.244	16.2345
22.328	16.5913
22.412	16.9687
22.496	17.1673
22.58	17.0629
22.664	16.6728
22.748	16.1655
22.832	15.7445
22.916	15.5442
23	15.5527
23.084	15.6523
23.168	15.6593
23.252	15.4326
23.336	14.9386
23.42	14.2479
23.504	13.5376
23.588	13.0481
23.672	12.9959
23.756	13.5046
23.84	14.5688
23.924	16.009
24.008	17.5245
24.092	18.7755
24.176	19.4726
24.26	19.4929
24.344	18.9075
24.428	17.9625
24.512	17.0623
24.596	16.5859
24.68	16.8497
24.764	18.0557
24.848	20.2438
24.932	23.2103
25.016	26.5153
25.1	29.6336
25.184	32.0158
25.268	33.2584
25.352	33.1779
25.436	31.8104
25.52	29.4087
25.604	26.3571
25.688	23.1709
25.772	20.3883
25.856	18.4097
25.94	17.3999
26.024	17.1709
26.108	17.2079
26.192	16.7547
26.276	15.1547
26.36	12.082
26.444	7.913592
26.528	3.690825
26.612	0.811869
26.696	0.542564
26.78	3.514982
26.864	9.268871
26.948	16.411
27.028	22.8685