Folder: Masteroppgave/Bakgrunnsmateriale/MATLAB/FTIR/ftir_data/LPE453/Mapping_121 (part 49)

File: LPE453_t114.asc
PE IR       SPECTRUM    SPECTRUM    ASCII       PEDS        1.60
  -1
LP9388~1.ASC
17/05/16
23:45:42.00
17/05/16
23:46:08.00
tln
$LPE453_t0114$<tbV0>[5.2,13.0,8.0,0.0,27,1,0]
27.028
64

2002,4.07
MIRTGS : RIGHTBACK : INTERNAL 2
MIR : ON : INTERNAL 2
OPTKBR

0.200000
8
8.000000
FILLER
RATIO
SPECTRUM
UNLOCKED 256

DOUBLE
64
COMBINED
1
0
0

0.002000
RATIO

1
0
TRUE
51149
0
LEFT NOT FITTED RIGHT NOT FITTED 0
NONE
NONE
15600
12
4.427000
51148
TRUE
1 0 8 72 0 0 0 0

15798

#HDR
-1
-1
#GR
µM
%T
2.38419e-05
0.0
2.000000
0.002000
12515
8
37.9437
-5.452534
#DATA
2.000000	 -0.050139
2.084000	 -0.291229
2.168000	 0.037248
2.252000	 -0.349794
2.336000	 0.135780
2.420000	 0.105972
2.504000	 -0.006283
2.588000	 0.067088
2.672000	 0.068331
2.756000	 0.154861
2.840000	 -0.058721
2.924000	 0.014383
3.008000	 0.099505
3.092000	 0.099993
3.176000	 0.003087
3.260000	 0.087036
3.344000	 0.040151
3.428000	 0.010856
3.512000	 0.057413
3.596000	 0.121613
3.680000	 0.034745
3.764000	 0.090541
3.848000	 -0.004679
3.932000	 0.049773
4.016000	 0.213137
4.100000	 0.203997
4.184000	 0.532435
4.268000	 0.714423
4.352000	 1.820653
4.436000	 3.514336
4.520000	 6.588278
4.604000	 10.62
4.688000	 15.3784
4.772000	 19.7469
4.856000	 23.6493
4.940000	 26.7506
5.024000	 28.9047
5.108000	 30.9314
5.192000	 32.0137
5.276000	 33.3001
5.359999	 33.8852
5.444000	 34.4493
5.528000	 35.159
5.612000	 35.073
5.696000	 35.6316
5.780000	 35.8519
5.864000	 35.6944
5.948000	 36.3085
6.032000	 36.525
6.116000	 36.239
6.200000	 36.657
6.284000	 37.0927
6.368000	 36.767
6.452000	 36.6247
6.536000	 37.175
6.620000	 37.2087
6.704000	 36.634
6.788000	 36.9705
6.872000	 37.3718
6.956000	 37.2824
7.040000	 36.95
7.124000	 37.0261
7.208000	 37.4365
7.292000	 37.5369
7.376000	 37.2523
7.460000	 36.8342
7.544000	 37.1381
7.628000	 37.5047
7.712000	 37.7713
7.796000	 37.2737
7.880000	 36.9863
7.964000	 37.0214
8.048000	 37.4161
8.132000	 37.8948
8.216000	 37.7805
8.300000	 37.3237
8.384000	 36.9418
8.468000	 37.039
8.552000	 37.4227
8.635999	 37.6366
8.719999	 37.7998
8.804000	 37.5097
8.888000	 37.0698
8.972000	 36.851
9.056000	 36.8694
9.140000	 37.333
9.224000	 37.6238
9.308000	 37.6138
9.391999	 37.2331
9.475999	 37.0294
9.560000	 36.7461
9.644000	 36.7456
9.728000	 36.6961
9.812000	 37.0039
9.896000	 37.4269
9.980000	 37.4901
10.064	37.2343
10.148	36.9738
10.232	36.773
10.316	36.5123
10.4	36.2713
10.484	36.4302
10.568	36.7916
10.652	37.0206
10.736	37.0262
10.82	36.9641
10.904	37.0587
10.988	36.7073
11.072	36.1614
11.156	36.0057
11.24	35.9079
11.324	35.9489
11.408	35.9621
11.492	36.143
11.576	36.5005
11.66	36.6844
11.744	36.7246
11.828	36.6664
11.912	36.3827
11.996	35.9642
12.08	35.6076
12.164	35.1705
12.248	35.1474
12.332	35.1848
12.416	35.3645
12.5	35.4877
12.584	35.5265
12.668	35.6947
12.752	35.8777
12.836	36.0013
12.92	35.9134
13.004	35.7605
13.088	35.4334
13.172	34.8827
13.256	34.6636
13.34	34.6604
13.424	34.6471
13.508	34.6749
13.592	34.5661
13.676	34.3007
13.76	34.4137
13.844	34.757
13.928	34.8649
14.012	34.9095
14.096	35.0283
14.18	35.1289
14.264	35.1419
14.348	35.1257
14.432	35.1699
14.516	35.0682
14.6	34.7408
14.684	34.3192
14.768	33.9958
14.852	33.7588
14.936	33.4488
15.02	33.2805
15.104	33.3969
15.188	33.5515
15.272	33.651
15.356	33.7544
15.44	33.7513
15.524	33.6502
15.608	33.7134
15.692	33.9735
15.776	34.179
15.86	34.2148
15.944	34.1515
16.028	34.0312
16.112	33.9139
16.196	33.8987
16.28	33.9079
16.364	33.737
16.448	33.3809
16.532	33.0193
16.616	32.7404
16.7	32.4873
16.784	32.2011
16.868	31.9431
16.952	31.8765
17.036	32.0535
17.12	32.285
17.204	32.38
17.288	32.4002
17.372	32.4845
17.456	32.5662
17.54	32.4796
17.624	32.2745
17.708	32.1979
17.792	32.3681
17.876	32.6228
17.96	32.7524
18.044	32.7457
18.128	32.7247
18.212	32.7293
18.296	32.6757
18.38	32.4868
18.464	32.1816
18.548	31.8544
18.632	31.6144
18.716	31.511
18.8	31.4907
18.884	31.4355
18.968	31.2553
19.052	30.9465
19.136	30.577
19.22	30.2487
19.304	30.0638
19.388	30.069
19.472	30.2061
19.556	30.3372
19.64	30.3544
19.724	30.2646
19.808	30.172
19.892	30.1779
19.976	30.3046
20.06	30.4885
20.144	30.6344
20.228	30.6737
20.312	30.5981
20.396	30.4541
20.48	30.302
20.564	30.1772
20.648	30.0753
20.732	29.9788
20.816	29.8894
20.9	29.8285
20.984	29.814
21.068	29.8331
21.152	29.8576
21.236	29.8639
21.32	29.8424
21.404	29.7893
21.488	29.7017
21.572	29.5825
21.656	29.4585
21.74	29.3708
21.824	29.3522
21.908	29.4017
21.992	29.4772
22.076	29.5157
22.16	29.4572
22.244	29.2571
22.328	28.9086
22.412	28.4514
22.496	27.9821
22.58	27.6148
22.664	27.4335
22.748	27.4366
22.832	27.5212
22.916	27.5211
23	27.2986
23.084	26.8109
23.168	26.1448
23.252	25.4746
23.336	24.9923
23.42	24.8215
23.504	24.9895
23.588	25.4105
23.672	25.9398
23.756	26.4377
23.84	26.8262
23.924	27.1015
24.008	27.3158
24.092	27.5315
24.176	27.7526
24.26	27.9105
24.344	27.8903
24.428	27.5896
24.512	26.9344
24.596	25.9425
24.68	24.7355
24.764	23.5161
24.848	22.4526
24.932	21.7204
25.016	21.4652
25.1	21.7419
25.184	22.5216
25.268	23.6885
25.352	25.0701
25.436	26.3672
25.52	27.2099
25.604	27.2725
25.688	26.3115
25.772	24.3366
25.856	21.6801
25.94	18.9595
26.024	16.9108
26.108	16.079
26.192	16.8022
26.276	19.0311
26.36	22.3573
26.444	25.7504
26.528	27.8374
26.612	27.1651
26.696	23.0041
26.78	15.8283
26.864	7.356049
26.948	-0.149592
27.028	-4.795145

File: LPE453_t114_cm-1.asc
PE IR       SPECTRUM    SPECTRUM    ASCII       PEDS        1.60
  -1
LP07FC~1.ASC
17/05/16
23:45:42.00
17/05/16
23:45:42.00
tln
$LPE453_t0114$<tbV0>[5.2,13.0,8.0,0.0,27,1,0]
370
64

2002,4.07
MIRTGS : RIGHTBACK : INTERNAL 2
MIR : ON : INTERNAL 2
OPTKBR

0.200000
8
8.000000
FILLER
RATIO
SPECTRUM
UNLOCKED 256

DOUBLE
64
COMBINED
1
0
0

1.000000
RATIO

1
0
TRUE
51149
0
LEFT NOT FITTED RIGHT NOT FITTED 0
NONE
NONE
15600
12
4.427000
51148
TRUE
1 0 8 72 0 0 0 0

15798

#HDR
-1
-1
#GR
CM-1
%T
2.38419e-05
0.0
5000
-1.000000
4631
8
37.9432
-5.501842
#DATA
5000	-0.050139
4984	-0.365662
4968	0.156378
4952	0.038623
4936	0.107455
4920	-0.055098
4904	0.269007
4888	0.515699
4872	-0.399160
4856	0.149154
4840	-0.102233
4824	0.246572
4808	-0.132799
4792	-0.550246
4776	0.172400
4760	0.232911
4744	0.324988
4728	0.395750
4712	0.564312
4696	0.050163
4680	0.923633
4664	1.379084
4648	0.128054
4632	-0.104618
4616	-0.198912
4600	0.159621
4584	-0.202727
4568	0.211119
4552	-0.749182
4536	-0.061273
4520	-0.079464
4504	-5.501842
4488	20.805
4472	-0.421071
4456	-1.177620
4440	-0.355529
4424	-0.070667
4408	0.168061
4392	0.418114
4376	0.583481
4360	0.446772
4344	0.096392
4328	0.531125
4312	-0.134062
4296	-0.408244
4280	0.143861
4264	-0.177264
4248	0.215744
4232	0.526785
4216	-0.006675
4200	0.101304
4184	0.603485
4168	-0.060701
4152	0.175046
4136	0.127935
4120	-0.209116
4104	-0.061798
4088	-0.090503
4072	0.162696
4056	0.122666
4040	0.011968
4024	0.139856
4008	0.128674
3992	0.008368
3976	-0.065660
3960	0.108218
3944	0.115537
3928	0.052642
3912	0.145339
3896	-0.012421
3880	0.131559
3864	0.066757
3848	0.003337
3832	-0.114655
3816	0.011038
3800	0.080609
3784	0.034642
3768	0.062847
3752	0.121736
3736	0.037980
3720	0.101470
3704	-0.157880
3688	-0.015830
3672	0.085091
3656	0.036025
3640	0.043392
3624	0.064802
3608	0.016069
3592	-0.062870
3576	-0.018668
3560	-0.015497
3544	0.043272
3528	-0.191235
3512	0.045800
3496	-0.024962
3480	0.164151
3464	0.036644
3448	-0.120639
3432	-0.046825
3416	0.032997
3400	0.055527
3384	0.041556
3368	0.029969
3352	0.045013
3336	0.166916
3320	0.039815
3304	-0.028753
3288	0.187778
3272	0.146627
3256	0.047397
3240	0.072598
3224	0.005078
3208	0.058650
3192	0.126028
3176	0.112962
3160	-0.060081
3144	0.017929
3128	0.009226
3112	-0.031208
3096	0.007271
3080	-0.001931
3064	0.036382
3048	0.056076
3032	0.107407
3016	0.052118
3000	-0.124025
2984	-0.011014
2968	-0.045919
2952	0.031590
2936	0.064826
2920	0.004911
2904	-0.010251
2888	0.000500
2872	0.018835
2856	0.032615
2840	0.099277
2824	0.123786
2808	0.047636
2792	0.009918
2776	0.141239
2760	0.043892
2744	0.146365
2728	-0.013685
2712	0.032758
2696	0.071668
2680	0.044465
2664	0.171327
2648	0.058794
2632	0.010466
2616	0.022482
2600	-0.003957
2584	0.089716
2568	0.012898
2552	-0.038743
2536	0.003123
2520	0.099539
2504	0.060796
2488	0.181031
2472	0.139594
2456	0.131297
2440	0.206732
2424	0.201535
2408	0.323963
2392	0.501346
2376	0.508594
2360	0.643634
2344	0.717473
2328	1.082539
2312	1.462841
2296	1.900148
2280	2.441143
2264	2.957272
2248	3.921747
2232	5.020213
2216	6.252241
2200	7.593441
2184	9.283947
2168	11.1636
2152	12.9676
2136	15.0191
2120	16.6819
2104	18.7096
2088	20.7479
2072	22.4466
2056	23.9833
2040	25.3386
2024	26.7771
2008	27.99
1992	28.804
1976	29.8627
1960	30.8056
1944	31.4807
1928	31.9379
1912	32.4066
1896	33.2663
1880	33.7914
1864	33.8893
1848	34.026
1832	34.609
1816	35.0902
1800	35.1643
1784	35.0762
1768	35.2747
1752	35.727
1736	35.9599
1720	35.7838
1704	35.7183
1688	36.2055
1672	36.5115
1656	36.4872
1640	36.1796
1624	36.4448
1608	36.8314
1592	37.0852
1576	36.8859
1560	36.5001
1544	36.814
1528	37.2126
1512	37.2545
1496	36.7683
1480	36.813
1464	37.2328
1448	37.4298
1432	37.2453
1416	36.9004
1400	37.1148
1384	37.527
1368	37.461
1352	37.1866
1336	36.8761
1320	37.2959
1304	37.6552
1288	37.5138
1272	37.0159
1256	37.0092
1240	37.5513
1224	37.9254
1208	37.4849
1192	36.9274
1176	37.1738
1160	37.5963
1144	37.6872
1128	37.1419
1112	36.7853
1096	37.2128
1080	37.6873
1064	37.2078
1048	36.7556
1032	36.7325
1016	37.1718
1000	37.4432
984	 36.9577
968	 36.4824
952	 36.521
936	 37.0565
920	 37.019
904	 36.2047
888	 35.8963
872	 36.0554
856	 36.703
840	 36.4152
824	 35.2877
808	 35.2641
792	 35.598
776	 35.9722
760	 34.9626
744	 34.6489
728	 34.3329
712	 34.9524
696	 35.1348
680	 34.2188
664	 33.3122
648	 33.7587
632	 34.2163
616	 33.9129
600	 32.5903
584	 32.2918
568	 32.3175
552	 32.7253
536	 31.57
520	 30.2153
504	 30.1589
488	 30.2825
472	 29.8633
456	 29.4211
440	 27.4226
424	 25.3924
408	 26.956
392	 27.1479
376	 27.5705
370	 -4.795145

File: LPE453_t115.asc
PE IR       SPECTRUM    SPECTRUM    ASCII       PEDS        1.60
  -1
LP9788~1.ASC
17/05/16
23:50:18.00
17/05/16
23:50:44.00
tln
$LPE453_t0115$<tbV0>[2.6,13.0,8.0,0.0,27,1,0]
27.028
64

2002,4.07
MIRTGS : RIGHTBACK : INTERNAL 2
MIR : ON : INTERNAL 2
OPTKBR

0.200000
8
8.000000
FILLER
RATIO
SPECTRUM
UNLOCKED 256

DOUBLE
64
COMBINED
1
0
0

0.002000
RATIO

1
0
TRUE
51149
0
LEFT NOT FITTED RIGHT NOT FITTED 0
NONE
NONE
15600
12
4.427000
51148
TRUE
1 0 8 72 0 0 0 0

15798

#HDR
-1
-1
#GR
µM
%T
2.38419e-05
0.0
2.000000
0.002000
12515
8
36.28
-14.6744
#DATA
2.000000	 0.412416
2.084000	 0.120557
2.168000	 0.841015
2.252000	 -0.525314
2.336000	 0.342289
2.420000	 0.141352
2.504000	 0.025995
2.588000	 0.043111
2.672000	 0.219141
2.756000	 0.012529
2.840000	 0.045962
2.924000	 -0.006090
3.008000	 0.131447
3.092000	 0.107131
3.176000	 0.099295
3.260000	 -0.057864
3.344000	 -0.044847
3.428000	 0.150900
3.512000	 -0.001616
3.596000	 0.083184
3.680000	 0.085814
3.764000	 0.055752
3.848000	 0.092297
3.932000	 -0.035173
4.016000	 0.012476
4.100000	 0.023710
4.184000	 0.196258
4.268000	 0.494501
4.352000	 1.184284
4.436000	 2.818466
4.520000	 5.361531
4.604000	 9.089520
4.688000	 13.5504
4.772000	 18.0479
4.856000	 22.0554
4.940000	 25.3661
5.024000	 27.9498
5.108000	 29.8246
5.192000	 31.2555
5.276000	 32.3156
5.359999	 33.3069
5.444000	 33.7986
5.528000	 34.4202
5.612000	 34.7272
5.696000	 34.9546
5.780000	 35.3083
5.864000	 35.4765
5.948000	 35.7641
6.032000	 35.7373
6.116000	 35.8889
6.200000	 35.9654
6.284000	 36.1081
6.368000	 36.068
6.452000	 36.1521
6.536000	 36.134
6.620000	 36.0335
6.704000	 36.0834
6.788000	 36.1846
6.872000	 36.1037
6.956000	 35.9119
7.040000	 36.1828
7.124000	 36.1432
7.208000	 35.9267
7.292000	 35.9596
7.376000	 35.9299
7.460000	 36.0225
7.544000	 35.9493
7.628000	 35.6387
7.712000	 35.7379
7.796000	 35.8586
7.880000	 35.9393
7.964000	 35.6938
8.048000	 35.4834
8.132000	 35.6093
8.216000	 35.7157
8.300000	 35.8418
8.384000	 35.5633
8.468000	 35.5791
8.552000	 35.1888
8.635999	 35.3217
8.719999	 35.5586
8.804000	 35.6009
8.888000	 35.56
8.972000	 35.233
9.056000	 35.1817
9.140000	 34.9873
9.224000	 35.1572
9.308000	 35.1498
9.391999	 35.3363
9.475999	 35.1152
9.560000	 35.0618
9.644000	 34.8405
9.728000	 34.8594
9.812000	 34.8376
9.896000	 35.0588
9.980000	 35.0435
10.064	35.0138
10.148	34.8921
10.232	34.655
10.316	34.3898
10.4	34.234
10.484	34.2155
10.568	34.4401
10.652	34.644
10.736	34.684
10.82	34.6174
10.904	34.4327
10.988	34.1824
11.072	33.9682
11.156	33.7493
11.24	33.773
11.324	33.74
11.408	33.9879
11.492	34.1141
11.576	34.1492
11.66	33.8249
11.744	33.6668
11.828	33.748
11.912	33.6006
11.996	33.3771
12.08	33.2164
12.164	33.0879
12.248	33.0019
12.332	33.1549
12.416	33.2336
12.5	33.373
12.584	33.4548
12.668	33.2949
12.752	33.2103
12.836	33.1179
12.92	32.8318
13.004	32.691
13.088	32.4335
13.172	32.2671
13.256	32.311
13.34	32.3353
13.424	32.2225
13.508	32.182
13.592	32.3488
13.676	32.5099
13.76	32.5191
13.844	32.5885
13.928	32.7715
14.012	32.7112
14.096	32.486
14.18	32.3239
14.264	32.2478
14.348	32.0973
14.432	31.9276
14.516	31.839
14.6	31.6362
14.684	31.3898
14.768	31.2945
14.852	31.3535
14.936	31.5338
15.02	31.7818
15.104	32.0105
15.188	32.0862
15.272	31.9066
15.356	31.6258
15.44	31.4965
15.524	31.4906
15.608	31.4787
15.692	31.3721
15.776	31.056
15.86	30.6696
15.944	30.4755
16.028	30.4361
16.112	30.385
16.196	30.2902
16.28	30.2072
16.364	30.2038
16.448	30.2567
16.532	30.2848
16.616	30.3177
16.7	30.4066
16.784	30.4737
16.868	30.4709
16.952	30.4845
17.036	30.5481
17.12	30.5688
17.204	30.4909
17.288	30.3746
17.372	30.3045
17.456	30.3217
17.54	30.4
17.624	30.4123
17.708	30.2187
17.792	29.8309
17.876	29.4089
17.96	29.0841
18.044	28.8694
18.128	28.7199
18.212	28.6022
18.296	28.4929
18.38	28.3846
18.464	28.3053
18.548	28.288
18.632	28.3136
18.716	28.3298
18.8	28.3261
18.884	28.3511
18.968	28.4463
19.052	28.5785
19.136	28.666
19.22	28.6447
19.304	28.52
19.388	28.3733
19.472	28.3223
19.556	28.4323
19.64	28.6478
19.724	28.8371
19.808	28.917
19.892	28.923
19.976	28.9366
20.06	28.9608
20.144	28.9084
20.228	28.7061
20.312	28.3714
20.396	27.9809
20.48	27.5925
20.564	27.223
20.648	26.8852
20.732	26.6175
20.816	26.4665
20.9	26.4418
20.984	26.5107
21.068	26.6198
21.152	26.7213
21.236	26.7818
21.32	26.7857
21.404	26.7456
21.488	26.7096
21.572	26.7402
21.656	26.8678
21.74	27.0535
21.824	27.2018
21.908	27.2168
21.992	27.064
22.076	26.7915
22.16	26.5081
22.244	26.3273
22.328	26.3105
22.412	26.4479
22.496	26.6602
22.58	26.8514
22.664	26.9534
22.748	26.952
22.832	26.8755
22.916	26.7574
23	26.5825
23.084	26.2963
23.168	25.8326
23.252	25.1792
23.336	24.4175
23.42	23.7036
23.504	23.1966
23.588	22.9744
23.672	22.9987
23.756	23.1263
23.84	23.1947
23.924	23.0961
24.008	22.8334
24.092	22.5138
24.176	22.2692
24.26	22.2147
24.344	22.4029
24.428	22.8128
24.512	23.4204
24.596	24.1812
24.68	25.0368
24.764	25.9154
24.848	26.6939
24.932	27.2152
25.016	27.3569
25.1	27.0892
25.184	26.5051
25.268	25.783
25.352	25.0965
25.436	24.5802
25.52	24.2593
25.604	24.0316
25.688	23.6548
25.772	22.8251
25.856	21.2942
25.94	19.0075
26.024	16.0947
26.108	12.7965
26.192	9.284744
26.276	5.615104
26.36	1.738961
26.444	-2.336349
26.528	-6.433391
26.612	-10.1038
26.696	-12.8477
26.78	-14.3579
26.864	-14.6401
26.948	-14.0748
27.028	-13.4161

File: LPE453_t115_cm-1.asc
PE IR       SPECTRUM    SPECTRUM    ASCII       PEDS        1.60
  -1
LP08FC~1.ASC
17/05/16
23:50:18.00
17/05/16
23:50:18.00
tln
$LPE453_t0115$<tbV0>[2.6,13.0,8.0,0.0,27,1,0]
370
64

2002,4.07
MIRTGS : RIGHTBACK : INTERNAL 2
MIR : ON : INTERNAL 2
OPTKBR

0.200000
8
8.000000
FILLER
RATIO
SPECTRUM
UNLOCKED 256

DOUBLE
64
COMBINED
1
0
0

1.000000
RATIO

1
0
TRUE
51149
0
LEFT NOT FITTED RIGHT NOT FITTED 0
NONE
NONE
15600
12
4.427000
51148
TRUE
1 0 8 72 0 0 0 0

15798

#HDR
-1
-1
#GR
CM-1
%T
2.38419e-05
0.0
5000
-1.000000
4631
8
36.2794
-14.5929
#DATA
5000	0.412416
4984	0.171804
4968	-0.134396
4952	0.020718
4936	-0.084948
4920	-0.306391
4904	0.313591
4888	0.169968
4872	0.298881
4856	-0.123047
4840	-0.086021
4824	0.357580
4808	0.437450
4792	-0.112986
4776	-0.085854
4760	0.523161
4744	0.284385
4728	-0.363016
4712	0.948619
4696	0.698781
4680	0.608825
4664	0.136804
4648	-1.623010
4632	0.605702
4616	0.790596
4600	0.224423
4584	-0.399565
4568	0.011539
4552	0.073719
4536	-0.448131
4520	-0.341200
4504	1.346135
4488	11.1804
4472	-1.693201
4456	-0.678753
4440	-0.509238
4424	-0.755500
4408	-0.353312
4392	0.585579
4376	-0.016546
4360	0.461935
4344	0.399422
4328	0.520944
4312	0.092601
4296	-0.180220
4280	0.379133
4264	0.071692
4248	0.067067
4232	0.237965
4216	-0.027298
4200	0.360226
4184	0.160837
4168	0.076341
4152	-0.186967
4136	0.153279
4120	-0.004696
4104	0.078248
4088	0.005745
4072	0.224423
4056	0.104403
4040	0.107407
4024	0.180840
4008	0.015401
3992	-0.014805
3976	0.158691
3960	0.056672
3944	0.002598
3928	0.063467
3912	0.032162
3896	0.212192
3880	0.053453
3864	0.043320
3848	0.121331
3832	0.102996
3816	0.115609
3800	0.093388
3784	-0.031089
3768	-0.048422
3752	0.090384
3736	0.264263
3720	0.011754
3704	-0.044369
3688	0.024151
3672	-0.084114
3656	0.076198
3640	-0.059509
3624	-0.076365
3608	0.085377
3592	-0.002336
3576	-0.037574
3560	-0.015783
3544	-0.104689
3528	0.151753
3512	0.070548
3496	-0.032162
3480	-0.060796
3464	0.221872
3448	0.160527
3432	0.070929
3416	0.048398
3400	0.083231
3384	0.030136
3368	-0.089597
3352	0.020551
3336	-0.002527
3320	0.156712
3304	0.116705
3288	0.117635
3272	-0.037074
3256	-0.086140
3240	0.205326
3224	0.070285
3208	0.018358
3192	-0.125169
3176	0.136041
3160	0.025320
3144	0.088500
3128	-0.028467
3112	0.136208
3096	0.019669
3080	-0.100898
3064	-0.063967
3048	0.092291
3032	0.081658
3016	0.135445
3000	0.065374
2984	0.000667
2968	-0.015783
2952	-0.030279
2936	0.061225
2920	0.112247
2904	0.023198
2888	0.006103
2872	-0.024580
2856	-0.055146
2840	0.000572
2824	-0.013732
2808	0.038051
2792	0.046920
2776	0.039792
2760	0.027585
2744	-0.044655
2728	-0.003385
2712	0.084257
2696	0.029993
2680	0.111198
2664	0.074005
2648	0.097465
2632	-0.011444
2616	0.142645
2600	0.071167
2584	0.003671
2568	0.035834
2552	0.017452
2536	0.018262
2520	-0.063228
2504	0.176501
2488	0.013947
2472	0.068020
2456	0.128579
2440	0.026154
2424	0.219798
2408	0.166916
2392	0.180912
2376	0.179123
2360	0.182294
2344	0.475025
2328	0.634264
2312	0.967335
2296	1.207304
2280	1.753282
2264	2.355813
2248	3.090000
2232	3.840875
2216	5.036544
2200	6.322073
2184	7.784175
2168	9.493994
2152	11.2424
2136	13.237
2120	15.112
2104	17.1107
2088	18.9829
2072	20.7554
2056	22.444
2040	23.9443
2024	25.3904
2008	26.7165
1992	27.8527
1976	28.8031
1960	29.6873
1944	30.5405
1928	31.1356
1912	31.835
1896	32.2921
1880	32.8618
1864	33.3374
1848	33.6567
1832	33.9338
1816	34.2937
1800	34.5496
1784	34.6974
1768	34.8879
1752	34.9886
1736	35.1804
1720	35.419
1704	35.4932
1688	35.699
1672	35.7187
1656	35.7417
1640	35.8498
1624	35.9439
1608	35.9642
1592	36.1004
1576	35.9688
1560	36.1596
1544	36.2058
1528	36.0902
1512	36.0125
1496	36.0902
1480	36.2744
1464	36.2147
1448	36.0248
1432	36.0373
1416	36.197
1400	36.1148
1384	35.8524
1368	35.969
1352	35.9879
1336	36.0421
1320	35.8603
1304	35.6646
1288	35.8144
1272	35.9231
1256	35.7029
1240	35.5088
1224	35.6755
1208	35.8769
1192	35.5613
1176	35.3407
1160	35.3551
1144	35.605
1128	35.5986
1112	35.1963
1096	35.0058
1080	35.1689
1064	35.3318
1048	35.0722
1032	34.8425
1016	34.9188
1000	35.0609
984	 34.8748
968	 34.3567
952	 34.247
936	 34.6787
920	 34.5252
904	 33.9988
888	 33.7473
872	 34.0877
856	 33.7308
840	 33.6186
824	 33.1378
808	 33.2092
792	 33.388
776	 32.9411
760	 32.2737
744	 32.1969
728	 32.5265
712	 32.6263
696	 32.0499
680	 31.348
664	 31.9008
648	 31.5009
632	 30.8285
616	 30.2468
600	 30.3673
584	 30.5675
568	 30.4237
552	 28.7388
536	 28.3213
520	 28.6337
504	 28.9229
488	 27.5393
472	 26.7525
456	 27.1929
440	 26.961
424	 22.9778
408	 23.4024
392	 24.2893
376	 -9.457302
370	 -13.4161

File: LPE453_t116.asc
PE IR       SPECTRUM    SPECTRUM    ASCII       PEDS        1.60
  -1
LP9B88~1.ASC
17/05/17
00:09:23.00
17/05/17
00:09:49.00
tln
$LPE453_t0116$<tbV0>[0.0,13.0,8.0,0.0,27,1,0]
27.028
64

2002,4.07
MIRTGS : RIGHTBACK : INTERNAL 2
MIR : ON : INTERNAL 2
OPTKBR

0.200000
8
8.000000
FILLER
RATIO
SPECTRUM
UNLOCKED 256

DOUBLE
64
COMBINED
1
0
0

0.002000
RATIO

1
0
TRUE
51149
0
LEFT NOT FITTED RIGHT NOT FITTED 0
NONE
NONE
15600
12
4.427000
51148
TRUE
1 0 8 72 0 0 0 0

15798

#HDR
-1
-1
#GR
µM
%T
2.38419e-05
0.0
2.000000
0.002000
12515
8
36.1501
-2.260681
#DATA
2.000000	 0.855875
2.084000	 0.040866
2.168000	 0.908863
2.252000	 -1.378040
2.336000	 0.026390
2.420000	 0.087400
2.504000	 0.174660
2.588000	 -0.022001
2.672000	 0.160358
2.756000	 0.049247
2.840000	 -0.009399
2.924000	 0.096650
3.008000	 0.070782
3.092000	 0.046132
3.176000	 0.114303
3.260000	 0.058951
3.344000	 -0.004561
3.428000	 0.055423
3.512000	 0.199956
3.596000	 0.072202
3.680000	 0.047985
3.764000	 0.037242
3.848000	 -0.029021
3.932000	 -0.076517
4.016000	 0.118666
4.100000	 0.078930
4.184000	 0.167969
4.268000	 0.388688
4.352000	 0.828818
4.436000	 2.093880
4.520000	 4.416519
4.604000	 7.853403
4.688000	 12.2503
4.772000	 16.6978
4.856000	 20.781
4.940000	 24.2296
5.024000	 26.9587
5.108000	 29.0247
5.192000	 30.6074
5.276000	 31.9577
5.359999	 32.7399
5.444000	 33.5438
5.528000	 34.1019
5.612000	 34.4707
5.696000	 34.9179
5.780000	 35.0627
5.864000	 35.3917
5.948000	 35.5376
6.032000	 35.5894
6.116000	 35.7917
6.200000	 35.6315
6.284000	 35.8383
6.368000	 35.9954
6.452000	 35.8285
6.536000	 35.9519
6.620000	 36.1391
6.704000	 35.7569
6.788000	 35.7371
6.872000	 35.9883
6.956000	 35.922
7.040000	 35.7501
7.124000	 35.6861
7.208000	 35.916
7.292000	 35.8285
7.376000	 35.5134
7.460000	 35.5775
7.544000	 35.7134
7.628000	 35.7123
7.712000	 35.4975
7.796000	 35.2809
7.880000	 35.3838
7.964000	 35.4691
8.048000	 35.2983
8.132000	 35.0665
8.216000	 34.9119
8.300000	 34.979
8.384000	 35.2368
8.468000	 35.0386
8.552000	 34.6411
8.635999	 34.4898
8.719999	 34.723
8.804000	 34.9106
8.888000	 34.8145
8.972000	 34.4965
9.056000	 34.2589
9.140000	 34.2009
9.224000	 34.2597
9.308000	 34.1621
9.391999	 34.5639
9.475999	 34.5347
9.560000	 34.116
9.644000	 33.8554
9.728000	 33.7283
9.812000	 33.828
9.896000	 33.9563
9.980000	 33.9699
10.064	34.0088
10.148	33.7842
10.232	33.6307
10.316	33.4994
10.4	33.1983
10.484	33.2775
10.568	33.357
10.652	33.5948
10.736	33.6398
10.82	33.5532
10.904	33.1485
10.988	33.0023
11.072	32.8046
11.156	32.5385
11.24	32.6662
11.324	32.9585
11.408	33.1343
11.492	33.16
11.576	33.055
11.66	32.7908
11.744	32.4335
11.828	32.1891
11.912	32.0019
11.996	31.9366
12.08	31.8812
12.164	31.8945
12.248	32.0259
12.332	32.0933
12.416	32.1852
12.5	32.089
12.584	32.0913
12.668	31.9396
12.752	31.6536
12.836	31.5301
12.92	31.3697
13.004	31.2077
13.088	31.1586
13.172	31.1656
13.256	31.302
13.34	31.3613
13.424	31.4113
13.508	31.5642
13.592	31.4069
13.676	31.1744
13.76	31.1232
13.844	31.0411
13.928	30.8906
14.012	30.7398
14.096	30.6056
14.18	30.4586
14.264	30.2321
14.348	30.0197
14.432	29.9906
14.516	30.1661
14.6	30.3387
14.684	30.411
14.768	30.4408
14.852	30.4058
14.936	30.3211
15.02	30.2052
15.104	30.0846
15.188	29.9899
15.272	29.883
15.356	29.7097
15.44	29.438
15.524	29.1374
15.608	28.9644
15.692	28.9575
15.776	28.9599
15.86	28.8787
15.944	28.8468
16.028	28.9722
16.112	29.1694
16.196	29.3061
16.28	29.3107
16.364	29.1916
16.448	29.0704
16.532	29.0721
16.616	29.148
16.7	29.1259
16.784	28.9605
16.868	28.793
16.952	28.7074
17.036	28.6058
17.12	28.4176
17.204	28.2322
17.288	28.1214
17.372	28.0535
17.456	28.0172
17.54	28.0183
17.624	27.9725
17.708	27.798
17.792	27.5785
17.876	27.475
17.96	27.5232
18.044	27.6371
18.128	27.753
18.212	27.8667
18.296	27.9699
18.38	28.0372
18.464	28.0765
18.548	28.1265
18.632	28.1794
18.716	28.1528
18.8	27.9595
18.884	27.6034
18.968	27.205
19.052	26.9232
19.136	26.8292
19.22	26.8602
19.304	26.9107
19.388	26.9455
19.472	26.9973
19.556	27.0689
19.64	27.0873
19.724	26.9854
19.808	26.7863
19.892	26.584
19.976	26.4451
20.06	26.3626
20.144	26.2989
20.228	26.2492
20.312	26.2478
20.396	26.3244
20.48	26.4709
20.564	26.6368
20.648	26.7439
20.732	26.7071
20.816	26.4761
20.9	26.0751
20.984	25.6187
21.068	25.2607
21.152	25.1098
21.236	25.1728
21.32	25.3588
21.404	25.5471
21.488	25.6537
21.572	25.6587
21.656	25.5875
21.74	25.4778
21.824	25.352
21.908	25.2059
21.992	25.0148
22.076	24.7526
22.16	24.4122
22.244	24.0366
22.328	23.7091
22.412	23.523
22.496	23.5416
22.58	23.7677
22.664	24.1487
22.748	24.5944
22.832	25.0154
22.916	25.3354
23	25.5147
23.084	25.5464
23.168	25.4388
23.252	25.2007
23.336	24.8407
23.42	24.3742
23.504	23.8347
23.588	23.2836
23.672	22.8014
23.756	22.4711
23.84	22.3377
23.924	22.3876
24.008	22.5507
24.092	22.7153
24.176	22.7609
24.26	22.6078
24.344	22.2435
24.428	21.732
24.512	21.1961
24.596	20.7838
24.68	20.5973
24.764	20.6297
24.848	20.7837
24.932	20.9178
25.016	20.926
25.1	20.7721
25.184	20.5314
25.268	20.3558
25.352	20.3899
25.436	20.7098
25.52	21.2489
25.604	21.8152
25.688	22.1824
25.772	22.1815
25.856	21.7668
25.94	21.009
26.024	20.1032
26.108	19.324
26.192	19.0622
26.276	19.7178
26.36	21.6147
26.444	24.6935
26.528	28.4424
26.612	32.0158
26.696	34.4996
26.78	35.2228
26.864	34.0799
26.948	31.4936
27.028	28.3298