Folder: Masteroppgave/Bakgrunnsmateriale/MATLAB/FTIR/ftir_data/subBb/Mapping_121 (part 52)

File: C-4040-8_t121_cm-1.asc
PE IR       SPECTRUM    SPECTRUM    ASCII       PEDS        1.60
  -1
C-468B~1.ASC
17/03/28
00:40:25.00
17/03/28
00:40:25.00
tln
$C-4040-8_t0121$<tbV0>[-13.0,13.0,8.0,0.0,27,1,0]
370
64

2002,4.07
MIRTGS : RIGHTBACK : INTERNAL 2
MIR : ON : INTERNAL 2
OPTKBR

0.200000
8
8.000000
FILLER
RATIO
SPECTRUM
UNLOCKED 256

DOUBLE
64
COMBINED
1
0
0

1.000000
RATIO

1
0
TRUE
51149
0
LEFT NOT FITTED RIGHT NOT FITTED 0
NONE
NONE
15600
12
4.427000
51148
TRUE
1 0 8 72 0 0 0 0

15798

#HDR
-1
-1
#GR
CM-1
%T
2.38419e-05
0.0
5000
-1.000000
4631
8
84.1635
42.2758
#DATA
5000	64.5864
4984	64.9972
4968	64.6597
4952	63.8517
4936	65.0581
4920	64.969
4904	64.7922
4888	64.3848
4872	65.0243
4856	64.5343
4840	64.7985
4824	64.6174
4808	64.6863
4792	64.5936
4776	64.4635
4760	64.6591
4744	64.9449
4728	64.4083
4712	64.3995
4696	64.6974
4680	64.2906
4664	64.6979
4648	64.5459
4632	64.7363
4616	64.1292
4600	65.0693
4584	64.9683
4568	65.0202
4552	65.742
4536	65.3608
4520	65.2351
4504	65.1981
4488	65.1207
4472	65.2701
4456	66.1566
4440	66.1656
4424	66.4583
4408	59.5851
4392	49.3032
4376	67.0609
4360	64.9301
4344	65.2095
4328	65.801
4312	65.7475
4296	65.35
4280	65.2279
4264	64.6905
4248	64.8405
4232	65.3532
4216	65.1355
4200	64.8558
4184	63.2767
4168	64.2466
4152	64.7578
4136	64.5052
4120	64.7631
4104	64.6274
4088	64.8484
4072	64.9207
4056	64.775
4040	64.819
4024	64.8228
4008	64.9086
3992	64.7808
3976	64.9683
3960	65.1005
3944	65.1657
3928	64.7127
3912	64.8152
3896	64.7133
3880	64.817
3864	65.1678
3848	65.1557
3832	64.9626
3816	65.3473
3800	64.8206
3784	65.0311
3768	64.9856
3752	64.805
3736	64.8736
3720	64.9419
3704	65.0478
3688	64.9722
3672	64.9344
3656	64.7683
3640	64.9149
3624	64.9369
3608	64.9683
3592	64.9193
3576	64.8182
3560	65.3705
3544	65.0404
3528	64.7762
3512	64.8713
3496	64.9261
3480	64.9052
3464	65.2222
3448	64.9801
3432	64.8445
3416	65.0361
3400	65.0064
3384	64.8135
3368	64.9678
3352	64.7658
3336	64.6775
3320	64.8755
3304	64.6263
3288	64.858
3272	64.6616
3256	65.0127
3240	64.5555
3224	64.7079
3208	64.8287
3192	64.8085
3176	64.7762
3160	64.7982
3144	64.6332
3128	64.8468
3112	64.8991
3096	64.8814
3080	64.9599
3064	64.9406
3048	64.8277
3032	65.0576
3016	64.9188
3000	64.9246
2984	64.9283
2968	64.9435
2952	64.7472
2936	64.8224
2920	64.6888
2904	64.6583
2888	64.7728
2872	64.9017
2856	64.6214
2840	64.8639
2824	64.8504
2808	64.9534
2792	64.8264
2776	64.8136
2760	64.9653
2744	64.752
2728	64.8575
2712	64.8472
2696	65.0461
2680	64.9696
2664	64.9624
2648	64.9281
2632	64.8356
2616	64.9111
2600	64.9806
2584	64.8135
2568	64.9637
2552	65.0759
2536	65.0491
2520	64.9834
2504	65.0025
2488	64.9518
2472	65.0286
2456	65.159
2440	64.9786
2424	64.9855
2408	65.4688
2392	64.9298
2376	64.9688
2360	64.9322
2344	64.9447
2328	64.9618
2312	64.8689
2296	65.0428
2280	64.9458
2264	65.1718
2248	65.0483
2232	64.8907
2216	64.9354
2200	65.0703
2184	64.9057
2168	64.9369
2152	65.0562
2136	65.0017
2120	65.1005
2104	64.9616
2088	65.0085
2072	65.0311
2056	65.0312
2040	64.9918
2024	65.1233
2008	64.9399
1992	64.9158
1976	65.0437
1960	65.0851
1944	64.9211
1928	64.9605
1912	65.0867
1896	64.9686
1880	65.0614
1864	64.8943
1848	65.0174
1832	65.0265
1816	64.9278
1800	64.9662
1784	64.8067
1768	64.961
1752	64.8045
1736	64.4842
1720	64.7673
1704	64.8416
1688	64.7583
1672	64.8424
1656	64.7392
1640	64.7864
1624	64.7834
1608	64.7188
1592	64.7616
1576	64.6584
1560	64.7457
1544	64.6588
1528	64.8186
1512	64.6652
1496	64.6809
1480	64.9094
1464	64.7985
1448	64.5691
1432	64.8921
1416	64.6661
1400	64.521
1384	64.6554
1368	64.5725
1352	64.6087
1336	64.5452
1320	64.7585
1304	64.5255
1288	64.5544
1272	64.6182
1256	64.5451
1240	64.5443
1224	64.5198
1208	64.553
1192	64.5959
1176	64.4315
1160	64.5672
1144	64.5197
1128	64.4176
1112	64.4317
1096	64.0806
1080	64.0896
1064	64.5202
1048	64.2769
1032	64.2345
1016	64.0821
1000	64.2925
984	 64.4779
968	 64.2023
952	 64.0519
936	 64.0621
920	 64.1995
904	 64.4114
888	 63.7608
872	 64.0288
856	 63.8741
840	 64.2689
824	 63.8934
808	 63.8981
792	 63.6092
776	 63.2816
760	 63.1548
744	 64.1507
728	 62.7149
712	 62.5948
696	 62.8403
680	 62.0014
664	 62.1166
648	 62.2677
632	 62.4093
616	 61.7063
600	 62.1492
584	 61.4002
568	 61.438
552	 61.8123
536	 60.9017
520	 61.0991
504	 60.02
488	 59.7855
472	 59.7357
456	 59.9784
440	 56.511
424	 56.3961
408	 72.6416
392	 42.2758
376	 62.0749
370	 62.4125