Folder: Masteroppgave/Bakgrunnsmateriale/MATLAB/FTIR/ftir_data/subBb/Mapping_121 (part 47)

File: C-4040-8_t109.asc
PE IR       SPECTRUM    SPECTRUM    ASCII       PEDS        1.60
  -1
C-80E6~1.ASC
17/03/27
23:24:19.00
17/03/27
23:24:46.00
tln
$C-4040-8_t0109$<tbV0>[-10.4,10.4,8.0,0.0,27,1,0]
27.028
64

2002,4.07
MIRTGS : RIGHTBACK : INTERNAL 2
MIR : ON : INTERNAL 2
OPTKBR

0.200000
8
8.000000
FILLER
RATIO
SPECTRUM
UNLOCKED 256

DOUBLE
64
COMBINED
1
0
0

0.002000
RATIO

1
0
TRUE
51149
0
LEFT NOT FITTED RIGHT NOT FITTED 0
NONE
NONE
15600
12
4.427000
51148
TRUE
1 0 8 72 0 0 0 0

15798

#HDR
-1
-1
#GR
µM
%T
2.38419e-05
0.0
2.000000
0.002000
12515
8
177.474
31.6143
#DATA
2.000000	 65.0567
2.084000	 65.0787
2.168000	 65.1066
2.252000	 63.8068
2.336000	 64.7215
2.420000	 65.1058
2.504000	 65.1977
2.588000	 65.1859
2.672000	 65.2731
2.756000	 65.2512
2.840000	 65.356
2.924000	 65.2157
3.008000	 65.1588
3.092000	 65.135
3.176000	 65.1566
3.260000	 65.237
3.344000	 65.0047
3.428000	 64.7356
3.512000	 65.2279
3.596000	 65.2185
3.680000	 65.4269
3.764000	 65.3651
3.848000	 65.3386
3.932000	 65.2086
4.016000	 65.1951
4.100000	 65.1137
4.184000	 65.2877
4.268000	 65.3452
4.352000	 65.3383
4.436000	 65.3197
4.520000	 65.3379
4.604000	 65.3698
4.688000	 65.2807
4.772000	 65.1992
4.856000	 65.4894
4.940000	 65.2743
5.024000	 65.2862
5.108000	 65.218
5.192000	 65.1983
5.276000	 65.2423
5.359999	 65.2604
5.444000	 65.3166
5.528000	 65.1864
5.612000	 65.1515
5.696000	 65.1099
5.780000	 65.0962
5.864000	 65.0549
5.948000	 65.2552
6.032000	 65.2845
6.116000	 65.2556
6.200000	 65.11
6.284000	 65.0347
6.368000	 64.8271
6.452000	 65.0492
6.536000	 65.1589
6.620000	 65.1846
6.704000	 65.3867
6.788000	 65.0047
6.872000	 65.1071
6.956000	 64.9452
7.040000	 65.1196
7.124000	 65.0353
7.208000	 65.1623
7.292000	 64.9686
7.376000	 65.0044
7.460000	 65.1209
7.544000	 65.1396
7.628000	 64.7906
7.712000	 65.0699
7.796000	 65.0507
7.880000	 64.9128
7.964000	 64.9637
8.048000	 65.0562
8.132000	 64.8831
8.216000	 64.9725
8.300000	 64.8448
8.384000	 64.7646
8.468000	 64.8453
8.552000	 65.0175
8.635999	 65.034
8.719999	 64.7377
8.804000	 65.0271
8.888000	 64.6615
8.972000	 64.8715
9.056000	 64.6432
9.140000	 64.0692
9.224000	 64.2309
9.308000	 64.6977
9.391999	 64.6188
9.475999	 64.3115
9.560000	 64.4998
9.644000	 64.547
9.728000	 64.3904
9.812000	 64.179
9.896000	 64.4144
9.980000	 64.6126
10.064	64.472
10.148	64.3636
10.232	64.533
10.316	64.6686
10.4	64.6434
10.484	64.4075
10.568	64.352
10.652	64.4522
10.736	64.494
10.82	64.63
10.904	64.454
10.988	64.6142
11.072	64.5328
11.156	64.3991
11.24	64.0056
11.324	63.79
11.408	63.9269
11.492	64.1116
11.576	63.9767
11.66	63.7007
11.744	63.6083
11.828	63.91
11.912	64.1558
11.996	63.7235
12.08	63.4147
12.164	63.6967
12.248	64.0632
12.332	64.1334
12.416	64.0232
12.5	64.2477
12.584	64.1516
12.668	64.011
12.752	64.0214
12.836	63.9674
12.92	63.7849
13.004	63.723
13.088	63.8738
13.172	63.7439
13.256	63.8294
13.34	64.1068
13.424	63.7543
13.508	62.9571
13.592	63.0277
13.676	63.3646
13.76	63.2888
13.844	63.2349
13.928	63.3209
14.012	63.3664
14.096	63.3504
14.18	63.2952
14.264	63.2268
14.348	63.0273
14.432	62.9509
14.516	63.0873
14.6	63.1436
14.684	63.0153
14.768	62.823
14.852	62.6907
14.936	62.6374
15.02	62.5523
15.104	62.3126
15.188	62.0742
15.272	62.0155
15.356	62.1408
15.44	62.3199
15.524	62.4002
15.608	62.5187
15.692	62.7219
15.776	62.8115
15.86	62.8666
15.944	63.0067
16.028	63.0692
16.112	62.9333
16.196	62.6288
16.28	62.2641
16.364	62.0473
16.448	62.1416
16.532	62.504
16.616	62.8409
16.7	62.8091
16.784	62.4358
16.868	62.1028
16.952	62.0378
17.036	62.0872
17.12	62.0402
17.204	61.917
17.288	61.8672
17.372	61.9033
17.456	61.9199
17.54	61.9235
17.624	62.004
17.708	62.1378
17.792	62.2616
17.876	62.433
17.96	62.6537
18.044	62.6971
18.128	62.3888
18.212	61.9045
18.296	61.5843
18.38	61.5501
18.464	61.6302
18.548	61.5934
18.632	61.3689
18.716	61.0747
18.8	60.8791
18.884	60.8508
18.968	60.9372
19.052	61.0626
19.136	61.1788
19.22	61.2482
19.304	61.2575
19.388	61.2585
19.472	61.3379
19.556	61.5017
19.64	61.6065
19.724	61.4689
19.808	61.0448
19.892	60.4918
19.976	60.0688
20.06	59.9597
20.144	60.149
20.228	60.4414
20.312	60.6122
20.396	60.57
20.48	60.3832
20.564	60.1854
20.648	60.0474
20.732	59.9403
20.816	59.8213
20.9	59.6921
20.984	59.584
21.068	59.4948
21.152	59.3685
21.236	59.1454
21.32	58.8298
21.404	58.5237
21.488	58.3978
21.572	58.5942
21.656	59.139
21.74	59.8842
21.824	60.5072
21.908	60.6477
21.992	60.1343
22.076	59.1109
22.16	57.9964
22.244	57.216
22.328	56.9511
22.412	57.1138
22.496	57.43
22.58	57.6511
22.664	57.6426
22.748	57.3987
22.832	56.9962
22.916	56.5316
23	56.0994
23.084	55.8176
23.168	55.7832
23.252	56.0406
23.336	56.6186
23.42	57.4806
23.504	58.4721
23.588	59.3764
23.672	59.9651
23.756	59.9779
23.84	59.2315
23.924	57.7437
24.008	55.7403
24.092	53.5769
24.176	51.6378
24.26	50.0974
24.344	48.966
24.428	48.2759
24.512	48.2531
24.596	49.4578
24.68	52.5194
24.764	57.6087
24.848	64.2341
24.932	70.8152
25.016	75.1072
25.1	75.146
25.184	70.0085
25.268	60.5623
25.352	49.238
25.436	39.2029
25.52	33.017
25.604	31.7958
25.688	35.3673
25.772	42.5313
25.856	51.7286
25.94	61.3179
26.024	69.863
26.108	76.4319
26.192	81.3054
26.276	85.8071
26.36	91.7925
26.444	100.636
26.528	112.565
26.612	126.326
26.696	140.055
26.78	152.185
26.864	162.143
26.948	170.388
27.028	177.474

File: C-4040-8_t109_cm-1.asc
PE IR       SPECTRUM    SPECTRUM    ASCII       PEDS        1.60
  -1
C-4E8C~1.ASC
17/03/27
23:24:19.00
17/03/27
23:24:19.00
tln
$C-4040-8_t0109$<tbV0>[-10.4,10.4,8.0,0.0,27,1,0]
370
64

2002,4.07
MIRTGS : RIGHTBACK : INTERNAL 2
MIR : ON : INTERNAL 2
OPTKBR

0.200000
8
8.000000
FILLER
RATIO
SPECTRUM
UNLOCKED 256

DOUBLE
64
COMBINED
1
0
0

1.000000
RATIO

1
0
TRUE
51149
0
LEFT NOT FITTED RIGHT NOT FITTED 0
NONE
NONE
15600
12
4.427000
51148
TRUE
1 0 8 72 0 0 0 0

15798

#HDR
-1
-1
#GR
CM-1
%T
2.38419e-05
0.0
5000
-1.000000
4631
8
177.474
31.6305
#DATA
5000	65.0567
4984	65.3642
4968	64.8017
4952	65.1818
4936	65.2174
4920	65.2567
4904	65.2085
4888	64.943
4872	65.4873
4856	65.2799
4840	64.9186
4824	65.1118
4808	65.1819
4792	65.1388
4776	64.8589
4760	65.3835
4744	65.1159
4728	65.0417
4712	65.0099
4696	65.2478
4680	64.9695
4664	65.1076
4648	65.5723
4632	65.1658
4616	65.1911
4600	64.8645
4584	65.6671
4568	64.776
4552	64.9914
4536	64.1425
4520	65.6223
4504	64.9614
4488	65.5582
4472	64.4808
4456	64.7071
4440	63.8057
4424	65.2004
4408	64.8957
4392	64.9102
4376	66.4319
4360	65.5012
4344	64.3568
4328	65.4116
4312	64.4791
4296	64.5982
4280	64.6889
4264	65.1272
4248	64.2731
4232	65.0355
4216	64.4624
4200	64.7984
4184	64.4936
4168	65.4582
4152	64.6254
4136	65.2911
4120	65.0688
4104	65.2114
4088	65.0736
4072	65.0051
4056	65.2708
4040	65.0723
4024	65.4758
4008	65.2455
3992	65.2705
3976	65.0187
3960	65.2263
3944	64.8526
3928	65.1014
3912	65.4052
3896	65.0112
3880	65.2766
3864	65.1858
3848	65.0258
3832	65.0959
3816	65.2859
3800	64.9779
3784	65.0798
3768	65.3866
3752	65.3467
3736	65.3604
3720	65.2302
3704	65.0738
3688	65.2087
3672	65.1653
3656	65.2344
3640	65.1264
3624	65.4917
3608	65.1911
3592	65.4247
3576	65.3855
3560	65.2425
3544	64.9403
3528	65.1088
3512	65.5874
3496	65.2169
3480	64.8155
3464	65.3658
3448	65.1371
3432	65.2067
3416	65.2611
3400	64.9607
3384	64.924
3368	65.3359
3352	65.0961
3336	65.278
3320	64.9862
3304	65.0876
3288	65.0095
3272	65.0856
3256	65.2215
3240	65.1536
3224	65.0657
3208	65.4637
3192	64.944
3176	65.2536
3160	65.2824
3144	65.1437
3128	64.9539
3112	65.2616
3096	65.1487
3080	65.0761
3064	65.1729
3048	65.1033
3032	65.4016
3016	65.1112
3000	65.2993
2984	64.904
2968	65.0414
2952	65.1114
2936	65.1768
2920	64.6586
2904	65.1499
2888	65.192
2872	65.0568
2856	65.4455
2840	65.25
2824	65.2429
2808	65.1252
2792	65.4708
2776	65.1783
2760	65.2316
2744	65.2286
2728	65.3776
2712	65.3289
2696	65.3802
2680	65.2601
2664	65.4119
2648	65.3002
2632	65.1884
2616	65.201
2600	65.3312
2584	65.2746
2568	65.3313
2552	65.1938
2536	65.2947
2520	65.249
2504	65.308
2488	65.2543
2472	65.459
2456	65.1418
2440	65.1453
2424	64.8964
2408	64.9157
2392	65.3011
2376	65.1681
2360	65.312
2344	65.3573
2328	65.222
2312	65.2838
2296	65.3574
2280	65.3781
2264	65.3098
2248	65.2716
2232	65.3505
2216	65.4282
2200	65.3192
2184	65.3129
2168	65.4622
2152	65.533
2136	65.3408
2120	65.2596
2104	65.3521
2088	65.2835
2072	65.6428
2056	65.1735
2040	65.3982
2024	65.2801
2008	65.2256
1992	65.3148
1976	65.2715
1960	65.2682
1944	65.2831
1928	65.239
1912	65.1755
1896	65.2631
1880	65.168
1864	65.2788
1848	65.3643
1832	65.3762
1816	65.2694
1800	65.2236
1784	65.1167
1768	65.3897
1752	65.0173
1736	65.0504
1720	64.8956
1704	65.036
1688	65.2898
1672	65.143
1656	65.2412
1640	65.2291
1624	65.1154
1608	65.1725
1592	65.0354
1576	64.9004
1560	64.9062
1544	65.1129
1528	65.1515
1512	65.1736
1496	65.4014
1480	65.1682
1464	64.9916
1448	65.0296
1432	64.9909
1416	65.1307
1400	65.0018
1384	65.1798
1368	64.9882
1352	65.0332
1336	64.9967
1320	65.171
1304	64.8561
1288	65.0716
1272	65.0314
1256	64.9636
1240	64.9906
1224	64.9629
1208	64.8936
1192	64.7618
1176	64.9527
1160	65.0737
1144	64.842
1128	64.6472
1112	64.883
1096	64.0985
1080	64.419
1064	64.5897
1048	64.4432
1032	64.5138
1016	64.1274
1000	64.6071
984	 64.3638
968	 64.7086
952	 64.3791
936	 64.4635
920	 64.5945
904	 64.5724
888	 63.9046
872	 64.0839
856	 63.6713
840	 64.1739
824	 63.5216
808	 64.0494
792	 64.0572
776	 63.8652
760	 63.7702
744	 63.5823
728	 63.3313
712	 63.3689
696	 62.9847
680	 62.9644
664	 62.454
648	 62.3068
632	 62.8317
616	 62.4617
600	 62.8756
584	 62.036
568	 61.9788
552	 62.4515
536	 61.2811
520	 61.2525
504	 60.8269
488	 60.3534
472	 59.2908
456	 60.5784
440	 57.477
424	 59.3477
408	 48.2397
392	 33.4865
376	 123.627
370	 177.474

File: C-4040-8_t110.asc
PE IR       SPECTRUM    SPECTRUM    ASCII       PEDS        1.60
  -1
C-8CB8~1.ASC
17/03/27
23:28:56.00
17/03/27
23:29:23.00
tln
$C-4040-8_t0110$<tbV0>[-13.0,10.4,8.0,0.0,27,1,0]
27.028
64

2002,4.07
MIRTGS : RIGHTBACK : INTERNAL 2
MIR : ON : INTERNAL 2
OPTKBR

0.200000
8
8.000000
FILLER
RATIO
SPECTRUM
UNLOCKED 256

DOUBLE
64
COMBINED
1
0
0

0.002000
RATIO

1
0
TRUE
51149
0
LEFT NOT FITTED RIGHT NOT FITTED 0
NONE
NONE
15600
12
4.427000
51148
TRUE
1 0 8 72 0 0 0 0

15798

#HDR
-1
-1
#GR
µM
%T
2.38419e-05
0.0
2.000000
0.002000
12515
8
189.675
46.225
#DATA
2.000000	 65.4393
2.084000	 64.8935
2.168000	 64.8069
2.252000	 65.0264
2.336000	 64.8304
2.420000	 64.8427
2.504000	 65.0995
2.588000	 65.1562
2.672000	 65.1681
2.756000	 65.1987
2.840000	 65.1589
2.924000	 64.8929
3.008000	 65.0209
3.092000	 64.9888
3.176000	 64.966
3.260000	 65.1458
3.344000	 65.1332
3.428000	 64.7308
3.512000	 64.7139
3.596000	 65.1883
3.680000	 65.2012
3.764000	 65.2336
3.848000	 65.0979
3.932000	 65.3195
4.016000	 65.3595
4.100000	 65.0641
4.184000	 65.2792
4.268000	 65.0169
4.352000	 65.2995
4.436000	 65.1196
4.520000	 65.0773
4.604000	 65.2569
4.688000	 65.0669
4.772000	 65.2154
4.856000	 65.1518
4.940000	 65.2708
5.024000	 65.2348
5.108000	 65.1739
5.192000	 65.2843
5.276000	 65.3427
5.359999	 65.1637
5.444000	 65.3236
5.528000	 65.2568
5.612000	 65.1814
5.696000	 65.2222
5.780000	 64.9009
5.864000	 65.2244
5.948000	 65.1987
6.032000	 65.1141
6.116000	 65.2583
6.200000	 65.0476
6.284000	 65.1066
6.368000	 64.8623
6.452000	 65.0526
6.536000	 65.1098
6.620000	 64.9545
6.704000	 65.2296
6.788000	 65.0427
6.872000	 64.9648
6.956000	 65.0661
7.040000	 65.0613
7.124000	 65.0914
7.208000	 64.9249
7.292000	 64.8868
7.376000	 64.9793
7.460000	 64.9208
7.544000	 64.8377
7.628000	 64.6294
7.712000	 64.7655
7.796000	 64.7863
7.880000	 64.7201
7.964000	 64.9954
8.048000	 64.9226
8.132000	 64.8251
8.216000	 64.8968
8.300000	 64.7207
8.384000	 64.7994
8.468000	 64.8046
8.552000	 64.9243
8.635999	 64.9047
8.719999	 64.6481
8.804000	 64.6645
8.888000	 64.6783
8.972000	 64.7913
9.056000	 64.7669
9.140000	 64.6384
9.224000	 64.6464
9.308000	 64.8472
9.391999	 64.6
9.475999	 64.4855
9.560000	 64.6349
9.644000	 64.4694
9.728000	 64.9806
9.812000	 64.6766
9.896000	 64.4261
9.980000	 64.2885
10.064	64.5842
10.148	64.7423
10.232	64.4078
10.316	64.5226
10.4	64.336
10.484	64.5418
10.568	64.4649
10.652	64.4982
10.736	64.6022
10.82	64.9914
10.904	64.8868
10.988	64.4868
11.072	64.3399
11.156	64.3519
11.24	64.6441
11.324	64.1486
11.408	64.3539
11.492	64.7849
11.576	64.7123
11.66	65.1346
11.744	64.6702
11.828	63.8613
11.912	63.9671
11.996	64.5759
12.08	64.8192
12.164	63.8366
12.248	63.6128
12.332	63.737
12.416	63.8013
12.5	63.9746
12.584	64.1901
12.668	63.9881
12.752	63.7732
12.836	63.6818
12.92	63.6926
13.004	63.8354
13.088	63.8936
13.172	63.9566
13.256	63.869
13.34	63.6191
13.424	63.1484
13.508	62.5949
13.592	62.7201
13.676	63.1396
13.76	63.3134
13.844	63.3249
13.928	63.2983
14.012	62.9451
14.096	62.7527
14.18	63.0074
14.264	63.0961
14.348	63.0134
14.432	63.0453
14.516	63.1455
14.6	63.3524
14.684	63.4613
14.768	63.275
14.852	62.9888
14.936	62.9759
15.02	63.1396
15.104	62.9638
15.188	62.584
15.272	62.525
15.356	62.7602
15.44	62.8243
15.524	62.5579
15.608	62.3949
15.692	62.5813
15.776	62.7707
15.86	62.7586
15.944	62.737
16.028	62.7997
16.112	62.7841
16.196	62.5967
16.28	62.3771
16.364	62.2335
16.448	62.1493
16.532	62.2064
16.616	62.4015
16.7	62.4649
16.784	62.2867
16.868	62.0545
16.952	61.8717
17.036	61.7393
17.12	61.7779
17.204	62.0068
17.288	62.1389
17.372	61.93
17.456	61.5267
17.54	61.2731
17.624	61.2955
17.708	61.4308
17.792	61.4984
17.876	61.501
17.96	61.5452
18.044	61.6601
18.128	61.7697
18.212	61.775
18.296	61.6237
18.38	61.3486
18.464	61.0743
18.548	60.9455
18.632	60.9981
18.716	61.1155
18.8	61.1142
18.884	60.8867
18.968	60.4801
19.052	60.0841
19.136	59.9305
19.22	60.1287
19.304	60.5662
19.388	60.9948
19.472	61.2414
19.556	61.2995
19.64	61.2423
19.724	61.1157
19.808	60.9504
19.892	60.8161
19.976	60.7761
20.06	60.7638
20.144	60.5861
20.228	60.1023
20.312	59.41
20.396	58.8118
20.48	58.5776
20.564	58.7211
20.648	59.0101
20.732	59.1698
20.816	59.0925
20.9	58.8852
20.984	58.7536
21.068	58.8332
21.152	59.0861
21.236	59.3439
21.32	59.4313
21.404	59.28
21.488	58.9442
21.572	58.532
21.656	58.1499
21.74	57.8732
21.824	57.7449
21.908	57.784
21.992	57.9739
22.076	58.2555
22.16	58.5464
22.244	58.7768
22.328	58.9241
22.412	59.0115
22.496	59.0804
22.58	59.1614
22.664	59.2425
22.748	59.2473
22.832	59.0658
22.916	58.5856
23	57.788
23.084	56.7764
23.168	55.7952
23.252	55.1307
23.336	55.0165
23.42	55.5068
23.504	56.4671
23.588	57.6213
23.672	58.6757
23.756	59.3969
23.84	59.6261
23.924	59.3044
24.008	58.4507
24.092	57.1436
24.176	55.5348
24.26	53.7874
24.344	52.0656
24.428	50.4918
24.512	49.1086
24.596	47.9655
24.68	47.1009
24.764	46.4931
24.848	46.2308
24.932	46.319
25.016	46.6227
25.1	47.0062
25.184	47.4164
25.268	47.9569
25.352	48.8724
25.436	50.4037
25.52	52.6431
25.604	55.4943
25.688	58.6836
25.772	61.8528
25.856	64.7007
25.94	67.0157
26.024	68.7268
26.108	69.962
26.192	71.225
26.276	73.4155
26.36	77.5101
26.444	84.6062
26.528	95.5153
26.612	110.464
26.696	128.675
26.78	148.323
26.864	166.715
26.948	181.16
27.028	189.675

File: C-4040-8_t110_cm-1.asc
PE IR       SPECTRUM    SPECTRUM    ASCII       PEDS        1.60
  -1
C-4509~1.ASC
17/03/27
23:28:56.00
17/03/27
23:28:56.00
tln
$C-4040-8_t0110$<tbV0>[-13.0,10.4,8.0,0.0,27,1,0]
370
64

2002,4.07
MIRTGS : RIGHTBACK : INTERNAL 2
MIR : ON : INTERNAL 2
OPTKBR

0.200000
8
8.000000
FILLER
RATIO
SPECTRUM
UNLOCKED 256

DOUBLE
64
COMBINED
1
0
0

1.000000
RATIO

1
0
TRUE
51149
0
LEFT NOT FITTED RIGHT NOT FITTED 0
NONE
NONE
15600
12
4.427000
51148
TRUE
1 0 8 72 0 0 0 0

15798

#HDR
-1
-1
#GR
CM-1
%T
2.38419e-05
0.0
5000
-1.000000
4631
8
189.675
46.227
#DATA
5000	65.4393
4984	65.1695
4968	63.9886
4952	65.409
4936	64.775
4920	65.0338
4904	64.8946
4888	64.7118
4872	65.3081
4856	64.9767
4840	64.8381
4824	64.5433
4808	64.78
4792	65.1329
4776	64.6698
4760	65.2922
4744	64.6554
4728	64.6882
4712	65.0106
4696	64.9601
4680	64.897
4664	64.9572
4648	65.279
4632	65.2592
4616	64.9677
4600	65.0946
4584	65.3382
4568	64.9096
4552	64.9426
4536	63.8638
4520	64.9953
4504	64.3499
4488	64.9231
4472	64.7359
4456	64.4701
4440	64.983
4424	64.4512
4408	62.5173
4392	64.5834
4376	65.5556
4360	64.8376
4344	64.4464
4328	64.7085
4312	64.5681
4296	64.434
4280	64.8383
4264	65.092
4248	64.8547
4232	64.6893
4216	64.6915
4200	64.8123
4184	64.9577
4168	64.9708
4152	64.8762
4136	64.7422
4120	65.0651
4104	65.1793
4088	64.7516
4072	64.6839
4056	65.1777
4040	64.8112
4024	65.2417
4008	65.0953
3992	65.1419
3976	65.1495
3960	65.1054
3944	65.0129
3928	64.7877
3912	65.0748
3896	64.8417
3880	64.9587
3864	65.1556
3848	65.0038
3832	65.0238
3816	64.9829
3800	64.9833
3784	65.0961
3768	65.3816
3752	65.1944
3736	65.1662
3720	64.9768
3704	65.2156
3688	65.1694
3672	64.9521
3656	65.052
3640	64.9921
3624	65.4331
3608	64.9524
3592	65.1945
3576	65.3048
3560	65.0643
3544	65.0135
3528	65.1662
3512	65.4485
3496	65.1215
3480	64.7076
3464	65.08
3448	64.8203
3432	65.1359
3416	65.0012
3400	65.1135
3384	64.8927
3368	64.9395
3352	65.07
3336	64.9305
3320	64.9491
3304	65.0175
3288	65.1605
3272	65.1573
3256	65.1154
3240	65.1057
3224	65.2688
3208	65.1124
3192	64.9132
3176	65.007
3160	65.0696
3144	65.0379
3128	65.0365
3112	64.9886
3096	65.0848
3080	65.0119
3064	65.1364
3048	65.0751
3032	65.1853
3016	65.0656
3000	65.3395
2984	64.9721
2968	64.9848
2952	64.9132
2936	65.1381
2920	64.6646
2904	64.8563
2888	64.9688
2872	64.8083
2856	65.0681
2840	64.9052
2824	65.0785
2808	65.0985
2792	65.2528
2776	65.2324
2760	65.2473
2744	65.1529
2728	65.2353
2712	65.1518
2696	65.2426
2680	65.1789
2664	65.4012
2648	65.2992
2632	65.1151
2616	65.1711
2600	65.1154
2584	65.2196
2568	65.1392
2552	65.1513
2536	65.2167
2520	65.0697
2504	65.3567
2488	65.3691
2472	65.4559
2456	65.2721
2440	65.0553
2424	64.7295
2408	65.006
2392	65.2907
2376	65.4245
2360	65.1718
2344	65.0014
2328	65.1693
2312	65.274
2296	65.3009
2280	65.276
2264	65.0958
2248	65.2229
2232	65.2102
2216	65.137
2200	65.2632
2184	65.2614
2168	65.2966
2152	65.2628
2136	64.9387
2120	65.294
2104	65.234
2088	65.1176
2072	65.5596
2056	64.9566
2040	65.2948
2024	65.2692
2008	65.3283
1992	65.2347
1976	65.2763
1960	65.2179
1944	65.2038
1928	65.284
1912	65.1709
1896	65.3507
1880	65.0959
1864	65.1603
1848	65.1796
1832	65.3059
1816	65.363
1800	65.2143
1784	65.1834
1768	65.258
1752	65.1716
1736	64.9607
1720	65.012
1704	65.2473
1688	65.1943
1672	65.1147
1656	65.0538
1640	65.3261
1624	65.067
1608	65.0411
1592	65.1131
1576	64.957
1560	65.0001
1544	65.0165
1528	65.0816
1512	64.9439
1496	65.3161
1480	65.0262
1464	65.0725
1448	65.0576
1432	65.0151
1416	65.0731
1400	65.0466
1384	64.934
1368	64.9361
1352	65.0684
1336	64.8153
1320	64.8149
1304	64.6955
1288	64.8847
1272	64.7555
1256	64.9881
1240	64.887
1224	64.8352
1208	64.7581
1192	64.7933
1176	64.7812
1160	64.9466
1144	64.6088
1128	64.7197
1112	64.8344
1096	64.5998
1080	64.8035
1064	64.5997
1048	64.6703
1032	64.7488
1016	64.4952
1000	64.2425
984	 64.666
968	 64.5372
952	 64.5779
936	 64.5101
920	 65.059
904	 64.3946
888	 64.5384
872	 64.7379
856	 65.1478
840	 63.9346
824	 64.1889
808	 63.7456
792	 64.1438
776	 63.6561
760	 63.9495
744	 63.0153
728	 63.2956
712	 62.8055
696	 63.011
680	 63.4397
664	 63.1118
648	 62.8352
632	 62.7803
616	 62.4908
600	 62.4717
584	 61.7841
568	 61.2727
552	 61.7584
536	 61.0343
520	 60.1758
504	 60.888
488	 58.5778
472	 59.2031
456	 57.8206
440	 59.2587
424	 57.5796
408	 49.1419
392	 52.3476
376	 107.283
370	 189.675

File: C-4040-8_t111.asc
PE IR       SPECTRUM    SPECTRUM    ASCII       PEDS        1.60
  -1
C-80C8~1.ASC
17/03/27
23:39:47.00
17/03/27
23:40:13.00
tln
$C-4040-8_t0111$<tbV0>[13.0,13.0,8.0,0.0,27,1,0]
27.028
64

2002,4.07
MIRTGS : RIGHTBACK : INTERNAL 2
MIR : ON : INTERNAL 2
OPTKBR

0.200000
8
8.000000
FILLER
RATIO
SPECTRUM
UNLOCKED 256

DOUBLE
64
COMBINED
1
0
0

0.002000
RATIO

1
0
TRUE
51149
0
LEFT NOT FITTED RIGHT NOT FITTED 0
NONE
NONE
15600
12
4.427000
51148
TRUE
1 0 8 72 0 0 0 0

15798

#HDR
-1
-1
#GR
µM
%T
2.38419e-05
0.0
2.000000
0.002000
12515
8
117.454
51.8179
#DATA
2.000000	 62.6936
2.084000	 63.2797
2.168000	 62.8355
2.252000	 62.4196
2.336000	 63.2006
2.420000	 63.1222
2.504000	 62.8932
2.588000	 62.9686
2.672000	 63.1388
2.756000	 63.0361
2.840000	 63.3189
2.924000	 62.8946
3.008000	 63.2667
3.092000	 62.9976
3.176000	 63.2543
3.260000	 63.3933
3.344000	 63.0446
3.428000	 62.6895
3.512000	 63.1624
3.596000	 63.2538
3.680000	 63.1741
3.764000	 63.1554
3.848000	 63.5079
3.932000	 63.4356
4.016000	 63.2047
4.100000	 63.306
4.184000	 63.413
4.268000	 63.4696
4.352000	 63.4931
4.436000	 63.1964
4.520000	 63.2899
4.604000	 63.3429
4.688000	 63.4067
4.772000	 63.526
4.856000	 63.6384
4.940000	 63.3334
5.024000	 63.3361
5.108000	 63.2676
5.192000	 63.3305
5.276000	 63.4114
5.359999	 63.3302
5.444000	 63.3957
5.528000	 63.3897
5.612000	 63.3887
5.696000	 63.2757
5.780000	 63.0642
5.864000	 63.4277
5.948000	 63.3053
6.032000	 63.1942
6.116000	 63.2742
6.200000	 63.342
6.284000	 63.2346
6.368000	 63.1507
6.452000	 63.226
6.536000	 63.3691
6.620000	 63.2188
6.704000	 63.29
6.788000	 63.0469
6.872000	 63.1594
6.956000	 63.2346
7.040000	 63.2728
7.124000	 63.4583
7.208000	 63.3049
7.292000	 63.3382
7.376000	 63.4098
7.460000	 63.1404
7.544000	 63.2921
7.628000	 63.206
7.712000	 63.0383
7.796000	 63.0839
7.880000	 62.881
7.964000	 62.9869
8.048000	 62.6636
8.132000	 62.7206
8.216000	 62.8842
8.300000	 62.7624
8.384000	 62.8618
8.468000	 62.89
8.552000	 62.8288
8.635999	 62.6019
8.719999	 62.7602
8.804000	 62.9724
8.888000	 62.6949
8.972000	 62.8168
9.056000	 63.1924
9.140000	 62.4955
9.224000	 62.6326
9.308000	 62.5045
9.391999	 62.538
9.475999	 62.5587
9.560000	 62.485
9.644000	 62.5037
9.728000	 62.2835
9.812000	 62.6677
9.896000	 62.1949
9.980000	 62.5497
10.064	62.3912
10.148	62.6692
10.232	62.4119
10.316	62.4761
10.4	62.4098
10.484	62.4224
10.568	62.5427
10.652	62.3869
10.736	62.3588
10.82	62.3439
10.904	62.469
10.988	62.7326
11.072	62.3314
11.156	61.8684
11.24	61.9311
11.324	61.8767
11.408	62.2604
11.492	62.4306
11.576	62.3605
11.66	61.8499
11.744	61.9857
11.828	62.5456
11.912	62.9156
11.996	62.9738
12.08	62.2984
12.164	62.0862
12.248	62.1049
12.332	62.1921
12.416	61.9585
12.5	61.9862
12.584	62.1116
12.668	61.8535
12.752	62.0995
12.836	62.2017
12.92	62.0074
13.004	61.9381
13.088	61.8013
13.172	61.8738
13.256	62.0943
13.34	62.242
13.424	62.4166
13.508	62.344
13.592	62.1106
13.676	61.8405
13.76	61.7156
13.844	61.7857
13.928	61.7248
14.012	61.5032
14.096	61.456
14.18	61.6714
14.264	61.7751
14.348	61.685
14.432	61.7669
14.516	61.6521
14.6	61.1826
14.684	60.9438
14.768	61.0123
14.852	61.2688
14.936	61.5952
15.02	61.649
15.104	61.4537
15.188	61.3326
15.272	61.3909
15.356	61.4465
15.44	61.2315
15.524	60.9339
15.608	61.0055
15.692	61.2732
15.776	61.2237
15.86	60.9712
15.944	60.9605
16.028	61.1894
16.112	61.3666
16.196	61.3142
16.28	61.0721
16.364	60.9311
16.448	61.1094
16.532	61.3949
16.616	61.422
16.7	61.1467
16.784	60.801
16.868	60.5645
16.952	60.4835
17.036	60.5757
17.12	60.8214
17.204	61.0785
17.288	61.1879
17.372	61.2033
17.456	61.3025
17.54	61.4552
17.624	61.4333
17.708	61.1785
17.792	60.8822
17.876	60.6979
17.96	60.6294
18.044	60.6745
18.128	60.8239
18.212	60.9958
18.296	61.1019
18.38	61.1368
18.464	61.1159
18.548	61.0151
18.632	60.8311
18.716	60.6213
18.8	60.4718
18.884	60.4743
18.968	60.6739
19.052	60.9592
19.136	61.0923
19.22	60.9275
19.304	60.5811
19.388	60.2942
19.472	60.1635
19.556	60.0996
19.64	60.0125
19.724	59.9183
19.808	59.8634
19.892	59.8527
19.976	59.8791
20.06	59.9723
20.144	60.1707
20.228	60.4347
20.312	60.6331
20.396	60.6417
20.48	60.4435
20.564	60.1332
20.648	59.8304
20.732	59.5964
20.816	59.4216
20.9	59.2868
20.984	59.2432
21.068	59.3793
21.152	59.7222
21.236	60.1827
21.32	60.628
21.404	60.9858
21.488	61.2735
21.572	61.53
21.656	61.7416
21.74	61.841
21.824	61.7609
21.908	61.4918
21.992	61.074
22.076	60.5521
22.16	59.9664
22.244	59.3728
22.328	58.8568
22.412	58.497
22.496	58.3086
22.58	58.2352
22.664	58.2043
22.748	58.173
22.832	58.1429
22.916	58.17
23	58.2978
23.084	58.5251
23.168	58.8091
23.252	59.0993
23.336	59.3592
23.42	59.5656
23.504	59.7253
23.588	59.8656
23.672	59.9992
23.756	60.089
23.84	60.0643
23.924	59.8819
24.008	59.631
24.092	59.595
24.176	60.1595
24.26	61.6823
24.344	64.2921
24.428	67.6881
24.512	71.0511
24.596	73.5028
24.68	74.481
24.764	74.0168
24.848	72.7784
24.932	71.7071
25.016	71.4533
25.1	72.0327
25.184	72.944
25.268	73.5206
25.352	73.3282
25.436	72.34
25.52	70.8543
25.604	69.1677
25.688	67.3237
25.772	65.0841
25.856	62.1952
25.94	58.6366
26.024	54.9549
26.108	52.3002
26.192	52.1968
26.276	55.9909
26.36	64.3204
26.444	76.4823
26.528	90.4684
26.612	103.538
26.696	113.029
26.78	117.271
26.864	115.991
26.948	110.181
27.028	102.047