Folder: Masteroppgave/Bakgrunnsmateriale/MATLAB/FTIR/ftir_data/subBb/Mapping_121 (part 11)

File: C-4040-8_t19.asc
PE IR       SPECTRUM    SPECTRUM    ASCII       PEDS        1.60
  -1
C-C92E~1.ASC
17/03/27
15:59:14.00
17/03/27
15:59:40.00
tln
$C-4040-8_t0019$<tbV0>[-5.2,-10.4,8.0,0.0,27,1,0]
27.028
64

2002,4.07
MIRTGS : RIGHTBACK : INTERNAL 2
MIR : ON : INTERNAL 2
OPTKBR

0.200000
8
8.000000
FILLER
RATIO
SPECTRUM
UNLOCKED 256

DOUBLE
64
COMBINED
1
0
0

0.002000
RATIO

1
0
TRUE
51149
0
LEFT NOT FITTED RIGHT NOT FITTED 0
NONE
NONE
15600
12
4.427000
51148
TRUE
1 0 8 72 0 0 0 0

15798

#HDR
-1
-1
#GR
µM
%T
2.38419e-05
0.0
2.000000
0.002000
12515
8
72.2533
31.0119
#DATA
2.000000	 63.67
2.084000	 63.6409
2.168000	 64.1522
2.252000	 67.3539
2.336000	 63.6385
2.420000	 64.0192
2.504000	 63.8338
2.588000	 63.9449
2.672000	 64.0316
2.756000	 63.6047
2.840000	 63.202
2.924000	 62.7949
3.008000	 62.7976
3.092000	 62.4646
3.176000	 62.3173
3.260000	 62.1577
3.344000	 61.8466
3.428000	 61.2126
3.512000	 61.1742
3.596000	 61.0878
3.680000	 60.8275
3.764000	 60.6071
3.848000	 60.4383
3.932000	 60.231
4.016000	 59.8791
4.100000	 59.7578
4.184000	 59.519
4.268000	 59.3256
4.352000	 59.1158
4.436000	 58.8728
4.520000	 58.7659
4.604000	 58.4893
4.688000	 58.2968
4.772000	 58.097
4.856000	 57.8333
4.940000	 57.6528
5.024000	 57.4566
5.108000	 57.2818
5.192000	 57.0835
5.276000	 56.8959
5.359999	 56.7289
5.444000	 56.4891
5.528000	 56.3664
5.612000	 56.2099
5.696000	 56.1895
5.780000	 55.9089
5.864000	 55.848
5.948000	 55.8289
6.032000	 55.6721
6.116000	 55.4329
6.200000	 55.2036
6.284000	 54.8461
6.368000	 54.8342
6.452000	 54.8261
6.536000	 54.5791
6.620000	 54.7801
6.704000	 54.4404
6.788000	 54.3252
6.872000	 54.2738
6.956000	 54.0751
7.040000	 53.8767
7.124000	 53.6095
7.208000	 53.5954
7.292000	 53.592
7.376000	 53.1489
7.460000	 53.164
7.544000	 53.2014
7.628000	 52.8964
7.712000	 52.9455
7.796000	 52.6529
7.880000	 52.676
7.964000	 52.492
8.048000	 52.496
8.132000	 52.3814
8.216000	 52.1837
8.300000	 52.148
8.384000	 52.0888
8.468000	 51.9393
8.552000	 51.9026
8.635999	 51.7321
8.719999	 51.8139
8.804000	 51.7229
8.888000	 51.6136
8.972000	 51.5293
9.056000	 51.277
9.140000	 51.092
9.224000	 51.2646
9.308000	 51.2269
9.391999	 51.2067
9.475999	 51.293
9.560000	 51.4711
9.644000	 51.0492
9.728000	 50.9193
9.812000	 51.0148
9.896000	 50.6907
9.980000	 50.6371
10.064	50.9898
10.148	50.8028
10.232	50.482
10.316	50.4091
10.4	50.2459
10.484	50.2563
10.568	49.9338
10.652	50.0238
10.736	49.9846
10.82	49.9175
10.904	49.5726
10.988	49.5428
11.072	49.5933
11.156	49.6479
11.24	49.6952
11.324	49.4672
11.408	49.5022
11.492	49.5858
11.576	49.4406
11.66	49.3926
11.744	49.4583
11.828	49.3555
11.912	49.3444
11.996	49.0752
12.08	48.9645
12.164	48.8125
12.248	48.7779
12.332	48.9162
12.416	48.9927
12.5	48.8539
12.584	48.8465
12.668	48.7545
12.752	48.698
12.836	48.6039
12.92	48.567
13.004	48.4244
13.088	48.3863
13.172	48.5717
13.256	48.5141
13.34	48.3047
13.424	48.0693
13.508	47.6898
13.592	47.6849
13.676	47.9437
13.76	47.8765
13.844	47.5817
13.928	47.4328
14.012	47.417
14.096	47.2981
14.18	47.132
14.264	47.1491
14.348	47.2319
14.432	47.1997
14.516	47.1184
14.6	47.014
14.684	46.8836
14.768	46.8159
14.852	46.7373
14.936	46.6861
15.02	46.7684
15.104	46.7817
15.188	46.6004
15.272	46.4968
15.356	46.6519
15.44	46.7798
15.524	46.6332
15.608	46.4251
15.692	46.3987
15.776	46.4583
15.86	46.4296
15.944	46.2828
16.028	46.0295
16.112	45.7599
16.196	45.6315
16.28	45.6292
16.364	45.5963
16.448	45.456
16.532	45.2431
16.616	45.0501
16.7	44.9544
16.784	44.938
16.868	44.9502
16.952	45.0003
17.036	45.1216
17.12	45.313
17.204	45.5276
17.288	45.6497
17.372	45.571
17.456	45.3064
17.54	44.9685
17.624	44.706
17.708	44.6357
17.792	44.7262
17.876	44.7897
17.96	44.6784
18.044	44.4418
18.128	44.2306
18.212	44.1127
18.296	44.0684
18.38	44.0862
18.464	44.1456
18.548	44.1647
18.632	44.0629
18.716	43.8859
18.8	43.7668
18.884	43.7342
18.968	43.645
19.052	43.3404
19.136	42.8513
19.22	42.3996
19.304	42.213
19.388	42.3459
19.472	42.6547
19.556	42.8985
19.64	42.9042
19.724	42.701
19.808	42.513
19.892	42.5833
19.976	42.96
20.06	43.4402
20.144	43.7409
20.228	43.7315
20.312	43.5047
20.396	43.259
20.48	43.143
20.564	43.1922
20.648	43.3619
20.732	43.5844
20.816	43.8055
20.9	43.9708
20.984	44.0025
21.068	43.8274
21.152	43.4301
21.236	42.8931
21.32	42.3646
21.404	41.9655
21.488	41.7201
21.572	41.5586
21.656	41.3851
21.74	41.1477
21.824	40.8647
21.908	40.6006
21.992	40.4267
22.076	40.4019
22.16	40.5662
22.244	40.9334
22.328	41.4586
22.412	42.0178
22.496	42.4301
22.58	42.5517
22.664	42.3472
22.748	41.9322
22.832	41.506
22.916	41.2501
23	41.2259
23.084	41.3782
23.168	41.5758
23.252	41.7024
23.336	41.7013
23.42	41.5903
23.504	41.4068
23.588	41.1969
23.672	41.0126
23.756	40.9113
23.84	40.9473
23.924	41.1338
24.008	41.3924
24.092	41.5492
24.176	41.4333
24.26	40.9036
24.344	39.9506
24.428	38.7735
24.512	37.7792
24.596	37.3579
24.68	37.69
24.764	38.6187
24.848	39.7028
24.932	40.3804
25.016	40.25
25.1	39.2042
25.184	37.4624
25.268	35.4453
25.352	33.5505
25.436	32.0793
25.52	31.2052
25.604	31.0706
25.688	32.0613
25.772	34.738
25.856	39.5016
25.94	46.1279
26.024	53.5301
26.108	59.9578
26.192	63.7977
26.276	64.1502
26.36	61.2733
26.444	56.2398
26.528	50.4249
26.612	44.902
26.696	40.3133
26.78	36.8485
26.864	34.4455
26.948	32.8858
27.028	31.8635

File: C-4040-8_t19_cm-1.asc
PE IR       SPECTRUM    SPECTRUM    ASCII       PEDS        1.60
  -1
C-1AE0~1.ASC
17/03/27
15:59:14.00
17/03/27
15:59:14.00
tln
$C-4040-8_t0019$<tbV0>[-5.2,-10.4,8.0,0.0,27,1,0]
370
64

2002,4.07
MIRTGS : RIGHTBACK : INTERNAL 2
MIR : ON : INTERNAL 2
OPTKBR

0.200000
8
8.000000
FILLER
RATIO
SPECTRUM
UNLOCKED 256

DOUBLE
64
COMBINED
1
0
0

1.000000
RATIO

1
0
TRUE
51149
0
LEFT NOT FITTED RIGHT NOT FITTED 0
NONE
NONE
15600
12
4.427000
51148
TRUE
1 0 8 72 0 0 0 0

15798

#HDR
-1
-1
#GR
CM-1
%T
2.38419e-05
0.0
5000
-1.000000
4631
8
72.2309
31.0127
#DATA
5000	63.67
4984	64.6118
4968	64.2601
4952	63.3575
4936	63.3703
4920	63.8197
4904	64.8313
4888	64.491
4872	64.0342
4856	64.2205
4840	64.295
4824	64.2065
4808	63.7827
4792	63.849
4776	64.3311
4760	64.1912
4744	63.9968
4728	63.7435
4712	64.2405
4696	64.4268
4680	64.3157
4664	63.9164
4648	64.1963
4632	64.0748
4616	64.1068
4600	64.505
4584	63.988
4568	64.1082
4552	63.466
4536	63.9703
4520	63.8697
4504	64.2023
4488	63.3038
4472	64.4088
4456	65.5646
4440	66.871
4424	62.7014
4408	62.7458
4392	60.0968
4376	71.2441
4360	65.1318
4344	63.9336
4328	63.1669
4312	63.9215
4296	63.4612
4280	63.6208
4264	63.6272
4248	63.4463
4232	63.5962
4216	63.7035
4200	63.7266
4184	63.4297
4168	63.8864
4152	63.5948
4136	63.8659
4120	64.0873
4104	63.5443
4088	64.0523
4072	63.7614
4056	64.092
4040	63.9018
4024	64.016
4008	64.174
3992	63.7812
3976	63.5984
3960	63.7236
3944	63.9342
3928	63.781
3912	63.7184
3896	63.923
3880	63.5244
3864	63.945
3848	64.0757
3832	63.8985
3816	63.9235
3800	64.0737
3784	63.5961
3768	63.7002
3752	64.1302
3736	64.0698
3720	63.8771
3704	63.6921
3688	63.6853
3672	63.9119
3656	63.6366
3640	63.4301
3624	63.4746
3608	63.278
3592	63.434
3576	63.3334
3560	63.2163
3544	63.3706
3528	63.0095
3512	63.0033
3496	62.9817
3480	63.0893
3464	63.2322
3448	62.9891
3432	62.87
3416	62.7742
3400	62.663
3384	63.0836
3368	62.8609
3352	62.6697
3336	62.7123
3320	62.8057
3304	62.519
3288	62.6663
3272	62.6424
3256	62.2776
3240	62.3274
3224	62.506
3208	62.5742
3192	62.3842
3176	62.4825
3160	62.2794
3144	62.3225
3128	62.0828
3112	62.2577
3096	62.2099
3080	62.1297
3064	62.0955
3048	62.0652
3032	61.9657
3016	62.1099
3000	61.9267
2984	61.7739
2968	61.7738
2952	61.6093
2936	61.5996
2920	61.2599
2904	61.1898
2888	61.6143
2872	61.4582
2856	61.2908
2840	61.4337
2824	61.3294
2808	61.3307
2792	61.2108
2776	61.1289
2760	61.0773
2744	61.0506
2728	60.9698
2712	60.8918
2696	60.9923
2680	60.7812
2664	60.7102
2648	60.6029
2632	60.5507
2616	60.4375
2600	60.4476
2584	60.2865
2568	60.2086
2552	60.2651
2536	60.1332
2520	60.1025
2504	59.9174
2488	59.8374
2472	59.8909
2456	59.6646
2440	59.7518
2424	59.7623
2408	59.2484
2392	59.5064
2376	59.5377
2360	59.4497
2344	59.3164
2328	59.1957
2312	59.1491
2296	59.0897
2280	58.9639
2264	59.0504
2248	58.7465
2232	58.7023
2216	58.7241
2200	58.6497
2184	58.397
2168	58.527
2152	58.1074
2136	58.316
2120	58.1149
2104	58.152
2088	57.9888
2072	57.7515
2056	57.778
2040	57.6727
2024	57.6481
2008	57.6492
1992	57.4882
1976	57.3401
1960	57.3246
1944	57.2207
1928	57.0926
1912	57.0525
1896	56.898
1880	56.6903
1864	56.7221
1848	56.6279
1832	56.4747
1816	56.3993
1800	56.3737
1784	56.2388
1768	56.1616
1752	56.1115
1736	56.0452
1720	55.9708
1704	55.932
1688	55.8735
1672	55.6081
1656	55.777
1640	55.4501
1624	55.2512
1608	55.027
1592	54.8484
1576	54.8656
1560	55.1538
1544	55.0875
1528	54.6034
1512	54.7353
1496	54.5399
1480	54.2235
1464	54.2307
1448	54.0744
1432	53.9006
1416	53.8385
1400	53.6381
1384	53.4981
1368	53.4616
1352	53.1527
1336	53.158
1320	53.1977
1304	52.9117
1288	52.7781
1272	52.5765
1256	52.4948
1240	52.4384
1224	52.3106
1208	52.1086
1192	52.0681
1176	51.9032
1160	51.7587
1144	51.8407
1128	51.6468
1112	51.4614
1096	51.1581
1080	51.2568
1064	51.2278
1048	51.4781
1032	50.8609
1016	50.9411
1000	50.7426
984	 50.6757
968	 50.3687
952	 50.1538
936	 50.0808
920	 49.6642
904	 49.5876
888	 49.6665
872	 49.6118
856	 49.4142
840	 49.3573
824	 48.8629
808	 48.9956
792	 48.8062
776	 48.5816
760	 48.5461
744	 47.9942
728	 47.9366
712	 47.3901
696	 47.2356
680	 46.86
664	 46.8007
648	 46.7792
632	 46.4576
616	 45.6237
600	 44.9798
584	 45.3214
568	 44.7496
552	 44.2554
536	 44.0129
520	 42.3577
504	 42.5009
488	 43.1403
472	 43.2186
456	 40.5442
440	 42.0437
424	 41.2044
408	 37.7986
392	 31.2727
376	 45.9051
370	 31.8635

File: C-4040-8_t20.asc
PE IR       SPECTRUM    SPECTRUM    ASCII       PEDS        1.60
  -1
C-AD2A~1.ASC
17/03/27
16:03:50.00
17/03/27
16:04:17.00
tln
$C-4040-8_t0020$<tbV0>[-7.8,-10.4,8.0,0.0,27,1,0]
27.028
64

2002,4.07
MIRTGS : RIGHTBACK : INTERNAL 2
MIR : ON : INTERNAL 2
OPTKBR

0.200000
8
8.000000
FILLER
RATIO
SPECTRUM
UNLOCKED 256

DOUBLE
64
COMBINED
1
0
0

0.002000
RATIO

1
0
TRUE
51149
0
LEFT NOT FITTED RIGHT NOT FITTED 0
NONE
NONE
15600
12
4.427000
51148
TRUE
1 0 8 72 0 0 0 0

15798

#HDR
-1
-1
#GR
µM
%T
2.38419e-05
0.0
2.000000
0.002000
12515
8
72.9956
18.7701
#DATA
2.000000	 64.2489
2.084000	 64.3222
2.168000	 64.3961
2.252000	 67.718
2.336000	 63.7306
2.420000	 63.582
2.504000	 64.0553
2.588000	 63.7605
2.672000	 63.7654
2.756000	 63.2925
2.840000	 62.7001
2.924000	 62.4262
3.008000	 62.1129
3.092000	 61.9111
3.176000	 61.5096
3.260000	 61.3277
3.344000	 60.8429
3.428000	 60.2026
3.512000	 60.0733
3.596000	 60.0266
3.680000	 59.5027
3.764000	 59.243
3.848000	 58.9047
3.932000	 58.6519
4.016000	 58.2889
4.100000	 58.1787
4.184000	 57.6592
4.268000	 57.3012
4.352000	 56.9614
4.436000	 56.7152
4.520000	 56.3291
4.604000	 56.1466
4.688000	 55.9509
4.772000	 55.5958
4.856000	 55.4399
4.940000	 55.0143
5.024000	 54.7872
5.108000	 54.5219
5.192000	 54.2571
5.276000	 54.1132
5.359999	 53.7915
5.444000	 53.5067
5.528000	 53.4653
5.612000	 53.2937
5.696000	 53.082
5.780000	 52.7555
5.864000	 52.8822
5.948000	 52.5923
6.032000	 52.3979
6.116000	 51.9974
6.200000	 51.6525
6.284000	 51.5016
6.368000	 51.4044
6.452000	 51.3715
6.536000	 51.1122
6.620000	 51.0568
6.704000	 50.7818
6.788000	 50.7383
6.872000	 50.6246
6.956000	 50.246
7.040000	 50.2482
7.124000	 49.7883
7.208000	 49.8476
7.292000	 49.5955
7.376000	 49.5134
7.460000	 49.4135
7.544000	 49.2335
7.628000	 49.0622
7.712000	 48.9398
7.796000	 48.8038
7.880000	 48.6217
7.964000	 48.5106
8.048000	 48.4791
8.132000	 48.3423
8.216000	 48.1981
8.300000	 48.2125
8.384000	 48.0948
8.468000	 47.9233
8.552000	 47.6305
8.635999	 47.7263
8.719999	 47.5488
8.804000	 47.4734
8.888000	 47.409
8.972000	 47.3639
9.056000	 47.0354
9.140000	 47.049
9.224000	 47.0245
9.308000	 46.7538
9.391999	 46.9093
9.475999	 46.7148
9.560000	 46.8365
9.644000	 46.5359
9.728000	 46.5381
9.812000	 46.4603
9.896000	 46.4115
9.980000	 46.1497
10.064	46.0684
10.148	46.3726
10.232	46.4828
10.316	45.8331
10.4	45.6742
10.484	45.74
10.568	45.1352
10.652	45.2337
10.736	45.3175
10.82	45.5118
10.904	45.3361
10.988	44.9914
11.072	44.7516
11.156	44.7835
11.24	44.8876
11.324	44.7468
11.408	44.7289
11.492	44.6406
11.576	44.4832
11.66	44.3982
11.744	44.4189
11.828	44.2836
11.912	44.1387
11.996	43.9906
12.08	44.0533
12.164	44.0828
12.248	43.8259
12.332	43.6662
12.416	43.7214
12.5	43.66
12.584	43.5057
12.668	43.6851
12.752	43.8732
12.836	43.8129
12.92	43.5694
13.004	43.4355
13.088	43.4114
13.172	43.1051
13.256	42.8018
13.34	42.8177
13.424	42.764
13.508	42.4192
13.592	42.3182
13.676	42.4767
13.76	42.5135
13.844	42.3684
13.928	42.2718
14.012	42.2148
14.096	42.0317
14.18	41.8683
14.264	41.7903
14.348	41.7324
14.432	41.5828
14.516	41.5279
14.6	41.6587
14.684	41.6696
14.768	41.5134
14.852	41.398
14.936	41.3652
15.02	41.3517
15.104	41.2262
15.188	41.0859
15.272	41.1691
15.356	41.3046
15.44	41.222
15.524	40.937
15.608	40.6178
15.692	40.4369
15.776	40.4079
15.86	40.4856
15.944	40.6269
16.028	40.6692
16.112	40.5666
16.196	40.4894
16.28	40.4644
16.364	40.3476
16.448	40.0937
16.532	39.7894
16.616	39.5448
16.7	39.441
16.784	39.4783
16.868	39.5764
16.952	39.6371
17.036	39.5948
17.12	39.4425
17.204	39.2502
17.288	39.1282
17.372	39.0934
17.456	39.0213
17.54	38.8042
17.624	38.5482
17.708	38.4646
17.792	38.5842
17.876	38.7087
17.96	38.6143
18.044	38.2596
18.128	37.8453
18.212	37.6381
18.296	37.7191
18.38	37.909
18.464	37.9667
18.548	37.824
18.632	37.6019
18.716	37.4692
18.8	37.4929
18.884	37.56
18.968	37.479
19.052	37.1806
19.136	36.7859
19.22	36.4786
19.304	36.3642
19.388	36.4377
19.472	36.6226
19.556	36.7912
19.64	36.8105
19.724	36.653
19.808	36.4601
19.892	36.4342
19.976	36.6492
20.06	36.9626
20.144	37.1193
20.228	36.949
20.312	36.4905
20.396	35.9546
20.48	35.5793
20.564	35.4966
20.648	35.6818
20.732	36.0023
20.816	36.322
20.9	36.5448
20.984	36.6153
21.068	36.5079
21.152	36.2438
21.236	35.9106
21.32	35.6226
21.404	35.4423
21.488	35.3549
21.572	35.302
21.656	35.2591
21.74	35.2577
21.824	35.3159
21.908	35.3606
21.992	35.249
22.076	34.8768
22.16	34.2964
22.244	33.734
22.328	33.4481
22.412	33.5778
22.496	34.0226
22.58	34.4929
22.664	34.6658
22.748	34.3568
22.832	33.6203
22.916	32.6991
23	31.9082
23.084	31.4683
23.168	31.4491
23.252	31.775
23.336	32.2899
23.42	32.8474
23.504	33.3675
23.588	33.7935
23.672	34.0541
23.756	34.0824
23.84	33.8256
23.924	33.3185
24.008	32.6747
24.092	32.0306
24.176	31.489
24.26	31.1215
24.344	30.9355
24.428	30.838
24.512	30.6383
24.596	30.1007
24.68	29.0911
24.764	27.7213
24.848	26.3249
24.932	25.4209
25.016	25.5043
25.1	26.8689
25.184	29.5069
25.268	33.1022
25.352	37.1908
25.436	41.2736
25.52	44.9182
25.604	47.7727
25.688	49.487
25.772	49.7628
25.856	48.4411
25.94	45.6099
26.024	41.6676
26.108	37.2752
26.192	33.1071
26.276	29.6272
26.36	27.0007
26.444	25.0073
26.528	23.2762
26.612	21.5246
26.696	19.8659
26.78	18.8367
26.864	19.2767
26.948	21.8707
27.028	26.3288

File: C-4040-8_t20_cm-1.asc
PE IR       SPECTRUM    SPECTRUM    ASCII       PEDS        1.60
  -1
C-9A61~1.ASC
17/03/27
16:03:50.00
17/03/27
16:03:50.00
tln
$C-4040-8_t0020$<tbV0>[-7.8,-10.4,8.0,0.0,27,1,0]
370
64

2002,4.07
MIRTGS : RIGHTBACK : INTERNAL 2
MIR : ON : INTERNAL 2
OPTKBR

0.200000
8
8.000000
FILLER
RATIO
SPECTRUM
UNLOCKED 256

DOUBLE
64
COMBINED
1
0
0

1.000000
RATIO

1
0
TRUE
51149
0
LEFT NOT FITTED RIGHT NOT FITTED 0
NONE
NONE
15600
12
4.427000
51148
TRUE
1 0 8 72 0 0 0 0

15798

#HDR
-1
-1
#GR
CM-1
%T
2.38419e-05
0.0
5000
-1.000000
4631
8
73.0181
18.7814
#DATA
5000	64.2489
4984	64.6744
4968	64.2021
4952	63.6323
4936	63.3154
4920	64.307
4904	65.1211
4888	64.4796
4872	64.4437
4856	64.4277
4840	64.4817
4824	64.1713
4808	64.0315
4792	64.378
4776	64.4639
4760	64.1685
4744	64.2825
4728	64.0669
4712	63.8534
4696	64.1763
4680	64.0875
4664	64.6644
4648	64.1622
4632	64.4195
4616	64.4989
4600	64.6417
4584	64.2926
4568	64.1082
4552	63.8921
4536	63.6526
4520	64.095
4504	64.2106
4488	63.8141
4472	63.9122
4456	65.7934
4440	67.2272
4424	63.24
4408	63.0162
4392	62.0641
4376	72.4642
4360	64.1551
4344	64.068
4328	64.0486
4312	63.956
4296	63.6754
4280	63.7361
4264	63.8779
4248	64.0294
4232	63.7844
4216	63.9987
4200	63.9025
4184	63.6469
4168	63.4084
4152	63.9025
4136	63.557
4120	63.7662
4104	63.7302
4088	64.0692
4072	63.9384
4056	63.9109
4040	63.9926
4024	63.9309
4008	63.9464
3992	64.0252
3976	63.4793
3960	63.9729
3944	63.9202
3928	63.8543
3912	63.9396
3896	63.7916
3880	63.7452
3864	63.7605
3848	63.959
3832	63.7892
3816	63.4266
3800	63.8142
3784	63.2695
3768	63.6342
3752	63.7401
3736	63.8952
3720	63.4875
3704	63.4199
3688	63.4531
3672	63.8386
3656	63.3555
3640	62.9774
3624	63.1033
3608	63.2315
3592	63.149
3576	62.928
3560	63.0075
3544	62.8271
3528	62.7264
3512	62.6772
3496	62.5547
3480	62.9258
3464	62.7384
3448	62.6133
3432	62.5197
3416	62.339
3400	62.3217
3384	62.3569
3368	62.3382
3352	62.1936
3336	62.2352
3320	62.0555
3304	62.0497
3288	62.0932
3272	61.9849
3256	61.647
3240	61.8827
3224	61.87
3208	61.842
3192	61.6226
3176	61.5725
3160	61.7662
3144	61.4483
3128	61.4485
3112	61.4425
3096	61.3205
3080	61.3847
3064	61.3405
3048	61.2273
3032	61.073
3016	61.2408
3000	60.8894
2984	60.8013
2968	60.5663
2952	60.5614
2936	60.464
2920	60.2808
2904	60.2842
2888	60.3773
2872	60.229
2856	60.1252
2840	60.2587
2824	60.2218
2808	60.1059
2792	60.0397
2776	59.9818
2760	59.7587
2744	59.8164
2728	59.5614
2712	59.4567
2696	59.5416
2680	59.3617
2664	59.3071
2648	59.2465
2632	59.1685
2616	58.9317
2600	58.918
2584	58.8117
2568	58.7393
2552	58.7441
2536	58.5598
2520	58.3235
2504	58.4081
2488	58.2715
2472	58.2711
2456	58.0638
2440	58.1906
2424	57.7685
2408	57.5291
2392	57.6923
2376	57.5583
2360	57.663
2344	57.2969
2328	57.2678
2312	56.9808
2296	56.9773
2280	56.9242
2264	56.8834
2248	56.7529
2232	56.4996
2216	56.356
2200	56.3393
2184	56.1875
2168	56.1777
2152	55.9892
2136	56.013
2120	55.7039
2104	55.6389
2088	55.6829
2072	55.1671
2056	55.2772
2040	55.2058
2024	55.011
2008	55.013
1992	54.7921
1976	54.6901
1960	54.5551
1944	54.4128
1928	54.3044
1912	54.218
1896	54.1093
1880	53.9057
1864	53.7693
1848	53.6947
1832	53.5244
1816	53.5341
1800	53.4169
1784	53.3188
1768	53.1628
1752	53.0717
1736	52.802
1720	52.7623
1704	52.9291
1688	52.601
1672	52.3632
1656	52.5375
1640	52.0864
1624	51.8455
1608	51.5986
1592	51.5141
1576	51.5972
1560	51.5872
1544	51.5429
1528	51.1404
1512	51.0175
1496	50.8263
1480	50.5448
1464	50.5698
1448	50.3475
1432	50.2059
1416	50.1367
1400	49.8271
1384	49.8011
1368	49.5123
1352	49.4308
1336	49.3464
1320	49.2269
1304	48.9725
1288	48.9348
1272	48.5837
1256	48.5174
1240	48.4549
1224	48.2971
1208	48.1833
1192	48.0896
1176	47.7765
1160	47.7404
1144	47.4687
1128	47.4683
1112	47.3059
1096	46.9973
1080	46.9498
1064	46.9356
1048	46.7683
1032	46.426
1016	46.3146
1000	46.1319
984	 46.4253
968	 45.7174
952	 45.5584
936	 45.2696
920	 45.4236
904	 44.7671
888	 44.8407
872	 44.6747
856	 44.3988
840	 44.1462
824	 44.1217
808	 43.6811
792	 43.5624
776	 43.6714
760	 43.1744
744	 42.7081
728	 42.5243
712	 42.1528
696	 41.7042
680	 41.6361
664	 41.3097
648	 41.2403
632	 40.4385
616	 40.4797
600	 39.4632
584	 39.435
568	 38.5957
552	 37.8972
536	 37.5473
520	 36.4523
504	 36.4207
488	 35.5489
472	 36.1086
456	 35.353
440	 34.479
424	 33.7805
408	 30.6473
392	 44.5294
376	 21.8656
370	 26.3288

File: C-4040-8_t21.asc
PE IR       SPECTRUM    SPECTRUM    ASCII       PEDS        1.60
  -1
C-AD2E~1.ASC
17/03/27
16:08:27.00
17/03/27
16:08:53.00
tln
$C-4040-8_t0021$<tbV0>[-10.4,-10.4,8.0,0.0,27,1,0]
27.028
64

2002,4.07
MIRTGS : RIGHTBACK : INTERNAL 2
MIR : ON : INTERNAL 2
OPTKBR

0.200000
8
8.000000
FILLER
RATIO
SPECTRUM
UNLOCKED 256

DOUBLE
64
COMBINED
1
0
0

0.002000
RATIO

1
0
TRUE
51149
0
LEFT NOT FITTED RIGHT NOT FITTED 0
NONE
NONE
15600
12
4.427000
51148
TRUE
1 0 8 72 0 0 0 0

15798

#HDR
-1
-1
#GR
µM
%T
2.38419e-05
0.0
2.000000
0.002000
12515
8
75.8881
20.6245
#DATA
2.000000	 63.9439
2.084000	 63.4684
2.168000	 63.927
2.252000	 67.2448
2.336000	 63.0327
2.420000	 63.3947
2.504000	 63.0856
2.588000	 62.7977
2.672000	 62.9822
2.756000	 62.4102
2.840000	 61.7521
2.924000	 61.146
3.008000	 60.7505
3.092000	 60.3508
3.176000	 60.0748
3.260000	 59.6533
3.344000	 59.0359
3.428000	 58.3131
3.512000	 58.0072
3.596000	 57.7419
3.680000	 57.2792
3.764000	 56.8472
3.848000	 56.3067
3.932000	 55.8609
4.016000	 55.367
4.100000	 55.0825
4.184000	 54.7053
4.268000	 54.1929
4.352000	 53.846
4.436000	 53.3743
4.520000	 52.9516
4.604000	 52.5524
4.688000	 52.1326
4.772000	 51.8369
4.856000	 51.4681
4.940000	 51.1281
5.024000	 50.9138
5.108000	 50.5513
5.192000	 50.2461
5.276000	 49.9332
5.359999	 49.5584
5.444000	 49.2512
5.528000	 49.0347
5.612000	 48.8741
5.696000	 48.5448
5.780000	 48.3155
5.864000	 48.1896
5.948000	 47.7992
6.032000	 47.72
6.116000	 47.4472
6.200000	 46.8872
6.284000	 46.6853
6.368000	 46.5734
6.452000	 46.3481
6.536000	 46.0092
6.620000	 46.1436
6.704000	 45.7396
6.788000	 45.5104
6.872000	 45.4428
6.956000	 45.2706
7.040000	 45.0066
7.124000	 44.5488
7.208000	 44.5173
7.292000	 44.3814
7.376000	 44.1966
7.460000	 43.9034
7.544000	 43.7988
7.628000	 43.537
7.712000	 43.3442
7.796000	 43.2857
7.880000	 43.0893
7.964000	 43.055
8.048000	 42.8035
8.132000	 42.6243
8.216000	 42.5004
8.300000	 42.3346
8.384000	 42.3136
8.468000	 42.0397
8.552000	 42.0538
8.635999	 41.8335
8.719999	 41.8077
8.804000	 41.5197
8.888000	 41.4933
8.972000	 41.4853
9.056000	 41.1759
9.140000	 41.1724
9.224000	 40.9508
9.308000	 40.6513
9.391999	 40.6835
9.475999	 40.4597
9.560000	 40.3514
9.644000	 40.3582
9.728000	 40.3379
9.812000	 40.4712
9.896000	 40.2987
9.980000	 39.9897
10.064	40.0256
10.148	39.6952
10.232	39.801
10.316	39.8223
10.4	39.4288
10.484	39.1947
10.568	39.3333
10.652	39.201
10.736	38.8315
10.82	39.0622
10.904	38.752
10.988	38.5363
11.072	38.335
11.156	38.336
11.24	38.3982
11.324	38.4362
11.408	38.3809
11.492	38.0286
11.576	37.9014
11.66	37.8445
11.744	37.6638
11.828	37.6563
11.912	37.4183
11.996	37.2235
12.08	37.3231
12.164	37.3512
12.248	37.1876
12.332	37.1486
12.416	37.0493
12.5	36.7225
12.584	36.6147
12.668	36.5679
12.752	36.5149
12.836	36.3569
12.92	36.4445
13.004	36.4602
13.088	36.3662
13.172	36.2507
13.256	36.1099
13.34	35.9969
13.424	36.0895
13.508	36.0803
13.592	35.7139
13.676	35.4533
13.76	35.3355
13.844	35.1501
13.928	34.9315
14.012	34.8234
14.096	34.8862
14.18	34.7944
14.264	34.6256
14.348	34.5115
14.432	34.2592
14.516	34.0404
14.6	34.0034
14.684	33.9595
14.768	33.9554
14.852	34.1076
14.936	34.2209
15.02	34.1839
15.104	34.1482
15.188	34.107
15.272	34.0174
15.356	33.9366
15.44	33.8127
15.524	33.6383
15.608	33.481
15.692	33.3302
15.776	33.1683
15.86	33.0795
15.944	33.065
16.028	32.9038
16.112	32.5462
16.196	32.2636
16.28	32.1664
16.364	32.147
16.448	32.221
16.532	32.3959
16.616	32.512
16.7	32.5144
16.784	32.4972
16.868	32.4289
16.952	32.2224
17.036	31.9923
17.12	31.9097
17.204	31.9116
17.288	31.8032
17.372	31.5495
17.456	31.26
17.54	30.9863
17.624	30.7548
17.708	30.6722
17.792	30.7901
17.876	30.9569
17.96	30.9707
18.044	30.8291
18.128	30.703
18.212	30.6873
18.296	30.7068
18.38	30.6561
18.464	30.5166
18.548	30.3313
18.632	30.1437
18.716	30.0105
18.8	29.9933
18.884	30.0769
18.968	30.1504
19.052	30.1057
19.136	29.9261
19.22	29.666
19.304	29.4015
19.388	29.2105
19.472	29.1553
19.556	29.2177
19.64	29.2882
19.724	29.276
19.808	29.2199
19.892	29.2416
19.976	29.3978
20.06	29.5956
20.144	29.663
20.228	29.4873
20.312	29.0834
20.396	28.5664
20.48	28.0867
20.564	27.7754
20.648	27.6957
20.732	27.826
20.816	28.0914
20.9	28.392
20.984	28.6114
21.068	28.6286
21.152	28.3652
21.236	27.8462
21.32	27.2066
21.404	26.6296
21.488	26.2508
21.572	26.1019
21.656	26.118
21.74	26.1988
21.824	26.2598
21.908	26.2545
21.992	26.1637
22.076	25.9826
22.16	25.7348
22.244	25.4848
22.328	25.3175
22.412	25.292
22.496	25.3952
22.58	25.5435
22.664	25.6369
22.748	25.63
22.832	25.5644
22.916	25.5344
23	25.6315
23.084	25.8784
23.168	26.218
23.252	26.5635
23.336	26.8446
23.42	27.0256
23.504	27.1274
23.588	27.1831
23.672	27.2056
23.756	27.203
23.84	27.1805
23.924	27.2008
24.008	27.3105
24.092	27.4658
24.176	27.5875
24.26	27.5418
24.344	27.1714
24.428	26.3803
24.512	25.1853
24.596	23.69
24.68	22.1515
24.764	20.9896
24.848	20.6385
24.932	21.4563
25.016	23.5182
25.1	26.5122
25.184	29.8382
25.268	32.8851
25.352	35.2857
25.436	37.1187
25.52	38.9201
25.604	41.4184
25.688	45.3656
25.772	51.1284
25.856	58.404
25.94	66.0794
26.024	72.4173
26.108	75.6837
26.192	74.9394
26.276	70.3352
26.36	63.2147
26.444	55.3548
26.528	48.2696
26.612	42.6445
26.696	38.5119
26.78	35.5489
26.864	33.4974
26.948	32.2913
27.028	31.8628