Folder: Masteroppgave/Bakgrunnsmateriale/MATLAB/FTIR/ftir_data/subBb/Mapping_36 (part 16)

File: C-4040-8_t35.asc
PE IR       SPECTRUM    SPECTRUM    ASCII       PEDS        1.60
  -1
C-B13E~1.ASC
17/05/02
13:49:26.00
17/05/02
13:49:52.00
tln
$C-4040-8_t0035$<tbV0>[-7.5,12.0,8.0,0.0,22,1,0]
27.028
64

2002,4.07
MIRTGS : RIGHTBACK : INTERNAL 2
MIR : ON : INTERNAL 2
OPTKBR

0.200000
8
8.000000
FILLER
RATIO
SPECTRUM
UNLOCKED 256

DOUBLE
64
COMBINED
1
0
0

0.002000
RATIO

1
0
TRUE
51149
0
LEFT NOT FITTED RIGHT NOT FITTED 0
NONE
NONE
15600
12
4.427000
51148
TRUE
1 0 8 72 0 0 0 0

15798

#HDR
-1
-1
#GR
µM
%T
2.38419e-05
0.0
1.282000
0.002000
12874
8
80.9255
37.6758
#DATA
1.282000	 65.5983
1.368000	 64.4635
1.454000	 65.4603
1.540000	 66.0121
1.626000	 65.0435
1.712000	 65.0558
1.798000	 64.0789
1.884000	 65.7798
1.970000	 64.7019
2.056000	 64.1415
2.142000	 64.6085
2.228000	 64.6131
2.314000	 64.7583
2.400000	 64.6419
2.486000	 64.7134
2.572000	 65.0244
2.658000	 64.8064
2.744000	 65.1075
2.830000	 64.8878
2.916000	 65.1796
3.002000	 64.8929
3.088000	 64.9666
3.174000	 65.0233
3.260000	 65.0024
3.346000	 64.9668
3.432000	 64.7567
3.518000	 64.8509
3.604000	 65.1109
3.690000	 65.0196
3.776000	 64.9773
3.862000	 64.969
3.948000	 64.9949
4.034000	 65.0462
4.120000	 65.1164
4.206000	 64.9189
4.292000	 65.1562
4.378000	 65.0806
4.464000	 65.0381
4.550000	 65.0051
4.636000	 64.9552
4.722000	 65.0021
4.808000	 64.9667
4.894000	 65.0419
4.980000	 65.0222
5.066000	 65.0753
5.152000	 65.0615
5.238000	 65.1484
5.324000	 64.9924
5.410000	 65.061
5.496000	 64.9521
5.582000	 64.9692
5.668000	 65.0215
5.754000	 64.8202
5.840000	 64.9938
5.926000	 64.8937
6.012000	 64.9228
6.098000	 64.8613
6.184000	 64.841
6.270000	 64.7854
6.356000	 64.7299
6.442000	 64.7999
6.528000	 64.7524
6.614000	 64.7467
6.700000	 64.7823
6.786000	 64.6608
6.872000	 64.8244
6.958000	 64.7557
7.044000	 64.6431
7.130000	 64.7203
7.216000	 64.6816
7.302000	 64.7538
7.388000	 64.6714
7.474000	 64.6563
7.560000	 64.6942
7.646000	 64.7208
7.732000	 64.7463
7.818000	 64.7173
7.904000	 64.7365
7.990000	 64.6523
8.076000	 64.6642
8.161999	 64.6795
8.248000	 64.5311
8.334000	 64.5936
8.420000	 64.4633
8.506000	 64.5086
8.592000	 64.4053
8.678000	 64.526
8.763999	 64.3613
8.850000	 64.5056
8.936000	 64.411
9.022000	 64.5454
9.108000	 64.4865
9.193999	 64.4107
9.280000	 64.2701
9.366000	 64.3938
9.452000	 64.3681
9.538000	 64.3674
9.624000	 64.2879
9.710000	 64.1935
9.795999	 64.2936
9.882000	 64.3588
9.968000	 64.3518
10.054	64.249
10.14	64.3536
10.226	64.1626
10.312	64.2864
10.398	64.673
10.484	64.5242
10.57	63.9879
10.656	64.196
10.742	63.6243
10.828	64.305
10.914	63.6925
11	63.5908
11.086	63.7946
11.172	64.0604
11.258	64.0924
11.344	64.254
11.43	64.1714
11.516	63.6471
11.602	63.9831
11.688	64.0137
11.774	63.8999
11.86	63.7353
11.946	63.8156
12.032	63.6537
12.118	63.7494
12.204	63.6989
12.29	63.7402
12.376	63.6469
12.462	63.4494
12.548	63.4961
12.634	63.6031
12.72	63.4963
12.806	63.4738
12.892	63.6105
12.978	63.3401
13.064	63.0618
13.15	63.1494
13.236	63.1308
13.322	63.0052
13.408	62.937
13.494	63.0262
13.58	63.1568
13.666	63.0708
13.752	62.9039
13.838	62.8102
13.924	62.896
14.01	62.9086
14.096	62.7376
14.182	62.6097
14.268	62.3831
14.354	62.1163
14.44	62.087
14.526	62.2258
14.612	62.4152
14.698	62.5444
14.784	62.4745
14.87	62.3225
14.956	62.2524
15.042	62.2557
15.128	62.3198
15.214	62.4109
15.3	62.3569
15.386	62.1088
15.472	61.8307
15.558	61.7316
15.644	61.9191
15.73	62.2041
15.816	62.267
15.902	62.0748
15.988	61.8715
16.074	61.8494
16.16	61.9717
16.246	62.0561
16.332	62.0427
16.418	62.0396
16.504	62.0627
16.59	62.0025
16.676	61.83
16.762	61.6286
16.848	61.5046
16.934	61.4846
17.02	61.4913
17.106	61.4599
17.192	61.394
17.278	61.3634
17.364	61.3995
17.45	61.4108
17.536	61.3424
17.622	61.2581
17.708	61.1873
17.794	61.0709
17.88	60.9026
17.966	60.7656
18.052	60.6981
18.138	60.644
18.224	60.5393
18.31	60.3987
18.396	60.3049
18.482	60.3038
18.568	60.3391
18.654	60.3234
18.74	60.2582
18.826	60.2268
18.912	60.264
18.998	60.3022
19.084	60.264
19.17	60.1551
19.256	60.0525
19.342	60.0209
19.428	60.0367
19.514	60.0136
19.6	59.8946
19.686	59.7204
19.772	59.5861
19.858	59.5454
19.944	59.5645
20.03	59.5706
20.116	59.5255
20.202	59.4435
20.288	59.3653
20.374	59.3347
20.46	59.3869
20.546	59.5227
20.632	59.6721
20.718	59.699
20.804	59.4751
20.89	58.9854
20.976	58.3692
21.062	57.851
21.148	57.6024
21.234	57.655
21.32	57.9153
21.406	58.2479
21.492	58.5557
21.578	58.7908
21.664	58.9381
21.75	58.9951
21.836	58.9762
21.922	58.9189
22.008	58.8619
22.094	58.8229
22.18	58.8043
22.266	58.8124
22.352	58.8723
22.438	59.0011
22.524	59.1856
22.61	59.3584
22.696	59.4263
22.782	59.3144
22.868	58.9905
22.954	58.4808
23.04	57.8557
23.126	57.2114
23.212	56.6786
23.298	56.3769
23.384	56.3876
23.47	56.7071
23.556	57.2363
23.642	57.8292
23.728	58.3501
23.814	58.7443
23.9	59.0367
23.986	59.2927
24.072	59.5701
24.158	59.8601
24.244	60.1017
24.33	60.2047
24.416	60.0796
24.502	59.6666
24.588	58.942
24.674	57.9191
24.76	56.6458
24.846	55.2354
24.932	53.8653
25.018	52.7242
25.104	51.9423
25.19	51.5782
25.276	51.5661
25.362	51.7023
25.448	51.7129
25.534	51.3576
25.62	50.4868
25.706	49.1006
25.792	47.3288
25.878	45.3615
25.964	43.3755
26.05	41.4928
26.136	39.8187
26.222	38.5002
26.308	37.7572
26.394	37.8314
26.48	38.9425
26.566	41.1164
26.652	44.0583
26.738	47.1283
26.824	49.4938
26.91	50.3347
26.996	48.8746
27.028	48.1382

File: C-4040-8_t35_cm-1.asc
PE IR       SPECTRUM    SPECTRUM    ASCII       PEDS        1.60
  -1
C-1BEE~1.ASC
17/05/02
13:49:26.00
17/05/02
13:49:26.00
tln
$C-4040-8_t0035$<tbV0>[-7.5,12.0,8.0,0.0,22,1,0]
370
64

2002,4.07
MIRTGS : RIGHTBACK : INTERNAL 2
MIR : ON : INTERNAL 2
OPTKBR

0.200000
8
8.000000
FILLER
RATIO
SPECTRUM
UNLOCKED 256

DOUBLE
64
COMBINED
1
0
0

1.000000
RATIO

1
0
TRUE
51149
0
LEFT NOT FITTED RIGHT NOT FITTED 0
NONE
NONE
15600
12
4.427000
51148
TRUE
1 0 8 72 0 0 0 0

15798

#HDR
-1
-1
#GR
CM-1
%T
2.38419e-05
0.0
7800
-1.000000
7431
8
81.6374
37.7282
#DATA
7800	65.5983
7775	63.8208
7750	80.0145
7725	66.5008
7700	61.9763
7675	69.8658
7650	66.2799
7625	72.5504
7600	65.5782
7575	73.3152
7550	68.1557
7525	67.5375
7500	65.1496
7475	64.4594
7450	67.1368
7425	67.9876
7400	61.6279
7375	63.4665
7350	65.0437
7325	63.9522
7300	64.3222
7275	66.7126
7250	65.4947
7225	66.8343
7200	62.9949
7175	64.6226
7150	66.4332
7125	63.7689
7100	64.1047
7075	64.3259
7050	63.6582
7025	63.9085
7000	65.1266
6975	63.6474
6950	64.5683
6925	64.5806
6900	65.3966
6875	66.0089
6850	65.1006
6825	64.5579
6800	63.8668
6775	63.9237
6750	63.9943
6725	62.2975
6700	66.8592
6675	63.2798
6650	63.8614
6625	67.2299
6600	66.084
6575	63.6237
6550	65.697
6525	63.9095
6500	66.2529
6475	63.0277
6450	64.2812
6425	64.6439
6400	65.0848
6375	63.9723
6350	66.0353
6325	66.252
6300	64.8385
6275	65.7446
6250	64.3774
6225	64.8696
6200	65.4076
6175	64.6127
6150	65.0445
6125	64.407
6100	64.8408
6075	64.2708
6050	64.9702
6025	64.9154
6000	64.6033
5975	63.7527
5950	64.8941
5925	65.3783
5900	64.3934
5875	64.6338
5850	65.2886
5825	64.7586
5800	64.6011
5775	64.9337
5750	65.5853
5725	64.3574
5700	65.4265
5675	65.2376
5650	64.7736
5625	64.959
5600	65.8417
5575	65.1977
5550	65.0444
5525	64.6023
5500	64.4112
5475	64.6521
5450	65.2397
5425	65.3308
5400	64.1599
5375	65.4355
5350	65.2318
5325	63.47
5300	61.317
5275	63.0419
5250	65.6185
5225	63.5238
5200	64.7784
5175	64.6451
5150	64.3221
5125	64.4322
5100	64.4542
5075	64.6464
5050	64.6401
5025	64.4298
5000	64.6994
4975	64.5414
4950	64.4036
4925	64.7676
4900	64.1696
4875	64.3901
4850	64.7646
4825	64.6504
4800	64.3448
4775	64.9708
4750	64.6017
4725	64.8829
4700	64.4297
4675	64.7035
4650	64.8526
4625	64.581
4600	64.5583
4575	65.0838
4550	64.717
4525	64.6728
4500	64.504
4475	64.8083
4450	65.079
4425	65.0286
4400	65.0287
4375	63.5152
4350	65.7066
4325	64.6921
4300	65.2322
4275	64.8792
4250	64.8432
4225	64.9592
4200	65.0627
4175	64.782
4150	65.1172
4125	64.8514
4100	65.1266
4075	64.7583
4050	65.0568
4025	64.7216
4000	64.9799
3975	64.8828
3950	65.2472
3925	64.952
3900	64.9266
3875	64.9345
3850	65.0527
3825	64.929
3800	65.1638
3775	64.8323
3750	64.8213
3725	65.0594
3700	65.0487
3675	64.9418
3650	65.1852
3625	64.9825
3600	64.8251
3575	65.0902
3550	64.9463
3525	64.9692
3500	64.7539
3475	64.6674
3450	65.0451
3425	65.2999
3400	65.0391
3375	65.063
3350	65.12
3325	64.8426
3300	64.8293
3275	64.8644
3250	64.9626
3225	64.9877
3200	64.8673
3175	64.9821
3150	65.021
3125	64.8275
3100	64.9796
3075	64.908
3050	64.9139
3025	64.9442
3000	65.0541
2975	64.8808
2950	64.8478
2925	64.6493
2900	64.8356
2875	64.8294
2850	64.8146
2825	65.0271
2800	65.0391
2775	65.1052
2750	64.9902
2725	64.9833
2700	65.0676
2675	65.0024
2650	64.9817
2625	65.0279
2600	65.0994
2575	65.0053
2550	65.0889
2525	64.9939
2500	65.0946
2475	65.0762
2450	65.1088
2425	65.131
2400	64.9865
2375	64.9794
2350	64.9144
2325	65.0738
2300	65.1685
2275	64.9805
2250	65.1477
2225	64.9862
2200	65.0394
2175	65.0368
2150	64.9591
2125	65.0128
2100	64.9831
2075	64.9966
2050	65.0018
2025	64.9585
2000	64.9731
1975	65.0692
1950	65.1049
1925	65.0412
1900	65.0142
1875	65.038
1850	65.0536
1825	64.9205
1800	65.053
1775	64.9922
1750	64.9379
1725	64.7913
1700	64.9643
1675	64.8901
1650	64.8365
1625	64.8892
1600	64.8237
1575	64.726
1550	64.7661
1525	64.7551
1500	64.7355
1475	64.6507
1450	64.7482
1425	64.7703
1400	64.6842
1375	64.6725
1350	64.7147
1325	64.7088
1300	64.8206
1275	64.692
1250	64.6181
1225	64.6789
1200	64.5937
1175	64.4917
1150	64.5137
1125	64.4974
1100	64.5307
1075	64.3112
1050	64.3836
1025	64.2018
1000	64.3239
975	 64.221
950	 64.2364
925	 64.2554
900	 63.8157
875	 64.1812
850	 63.917
825	 63.7523
800	 63.4391
775	 63.6049
750	 62.9905
725	 62.841
700	 62.3199
675	 62.4174
650	 62.1135
625	 61.8557
600	 61.852
575	 61.4112
550	 60.5984
525	 60.2915
500	 59.5736
475	 57.8959
450	 58.8036
425	 57.0589
400	 52.9358
375	 44.5865
370	 48.1382

File: C-4040-8_t36.asc
PE IR       SPECTRUM    SPECTRUM    ASCII       PEDS        1.60
  -1
C-B132~1.ASC
17/05/02
13:54:07.00
17/05/02
13:54:33.00
tln
$C-4040-8_t0036$<tbV0>[-12.5,12.0,8.0,0.0,22,1,0]
27.028
64

2002,4.07
MIRTGS : RIGHTBACK : INTERNAL 2
MIR : ON : INTERNAL 2
OPTKBR

0.200000
8
8.000000
FILLER
RATIO
SPECTRUM
UNLOCKED 256

DOUBLE
64
COMBINED
1
0
0

0.002000
RATIO

1
0
TRUE
51149
0
LEFT NOT FITTED RIGHT NOT FITTED 0
NONE
NONE
15600
12
4.427000
51148
TRUE
1 0 8 72 0 0 0 0

15798

#HDR
-1
-1
#GR
µM
%T
2.38419e-05
0.0
1.282000
0.002000
12874
8
78.3943
49.2407
#DATA
1.282000	 68.406
1.368000	 65.9339
1.454000	 63.4525
1.540000	 63.3267
1.626000	 63.9497
1.712000	 64.9224
1.798000	 64.575
1.884000	 63.7403
1.970000	 64.9276
2.056000	 64.2536
2.142000	 64.7814
2.228000	 64.5753
2.314000	 64.8281
2.400000	 64.8071
2.486000	 64.5984
2.572000	 64.7359
2.658000	 64.7416
2.744000	 64.8695
2.830000	 64.741
2.916000	 64.7015
3.002000	 64.8495
3.088000	 64.7607
3.174000	 64.8639
3.260000	 64.6155
3.346000	 64.7885
3.432000	 64.6064
3.518000	 64.725
3.604000	 64.9158
3.690000	 64.9516
3.776000	 64.7173
3.862000	 64.9579
3.948000	 65.0713
4.034000	 64.9058
4.120000	 64.9395
4.206000	 64.9314
4.292000	 64.9542
4.378000	 65.0643
4.464000	 64.9532
4.550000	 64.9903
4.636000	 64.8437
4.722000	 64.885
4.808000	 64.9056
4.894000	 64.9704
4.980000	 64.9747
5.066000	 65.0103
5.152000	 65.0029
5.238000	 64.9371
5.324000	 64.9422
5.410000	 64.9352
5.496000	 64.8927
5.582000	 64.8553
5.668000	 64.8777
5.754000	 64.7094
5.840000	 64.8015
5.926000	 64.8067
6.012000	 64.7793
6.098000	 64.7751
6.184000	 64.845
6.270000	 64.766
6.356000	 64.6691
6.442000	 64.7712
6.528000	 64.7138
6.614000	 64.7446
6.700000	 64.6855
6.786000	 64.6915
6.872000	 64.783
6.958000	 64.7109
7.044000	 64.7191
7.130000	 64.7491
7.216000	 64.5428
7.302000	 64.7369
7.388000	 64.527
7.474000	 64.549
7.560000	 64.6467
7.646000	 64.6373
7.732000	 64.6222
7.818000	 64.5168
7.904000	 64.5844
7.990000	 64.5666
8.076000	 64.6304
8.161999	 64.5477
8.248000	 64.415
8.334000	 64.5955
8.420000	 64.3747
8.506000	 64.3924
8.592000	 64.3465
8.678000	 64.3701
8.763999	 64.3079
8.850000	 64.2786
8.936000	 64.4803
9.022000	 64.1837
9.108000	 64.5124
9.193999	 64.2952
9.280000	 64.2744
9.366000	 64.2989
9.452000	 64.3309
9.538000	 64.3654
9.624000	 64.2674
9.710000	 64.3624
9.795999	 64.3788
9.882000	 64.375
9.968000	 64.1944
10.054	64.1569
10.14	64.3287
10.226	64.6004
10.312	64.3157
10.398	63.9069
10.484	64.3341
10.57	64.1135
10.656	64.5296
10.742	64.5813
10.828	64.2655
10.914	63.6835
11	64.2997
11.086	64.6727
11.172	64.3445
11.258	64.2059
11.344	63.8698
11.43	63.7599
11.516	63.7744
11.602	63.9181
11.688	63.8245
11.774	63.9065
11.86	63.9657
11.946	63.8733
12.032	63.7842
12.118	63.9572
12.204	63.9567
12.29	63.8015
12.376	63.6144
12.462	63.6892
12.548	63.6063
12.634	63.614
12.72	63.6255
12.806	63.4177
12.892	63.4689
12.978	63.398
13.064	63.3332
13.15	63.4815
13.236	63.4095
13.322	63.2315
13.408	63.1003
13.494	62.9955
13.58	62.9705
13.666	62.8745
13.752	62.8759
13.838	62.9797
13.924	62.9641
14.01	62.849
14.096	62.6935
14.182	62.6328
14.268	62.6741
14.354	62.7563
14.44	62.6898
14.526	62.5088
14.612	62.4361
14.698	62.467
14.784	62.4859
14.87	62.4253
14.956	62.3722
15.042	62.2851
15.128	62.1351
15.214	62.1257
15.3	62.1956
15.386	62.1683
15.472	62.1391
15.558	62.2309
15.644	62.4085
15.73	62.4747
15.816	62.2586
15.902	61.938
15.988	61.8312
16.074	61.9454
16.16	62.1078
16.246	62.2502
16.332	62.3305
16.418	62.287
16.504	62.1627
16.59	62.0676
16.676	62.026
16.762	61.9754
16.848	61.8791
16.934	61.7424
17.02	61.6064
17.106	61.5478
17.192	61.5475
17.278	61.485
17.364	61.3017
17.45	61.0906
17.536	61.0231
17.622	61.1351
17.708	61.2744
17.794	61.3158
17.88	61.2994
17.966	61.2856
18.052	61.234
18.138	61.1123
18.224	60.995
18.31	60.9687
18.396	61.0344
18.482	61.1217
18.568	61.1424
18.654	61.0264
18.74	60.7841
18.826	60.5337
18.912	60.4044
18.998	60.3898
19.084	60.3745
19.17	60.3126
19.256	60.2869
19.342	60.3639
19.428	60.4728
19.514	60.4813
19.6	60.3363
19.686	60.114
19.772	59.9404
19.858	59.8768
19.944	59.8892
20.03	59.9175
20.116	59.9215
20.202	59.8586
20.288	59.7024
20.374	59.5
20.46	59.3554
20.546	59.3279
20.632	59.3802
20.718	59.4331
20.804	59.4415
20.89	59.4067
20.976	59.3484
21.062	59.277
21.148	59.1964
21.234	59.1305
21.32	59.1286
21.406	59.2254
21.492	59.3935
21.578	59.5495
21.664	59.6179
21.75	59.5919
21.836	59.5277
21.922	59.4775
22.008	59.4228
22.094	59.2846
22.18	59.0018
22.266	58.603
22.352	58.2108
22.438	57.9533
22.524	57.8823
22.61	57.9464
22.696	58.0426
22.782	58.0981
22.868	58.0994
22.954	58.0785
23.04	58.0633
23.126	58.0423
23.212	57.97
23.298	57.8105
23.384	57.5732
23.47	57.3138
23.556	57.1093
23.642	57.02
23.728	57.0653
23.814	57.2364
23.9	57.5161
23.986	57.8822
24.072	58.3033
24.158	58.7166
24.244	59.0205
24.33	59.1033
24.416	58.9145
24.502	58.4848
24.588	57.9544
24.674	57.5128
24.76	57.3248
24.846	57.4374
24.932	57.7526
25.018	58.067
25.104	58.1698
25.19	57.9116
25.276	57.2679
25.362	56.3211
25.448	55.2448
25.534	54.2133
25.62	53.3519
25.706	52.7256
25.792	52.3639
25.878	52.3276
25.964	52.7537
26.05	53.8335
26.136	55.6951
26.222	58.2662
26.308	61.2177
26.394	64.0446
26.48	66.2639
26.566	67.5308
26.652	67.7644
26.738	67.1564
26.824	66.04
26.91	64.7841
26.996	63.5236
27.028	63.1791

File: C-4040-8_t36_cm-1.asc
PE IR       SPECTRUM    SPECTRUM    ASCII       PEDS        1.60
  -1
C-1B6E~1.ASC
17/05/02
13:54:07.00
17/05/02
13:54:07.00
tln
$C-4040-8_t0036$<tbV0>[-12.5,12.0,8.0,0.0,22,1,0]
370
64

2002,4.07
MIRTGS : RIGHTBACK : INTERNAL 2
MIR : ON : INTERNAL 2
OPTKBR

0.200000
8
8.000000
FILLER
RATIO
SPECTRUM
UNLOCKED 256

DOUBLE
64
COMBINED
1
0
0

1.000000
RATIO

1
0
TRUE
51149
0
LEFT NOT FITTED RIGHT NOT FITTED 0
NONE
NONE
15600
12
4.427000
51148
TRUE
1 0 8 72 0 0 0 0

15798

#HDR
-1
-1
#GR
CM-1
%T
2.38419e-05
0.0
7800
-1.000000
7431
8
79.1852
47.8689
#DATA
7800	68.406
7775	64.5785
7750	69.8596
7725	71.5345
7700	68.1527
7675	75.3264
7650	68.1092
7625	60.9656
7600	64.1852
7575	70.5632
7550	69.402
7525	66.04
7500	66.6055
7475	63.3814
7450	68.7295
7425	66.9215
7400	61.1404
7375	60.3266
7350	66.2191
7325	64.9671
7300	63.6743
7275	64.5988
7250	66.6163
7225	67.9836
7200	64.9468
7175	61.408
7150	65.5473
7125	65.7269
7100	63.7927
7075	65.5574
7050	64.1135
7025	64.8008
7000	66.9909
6975	63.9244
6950	64.1854
6925	64.3736
6900	63.7427
6875	64.2143
6850	65.4939
6825	66.0145
6800	63.6149
6775	63.061
6750	62.3897
6725	62.8875
6700	63.9907
6675	62.8968
6650	64.1039
6625	65.7378
6600	66.1402
6575	64.971
6550	64.1902
6525	63.9616
6500	64.3208
6475	63.3692
6450	63.4824
6425	62.9118
6400	64.2512
6375	65.044
6350	65.15
6325	63.4256
6300	63.7068
6275	64.4351
6250	63.9485
6225	62.9876
6200	64.5964
6175	62.7123
6150	63.9622
6125	65.4129
6100	63.3258
6075	64.1696
6050	64.4952
6025	64.3828
6000	64.9595
5975	64.7616
5950	63.8049
5925	65.0489
5900	64.2844
5875	64.6578
5850	64.7164
5825	65.3283
5800	63.8717
5775	64.4465
5750	64.6969
5725	64.3484
5700	65.0496
5675	64.4063
5650	64.3899
5625	64.3724
5600	65.0004
5575	65.004
5550	64.2128
5525	64.5825
5500	64.6025
5475	64.3217
5450	64.5221
5425	64.9411
5400	64.925
5375	64.6802
5350	65.374
5325	63.4406
5300	63.8699
5275	63.5231
5250	64.5202
5225	64.0044
5200	64.562
5175	64.597
5150	64.442
5125	64.5636
5100	64.4561
5075	64.9445
5050	64.3808
5025	64.3129
5000	64.4053
4975	64.8153
4950	64.4276
4925	64.9084
4900	64.3197
4875	64.2939
4850	64.3719
4825	64.7597
4800	64.3094
4775	64.8595
4750	64.454
4725	64.5524
4700	64.3174
4675	64.4652
4650	64.5403
4625	64.4461
4600	64.8268
4575	65.019
4550	64.6167
4525	64.4739
4500	64.7314
4475	64.6852
4450	64.1369
4425	64.5071
4400	63.8413
4375	58.3251
4350	65.4677
4325	64.7002
4300	64.986
4275	64.755
4250	64.5566
4225	64.5585
4200	64.4521
4175	64.71
4150	64.7872
4125	64.8502
4100	64.7151
4075	64.7075
4050	65.1519
4025	64.6001
4000	64.7781
3975	64.9323
3950	64.8089
3925	64.8694
3900	64.636
3875	64.7328
3850	64.8803
3825	64.9242
3800	64.8327
3775	64.8179
3750	64.8344
3725	64.8002
3700	64.7335
3675	64.5866
3650	64.9797
3625	64.797
3600	64.889
3575	64.7208
3550	64.8229
3525	64.7475
3500	64.9486
3475	64.7319
3450	64.6913
3425	64.9533
3400	64.9284
3375	64.8445
3350	64.9378
3325	64.8385
3300	64.6996
3275	64.8033
3250	64.8634
3225	64.7606
3200	64.7915
3175	64.8236
3150	64.8664
3125	64.7469
3100	64.8597
3075	64.7485
3050	64.7972
3025	64.7314
3000	64.8799
2975	64.6349
2950	64.7465
2925	64.508
2900	64.6886
2875	64.6992
2850	64.6872
2825	64.9791
2800	64.8467
2775	64.917
2750	64.8952
2725	64.9515
2700	64.9433
2675	64.8429
2650	64.7355
2625	64.9797
2600	64.9359
2575	64.9206
2550	64.9297
2525	65.0323
2500	64.9853
2475	64.9774
2450	64.9138
2425	64.9365
2400	64.9014
2375	64.9444
2350	64.9164
2325	64.8979
2300	65.0102
2275	64.926
2250	65.0077
2225	64.7871
2200	64.979
2175	64.9789
2150	64.9162
2125	64.9211
2100	64.9862
2075	64.9109
2050	64.8987
2025	64.9959
2000	64.9264
1975	65.007
1950	65.0251
1925	64.9899
1900	64.9999
1875	64.9595
1850	64.9353
1825	64.8895
1800	64.9902
1775	64.9124
1750	64.7498
1725	64.6434
1700	64.8655
1675	64.8153
1650	64.8152
1625	64.8117
1600	64.7304
1575	64.6814
1550	64.726
1525	64.7663
1500	64.7396
1475	64.7104
1450	64.5697
1425	64.7408
1400	64.7168
1375	64.6874
1350	64.5537
1325	64.646
1300	64.6433
1275	64.51
1250	64.5522
1225	64.5454
1200	64.5944
1175	64.3886
1150	64.3461
1125	64.3505
1100	64.4655
1075	64.3277
1050	64.3781
1025	64.3143
1000	64.1836
975	 64.5195
950	 64.3639
925	 64.3895
900	 64.5338
875	 63.7626
850	 63.8991
825	 63.963
800	 63.6843
775	 63.4781
750	 63.2128
725	 62.9328
700	 62.6923
675	 62.4708
650	 62.1692
625	 61.8378
600	 62.0297
575	 61.2294
550	 61.0451
525	 60.3874
500	 59.9085
475	 59.2854
450	 58.8143
425	 57.1624
400	 58.0132
375	 67.7149
370	 63.1791