Folder: Masteroppgave/Bakgrunnsmateriale/MATLAB/FTIR/ftir_data/subBb/Mapping_121 (part 14)

File: C-4040-8_t26_cm-1.asc
PE IR       SPECTRUM    SPECTRUM    ASCII       PEDS        1.60
  -1
C-9A6E~1.ASC
17/03/27
16:38:40.00
17/03/27
16:38:40.00
tln
$C-4040-8_t0026$<tbV0>[5.2,-7.8,8.0,0.0,27,1,0]
370
64

2002,4.07
MIRTGS : RIGHTBACK : INTERNAL 2
MIR : ON : INTERNAL 2
OPTKBR

0.200000
8
8.000000
FILLER
RATIO
SPECTRUM
UNLOCKED 256

DOUBLE
64
COMBINED
1
0
0

1.000000
RATIO

1
0
TRUE
51149
0
LEFT NOT FITTED RIGHT NOT FITTED 0
NONE
NONE
15600
12
4.427000
51148
TRUE
1 0 8 72 0 0 0 0

15798

#HDR
-1
-1
#GR
CM-1
%T
2.38419e-05
0.0
5000
-1.000000
4631
8
74.5954
-5.959939
#DATA
5000	63.1969
4984	63.2344
4968	63.4852
4952	63.6873
4936	63.4034
4920	63.3573
4904	63.2771
4888	63.2492
4872	62.8146
4856	63.4037
4840	63.3146
4824	63.4257
4808	62.6558
4792	62.8822
4776	62.7301
4760	62.9005
4744	63.0944
4728	62.9215
4712	62.9089
4696	62.767
4680	62.6999
4664	63.0369
4648	62.5097
4632	62.9331
4616	62.7067
4600	62.7782
4584	62.7749
4568	62.9005
4552	63.0594
4536	62.788
4520	63.3697
4504	62.7031
4488	63.3281
4472	62.9544
4456	63.4016
4440	63.146
4424	63.0779
4408	62.9341
4392	64.1688
4376	48.4603
4360	70.1127
4344	64.0567
4328	63.2262
4312	62.9369
4296	62.7022
4280	63.0126
4264	62.9932
4248	62.4458
4232	62.6214
4216	62.7068
4200	62.2412
4184	62.0347
4168	62.2086
4152	61.9082
4136	62.1266
4120	61.9811
4104	61.8215
4088	61.6132
4072	61.6452
4056	61.7424
4040	61.6385
4024	61.5689
4008	61.2656
3992	61.711
3976	61.8563
3960	61.3871
3944	61.3493
3928	61.2368
3912	61.1279
3896	61.3035
3880	61.4786
3864	61.0978
3848	61.0013
3832	61.0622
3816	61.1632
3800	60.9291
3784	60.9468
3768	60.6924
3752	60.8254
3736	60.527
3720	60.6666
3704	60.5478
3688	60.5589
3672	60.2691
3656	60.3264
3640	60.1301
3624	59.9424
3608	59.981
3592	59.7795
3576	59.7581
3560	59.7239
3544	59.6395
3528	59.649
3512	59.5466
3496	59.4177
3480	59.3133
3464	59.2505
3448	59.3794
3432	59.1134
3416	59.0274
3400	58.9154
3384	58.878
3368	58.5937
3352	58.6023
3336	58.4879
3320	58.3306
3304	58.1378
3288	57.9661
3272	57.9664
3256	57.8729
3240	57.7969
3224	57.6438
3208	57.3977
3192	57.4219
3176	57.2915
3160	57.0977
3144	56.9638
3128	56.5822
3112	57.0212
3096	56.8152
3080	56.485
3064	56.4702
3048	56.2011
3032	56.1281
3016	55.9417
3000	55.8797
2984	55.7324
2968	55.4555
2952	55.2116
2936	55.1197
2920	54.8393
2904	54.8923
2888	54.6942
2872	54.673
2856	54.2877
2840	54.4112
2824	54.248
2808	54.106
2792	53.82
2776	53.6202
2760	53.5745
2744	53.34
2728	53.0933
2712	53.016
2696	52.8347
2680	52.6597
2664	52.4896
2648	52.2466
2632	52.0138
2616	51.8841
2600	51.7582
2584	51.7043
2568	51.4308
2552	51.2507
2536	51.1768
2520	50.883
2504	50.8047
2488	50.4627
2472	50.3179
2456	50.2976
2440	49.9737
2424	49.9141
2408	49.4334
2392	49.399
2376	49.0925
2360	49.0863
2344	48.8599
2328	48.6572
2312	48.3818
2296	48.0555
2280	48.0419
2264	47.8313
2248	47.5255
2232	47.3608
2216	47.0508
2200	46.9894
2184	46.74
2168	46.6652
2152	46.3088
2136	46.1394
2120	45.9337
2104	45.7177
2088	45.6119
2072	45.3279
2056	45.1161
2040	44.8964
2024	44.7
2008	44.5678
1992	44.2804
1976	44.0506
1960	43.8082
1944	43.5301
1928	43.3923
1912	43.1422
1896	42.9917
1880	42.7564
1864	42.5419
1848	42.3109
1832	42.0726
1816	41.7537
1800	41.6019
1784	41.4382
1768	41.2357
1752	40.9538
1736	40.7228
1720	40.5115
1704	40.346
1688	40.074
1672	39.9344
1656	39.6455
1640	39.5273
1624	39.2437
1608	39.0495
1592	38.8691
1576	38.656
1560	38.4238
1544	38.0771
1528	37.9866
1512	37.7324
1496	37.5693
1480	37.2777
1464	37.2105
1448	37.0917
1432	36.6103
1416	36.4886
1400	36.1586
1384	35.9933
1368	35.7745
1352	35.5999
1336	35.3263
1320	35.0895
1304	34.9356
1288	34.8204
1272	34.5376
1256	34.3049
1240	34.0032
1224	33.8057
1208	33.7723
1192	33.4286
1176	33.1242
1160	32.986
1144	32.7178
1128	32.6038
1112	32.4255
1096	32.0712
1080	31.9221
1064	31.9294
1048	31.5002
1032	31.202
1016	31.2109
1000	30.4315
984	 30.6984
968	 30.1654
952	 29.7974
936	 29.5519
920	 29.2615
904	 28.9804
888	 28.7097
872	 28.6193
856	 28.0544
840	 28.0498
824	 27.3875
808	 27.1855
792	 26.9478
776	 26.3761
760	 26.3585
744	 25.4912
728	 25.3818
712	 24.9475
696	 24.5075
680	 23.9235
664	 23.6888
648	 22.9841
632	 22.0028
616	 22.5595
600	 21.8109
584	 21.2713
568	 20.7869
552	 19.4968
536	 19.3134
520	 19.2089
504	 18.3687
488	 17.4465
472	 16.6205
456	 16.8353
440	 14.6371
424	 14.5461
408	 14.6164
392	 22.0646
376	 35.1022
370	 -5.959939

File: C-4040-8_t27.asc
PE IR       SPECTRUM    SPECTRUM    ASCII       PEDS        1.60
  -1
C-BD26~1.ASC
17/03/27
16:43:17.00
17/03/27
16:43:43.00
tln
$C-4040-8_t0027$<tbV0>[2.6,-7.8,8.0,0.0,27,1,0]
27.028
64

2002,4.07
MIRTGS : RIGHTBACK : INTERNAL 2
MIR : ON : INTERNAL 2
OPTKBR

0.200000
8
8.000000
FILLER
RATIO
SPECTRUM
UNLOCKED 256

DOUBLE
64
COMBINED
1
0
0

0.002000
RATIO

1
0
TRUE
51149
0
LEFT NOT FITTED RIGHT NOT FITTED 0
NONE
NONE
15600
12
4.427000
51148
TRUE
1 0 8 72 0 0 0 0

15798

#HDR
-1
-1
#GR
µM
%T
2.38419e-05
0.0
2.000000
0.002000
12515
8
64.636
15.3113
#DATA
2.000000	 63.2913
2.084000	 63.3462
2.168000	 63.4747
2.252000	 63.393
2.336000	 63.1294
2.420000	 62.9927
2.504000	 62.6418
2.588000	 62.2859
2.672000	 62.0019
2.756000	 61.7307
2.840000	 61.1506
2.924000	 60.7026
3.008000	 60.3732
3.092000	 59.8382
3.176000	 59.289
3.260000	 58.934
3.344000	 58.4583
3.428000	 57.7312
3.512000	 57.5871
3.596000	 57.1889
3.680000	 56.5757
3.764000	 56.0089
3.848000	 55.6846
3.932000	 55.261
4.016000	 54.5581
4.100000	 54.3537
4.184000	 53.7551
4.268000	 53.3653
4.352000	 52.9365
4.436000	 52.6314
4.520000	 52.2694
4.604000	 51.8876
4.688000	 51.4546
4.772000	 51.0898
4.856000	 50.76
4.940000	 50.2584
5.024000	 49.9819
5.108000	 49.6593
5.192000	 49.3538
5.276000	 48.8526
5.359999	 48.7052
5.444000	 48.3686
5.528000	 47.9354
5.612000	 47.6658
5.696000	 47.4057
5.780000	 47.0518
5.864000	 46.9229
5.948000	 46.5789
6.032000	 46.3767
6.116000	 46.1646
6.200000	 45.8074
6.284000	 45.5075
6.368000	 45.3267
6.452000	 45.1292
6.536000	 44.8583
6.620000	 44.6759
6.704000	 44.409
6.788000	 44.2608
6.872000	 44.0744
6.956000	 44.0091
7.040000	 43.5115
7.124000	 43.4261
7.208000	 43.289
7.292000	 43.0776
7.376000	 42.9632
7.460000	 42.6665
7.544000	 42.5527
7.628000	 42.2994
7.712000	 42.258
7.796000	 42.0257
7.880000	 41.9096
7.964000	 41.8186
8.048000	 41.7122
8.132000	 41.4719
8.216000	 41.3636
8.300000	 41.0834
8.384000	 41.084
8.468000	 40.884
8.552000	 40.9059
8.635999	 40.7334
8.719999	 40.5224
8.804000	 40.5713
8.888000	 40.2442
8.972000	 40.153
9.056000	 40.2803
9.140000	 39.9462
9.224000	 39.4842
9.308000	 39.3546
9.391999	 39.5458
9.475999	 39.4974
9.560000	 39.3655
9.644000	 39.0342
9.728000	 38.8406
9.812000	 39.3078
9.896000	 38.6107
9.980000	 38.273
10.064	38.4951
10.148	38.5312
10.232	38.3026
10.316	38.0495
10.4	37.9018
10.484	38.0969
10.568	38.0047
10.652	37.7567
10.736	37.5673
10.82	37.3663
10.904	37.5227
10.988	37.5911
11.072	37.3123
11.156	37.0895
11.24	37.1847
11.324	37.0467
11.408	36.9573
11.492	36.7697
11.576	36.5383
11.66	36.5059
11.744	36.504
11.828	36.3962
11.912	36.2894
11.996	36.2341
12.08	35.9366
12.164	36.0812
12.248	36.0228
12.332	35.8582
12.416	35.7911
12.5	35.5376
12.584	35.3737
12.668	35.4385
12.752	35.3352
12.836	35.1047
12.92	34.8387
13.004	34.6969
13.088	34.7827
13.172	34.8178
13.256	34.6978
13.34	34.6349
13.424	34.6301
13.508	34.535
13.592	34.3471
13.676	34.2798
13.76	34.1686
13.844	33.9731
13.928	33.8333
14.012	33.6547
14.096	33.5045
14.18	33.5412
14.264	33.6141
14.348	33.5065
14.432	33.1918
14.516	32.8741
14.6	32.7637
14.684	32.7709
14.768	32.6926
14.852	32.5468
14.936	32.6394
15.02	32.9322
15.104	32.9746
15.188	32.7193
15.272	32.4683
15.356	32.3335
15.44	32.2723
15.524	32.1866
15.608	31.9685
15.692	31.6885
15.776	31.548
15.86	31.6112
15.944	31.6938
16.028	31.6121
16.112	31.4586
16.196	31.3828
16.28	31.2967
16.364	31.0849
16.448	30.8259
16.532	30.6363
16.616	30.5323
16.7	30.4803
16.784	30.4388
16.868	30.3861
16.952	30.3462
17.036	30.3254
17.12	30.2691
17.204	30.1525
17.288	30.0305
17.372	29.9629
17.456	29.9464
17.54	29.9306
17.624	29.8721
17.708	29.7635
17.792	29.6088
17.876	29.4029
17.96	29.1874
18.044	29.062
18.128	29.0668
18.212	29.1216
18.296	29.1325
18.38	29.084
18.464	28.9791
18.548	28.7898
18.632	28.5321
18.716	28.3095
18.8	28.2071
18.884	28.1817
18.968	28.1132
19.052	27.9425
19.136	27.7228
19.22	27.5456
19.304	27.4529
19.388	27.4365
19.472	27.4839
19.556	27.5847
19.64	27.7058
19.724	27.7888
19.808	27.7774
19.892	27.644
19.976	27.4015
20.06	27.1056
20.144	26.8439
20.228	26.6909
20.312	26.6496
20.396	26.6409
20.48	26.5732
20.564	26.4183
20.648	26.2211
20.732	26.0383
20.816	25.8845
20.9	25.7405
20.984	25.6046
21.068	25.5134
21.152	25.5065
21.236	25.5811
21.32	25.6947
21.404	25.7933
21.488	25.8296
21.572	25.7685
21.656	25.5954
21.74	25.3311
21.824	25.0393
21.908	24.8007
21.992	24.6701
22.076	24.6544
22.16	24.7142
22.244	24.7997
22.328	24.8691
22.412	24.8876
22.496	24.8149
22.58	24.6288
22.664	24.3431
22.748	24.0206
22.832	23.7516
22.916	23.6055
23	23.5775
23.084	23.5904
23.168	23.5295
23.252	23.3131
23.336	22.9177
23.42	22.3765
23.504	21.7597
23.588	21.1527
23.672	20.6317
23.756	20.2426
23.84	19.9569
23.924	19.6678
24.008	19.2385
24.092	18.5722
24.176	17.6817
24.26	16.7047
24.344	15.8757
24.428	15.3972
24.512	15.331
24.596	15.5803
24.68	15.9416
24.764	16.2017
24.848	16.2685
24.932	16.1757
25.016	16.0468
25.1	16.0095
25.184	16.1801
25.268	16.6236
25.352	17.3577
25.436	18.2914
25.52	19.2467
25.604	20.0394
25.688	20.5042
25.772	20.6393
25.856	20.6576
25.94	20.8126
26.024	21.3124
26.108	22.2331
26.192	23.6638
26.276	25.6824
26.36	28.3396
26.444	31.4707
26.528	34.6775
26.612	37.3459
26.696	38.9432
26.78	39.2338
26.864	38.5822
26.948	37.6844
27.028	37.011

File: C-4040-8_t27_cm-1.asc
PE IR       SPECTRUM    SPECTRUM    ASCII       PEDS        1.60
  -1
C-9AEF~1.ASC
17/03/27
16:43:17.00
17/03/27
16:43:17.00
tln
$C-4040-8_t0027$<tbV0>[2.6,-7.8,8.0,0.0,27,1,0]
370
64

2002,4.07
MIRTGS : RIGHTBACK : INTERNAL 2
MIR : ON : INTERNAL 2
OPTKBR

0.200000
8
8.000000
FILLER
RATIO
SPECTRUM
UNLOCKED 256

DOUBLE
64
COMBINED
1
0
0

1.000000
RATIO

1
0
TRUE
51149
0
LEFT NOT FITTED RIGHT NOT FITTED 0
NONE
NONE
15600
12
4.427000
51148
TRUE
1 0 8 72 0 0 0 0

15798

#HDR
-1
-1
#GR
CM-1
%T
2.38419e-05
0.0
5000
-1.000000
4631
8
64.8374
15.3283
#DATA
5000	63.2913
4984	63.3535
4968	62.8551
4952	63.7059
4936	63.7316
4920	63.6094
4904	63.6083
4888	63.8322
4872	63.5233
4856	63.818
4840	63.7671
4824	63.864
4808	63.578
4792	63.4724
4776	63.3398
4760	63.2902
4744	63.7039
4728	63.0743
4712	63.5528
4696	63.2074
4680	63.0887
4664	63.5507
4648	63.3566
4632	63.5603
4616	63.4969
4600	63.4883
4584	63.1374
4568	63.4895
4552	63.6422
4536	63.1333
4520	63.6348
4504	63.3695
4488	63.4456
4472	63.241
4456	63.359
4440	63.4159
4424	62.9858
4408	62.9182
4392	63.3818
4376	62.5371
4360	64.7698
4344	63.3028
4328	62.6049
4312	63.877
4296	63.1785
4280	63.1431
4264	63.1064
4248	63.1738
4232	63.3476
4216	63.0749
4200	62.5738
4184	62.4506
4168	62.9483
4152	62.7352
4136	62.9919
4120	62.6965
4104	62.6164
4088	62.5669
4072	62.9471
4056	62.7158
4040	62.6358
4024	62.5874
4008	62.3268
3992	62.675
3976	62.5094
3960	62.3554
3944	62.3836
3928	62.6698
3912	62.0745
3896	62.2797
3880	62.5555
3864	62.2855
3848	62.1333
3832	62.2684
3816	62.1607
3800	62.1441
3784	61.9077
3768	62.0656
3752	62.0241
3736	61.8117
3720	62.0059
3704	61.9413
3688	61.7926
3672	61.6347
3656	61.6509
3640	61.6447
3624	61.7203
3608	61.6802
3592	61.6693
3576	61.4887
3560	61.3478
3544	61.4383
3528	61.2211
3512	61.198
3496	61.074
3480	61.1745
3464	61.0539
3448	60.8862
3432	60.761
3416	60.6709
3400	60.703
3384	60.6014
3368	60.6969
3352	60.3711
3336	60.5699
3320	60.4208
3304	60.306
3288	60.3112
3272	59.9705
3256	59.8965
3240	59.8909
3224	59.6675
3208	59.5737
3192	59.5367
3176	59.7131
3160	59.6115
3144	59.2184
3128	58.9794
3112	59.3728
3096	59.1895
3080	59.0348
3064	58.903
3048	58.9263
3032	58.8197
3016	58.6368
3000	58.539
2984	58.4736
2968	58.3378
2952	58.1308
2936	57.8585
2920	57.717
2904	57.8499
2888	57.7512
2872	57.6898
2856	57.4252
2840	57.5714
2824	57.3715
2808	57.3329
2792	57.0977
2776	57.0673
2760	56.8904
2744	56.8887
2728	56.7604
2712	56.5001
2696	56.5448
2680	56.3034
2664	56.3178
2648	55.8664
2632	55.9915
2616	55.8014
2600	55.6704
2584	55.5449
2568	55.4873
2552	55.4181
2536	55.0989
2520	54.9407
2504	54.7781
2488	54.5993
2472	54.5889
2456	54.3733
2440	54.3637
2424	54.1667
2408	53.9231
2392	53.7544
2376	53.8087
2360	53.5901
2344	53.3811
2328	53.2365
2312	53.0761
2296	52.9184
2280	52.8261
2264	52.6032
2248	52.5911
2232	52.451
2216	52.264
2200	52.0579
2184	51.9999
2168	51.8761
2152	51.7859
2136	51.4905
2120	51.2378
2104	51.1362
2088	51.0947
2072	50.9588
2056	50.7259
2040	50.4508
2024	50.2501
2008	50.1449
1992	50.0108
1976	49.7981
1960	49.6571
1944	49.5453
1928	49.3874
1912	49.1242
1896	48.8698
1880	48.7468
1864	48.6878
1848	48.3846
1832	48.2522
1816	48.1711
1800	47.9046
1784	47.7147
1768	47.5381
1752	47.3756
1736	47.0374
1720	46.8232
1704	46.9088
1688	46.8171
1672	46.5547
1656	46.3504
1640	46.167
1624	45.9076
1608	45.8678
1592	45.5167
1576	45.3324
1560	45.1921
1544	44.9783
1528	44.8304
1512	44.6869
1496	44.492
1480	44.3766
1464	44.0993
1448	43.9565
1432	43.8413
1416	43.6066
1400	43.487
1384	43.2554
1368	43.0414
1352	42.9362
1336	42.6999
1320	42.6117
1304	42.3155
1288	42.0925
1272	41.9209
1256	41.8221
1240	41.6614
1224	41.4136
1208	41.1509
1192	41.0877
1176	40.914
1160	40.7474
1144	40.5633
1128	40.3186
1112	40.1393
1096	40.0313
1080	39.4242
1064	39.556
1048	39.3477
1032	38.6921
1016	39.0115
1000	38.3486
984	 38.4928
968	 38.0104
952	 38.119
936	 37.6822
920	 37.4383
904	 37.3387
888	 37.1728
872	 36.836
856	 36.5098
840	 36.2905
824	 35.994
808	 35.8386
792	 35.4033
776	 34.945
760	 34.8265
744	 34.6233
728	 34.2168
712	 33.5793
696	 33.4473
680	 32.7647
664	 33.0026
648	 32.277
632	 31.5653
616	 31.3561
600	 30.4974
584	 30.2656
568	 29.8894
552	 29.0604
536	 28.4573
520	 27.5288
504	 27.7393
488	 26.5564
472	 25.5291
456	 24.755
440	 24.0987
424	 21.1738
408	 15.3283
392	 19.1413
376	 36.9054
370	 37.011

File: C-4040-8_t28.asc
PE IR       SPECTRUM    SPECTRUM    ASCII       PEDS        1.60
  -1
C-CD2A~1.ASC
17/03/27
16:47:54.00
17/03/27
16:48:20.00
tln
$C-4040-8_t0028$<tbV0>[0.0,-7.8,8.0,0.0,27,1,0]
27.028
64

2002,4.07
MIRTGS : RIGHTBACK : INTERNAL 2
MIR : ON : INTERNAL 2
OPTKBR

0.200000
8
8.000000
FILLER
RATIO
SPECTRUM
UNLOCKED 256

DOUBLE
64
COMBINED
1
0
0

0.002000
RATIO

1
0
TRUE
51149
0
LEFT NOT FITTED RIGHT NOT FITTED 0
NONE
NONE
15600
12
4.427000
51148
TRUE
1 0 8 72 0 0 0 0

15798

#HDR
-1
-1
#GR
µM
%T
2.38419e-05
0.0
2.000000
0.002000
12515
8
68.9672
22.7881
#DATA
2.000000	 63.6191
2.084000	 63.6785
2.168000	 64.077
2.252000	 63.4946
2.336000	 63.7983
2.420000	 63.4042
2.504000	 62.8921
2.588000	 62.8133
2.672000	 62.7585
2.756000	 62.3283
2.840000	 62.1355
2.924000	 61.7386
3.008000	 61.1805
3.092000	 61.1295
3.176000	 60.7124
3.260000	 60.3708
3.344000	 60.0246
3.428000	 59.2626
3.512000	 59.1001
3.596000	 58.9475
3.680000	 58.7076
3.764000	 58.2286
3.848000	 57.7599
3.932000	 57.4535
4.016000	 56.9594
4.100000	 56.7157
4.184000	 56.3956
4.268000	 56.0489
4.352000	 55.7154
4.436000	 55.4519
4.520000	 55.0902
4.604000	 54.8568
4.688000	 54.526
4.772000	 54.0685
4.856000	 54.0203
4.940000	 53.5176
5.024000	 53.3453
5.108000	 53.0034
5.192000	 52.7578
5.276000	 52.4632
5.359999	 52.1772
5.444000	 51.9673
5.528000	 51.6609
5.612000	 51.3214
5.696000	 51.107
5.780000	 50.7918
5.864000	 50.7079
5.948000	 50.4471
6.032000	 50.2723
6.116000	 50.0893
6.200000	 49.9139
6.284000	 49.718
6.368000	 49.4852
6.452000	 49.2853
6.536000	 49.1551
6.620000	 48.9749
6.704000	 48.8211
6.788000	 48.6584
6.872000	 48.5004
6.956000	 48.2571
7.040000	 48.0796
7.124000	 47.8197
7.208000	 47.6989
7.292000	 47.6682
7.376000	 47.4868
7.460000	 47.2962
7.544000	 47.0889
7.628000	 47.0624
7.712000	 46.7942
7.796000	 46.6537
7.880000	 46.4299
7.964000	 46.5916
8.048000	 46.5055
8.132000	 46.303
8.216000	 46.1901
8.300000	 46.0088
8.384000	 45.9435
8.468000	 45.6428
8.552000	 45.4923
8.635999	 45.5048
8.719999	 45.2557
8.804000	 45.3594
8.888000	 45.1013
8.972000	 45.0123
9.056000	 45.0792
9.140000	 44.9643
9.224000	 45.061
9.308000	 44.307
9.391999	 43.946
9.475999	 44.4749
9.560000	 45.0045
9.644000	 44.441
9.728000	 44.0642
9.812000	 44.2957
9.896000	 44.0664
9.980000	 43.8347
10.064	43.6569
10.148	43.8929
10.232	43.4594
10.316	43.4308
10.4	43.1474
10.484	43.1877
10.568	43.2117
10.652	43.0473
10.736	43.0351
10.82	42.9165
10.904	42.9582
10.988	42.6923
11.072	42.6308
11.156	42.6367
11.24	42.614
11.324	42.439
11.408	42.404
11.492	42.3537
11.576	42.2788
11.66	41.9467
11.744	41.9346
11.828	41.9499
11.912	41.7388
11.996	41.7997
12.08	41.7338
12.164	41.5796
12.248	41.4976
12.332	41.5102
12.416	41.4637
12.5	41.2976
12.584	41.1223
12.668	40.8954
12.752	40.717
12.836	40.5723
12.92	40.434
13.004	40.3505
13.088	40.4147
13.172	40.4257
13.256	40.1032
13.34	39.9177
13.424	39.9857
13.508	39.8851
13.592	39.8306
13.676	39.9089
13.76	39.8251
13.844	39.6661
13.928	39.6552
14.012	39.67
14.096	39.5101
14.18	39.3468
14.264	39.1956
14.348	38.9254
14.432	38.7172
14.516	38.6141
14.6	38.4668
14.684	38.3
14.768	38.1731
14.852	38.15
14.936	38.3127
15.02	38.4903
15.104	38.4221
15.188	38.1649
15.272	37.9666
15.356	37.8848
15.44	37.8054
15.524	37.6859
15.608	37.6136
15.692	37.6173
15.776	37.5637
15.86	37.4181
15.944	37.3288
16.028	37.3444
16.112	37.3759
16.196	37.4176
16.28	37.4949
16.364	37.5238
16.448	37.4775
16.532	37.4552
16.616	37.4367
16.7	37.2591
16.784	36.9101
16.868	36.5772
16.952	36.4047
17.036	36.374
17.12	36.4225
17.204	36.5465
17.288	36.7133
17.372	36.7964
17.456	36.7071
17.54	36.5165
17.624	36.3288
17.708	36.1127
17.792	35.7726
17.876	35.3217
17.96	34.9163
18.044	34.709
18.128	34.7111
18.212	34.8167
18.296	34.931
18.38	35.0403
18.464	35.1668
18.548	35.2876
18.632	35.3247
18.716	35.224
18.8	35.0259
18.884	34.8292
18.968	34.6971
19.052	34.6186
19.136	34.5604
19.22	34.5116
19.304	34.4584
19.388	34.3541
19.472	34.1601
19.556	33.8955
19.64	33.6363
19.724	33.4558
19.808	33.3538
19.892	33.2471
19.976	33.0424
20.06	32.7358
20.144	32.4254
20.228	32.2168
20.312	32.1139
20.396	32.0199
20.48	31.8502
20.564	31.6249
20.648	31.4392
20.732	31.3539
20.816	31.3332
20.9	31.2903
20.984	31.1825
21.068	31.0554
21.152	30.997
21.236	31.0663
21.32	31.2668
21.404	31.555
21.488	31.8564
21.572	32.0877
21.656	32.1841
21.74	32.1303
21.824	31.9639
21.908	31.744
21.992	31.5184
22.076	31.3146
22.16	31.1509
22.244	31.0569
22.328	31.0486
22.412	31.0999
22.496	31.1259
22.58	31.0319
22.664	30.7753
22.748	30.4156
22.832	30.0869
22.916	29.9271
23	29.9907
23.084	30.2128
23.168	30.4471
23.252	30.5561
23.336	30.4446
23.42	30.0748
23.504	29.4839
23.588	28.7474
23.672	27.9657
23.756	27.2903
23.84	26.8203
23.924	26.5814
24.008	26.5421
24.092	26.6383
24.176	26.7823
24.26	26.9253
24.344	27.0656
24.428	27.1941
24.512	27.199
24.596	26.8904
24.68	26.1238
24.764	24.9525
24.848	23.6883
24.932	22.8627
25.016	23.0273
25.1	24.531
25.184	27.6134
25.268	32.2852
25.352	38.2747
25.436	44.7052
25.52	50.1966
25.604	53.331
25.688	53.1546
25.772	49.7929
25.856	44.4563
25.94	38.7928
26.024	34.326
26.108	31.8702
26.192	31.6315
26.276	33.357
26.36	36.6809
26.444	40.9087
26.528	45.1251
26.612	48.3197
26.696	49.6837
26.78	48.802
26.864	46.0434
26.948	42.3554
27.028	38.9755

File: C-4040-8_t28_cm-1.asc
PE IR       SPECTRUM    SPECTRUM    ASCII       PEDS        1.60
  -1
C-9A65~1.ASC
17/03/27
16:47:54.00
17/03/27
16:47:54.00
tln
$C-4040-8_t0028$<tbV0>[0.0,-7.8,8.0,0.0,27,1,0]
370
64

2002,4.07
MIRTGS : RIGHTBACK : INTERNAL 2
MIR : ON : INTERNAL 2
OPTKBR

0.200000
8
8.000000
FILLER
RATIO
SPECTRUM
UNLOCKED 256

DOUBLE
64
COMBINED
1
0
0

1.000000
RATIO

1
0
TRUE
51149
0
LEFT NOT FITTED RIGHT NOT FITTED 0
NONE
NONE
15600
12
4.427000
51148
TRUE
1 0 8 72 0 0 0 0

15798

#HDR
-1
-1
#GR
CM-1
%T
2.38419e-05
0.0
5000
-1.000000
4631
8
68.9335
22.8392
#DATA
5000	63.6191
4984	63.5829
4968	63.4886
4952	63.7856
4936	64.0574
4920	63.7556
4904	63.7412
4888	63.8406
4872	63.6988
4856	63.504
4840	63.1611
4824	64.1489
4808	63.6693
4792	63.5448
4776	63.3871
4760	63.7449
4744	63.7257
4728	63.2826
4712	63.675
4696	63.585
4680	63.9122
4664	64.2073
4648	63.5066
4632	63.9039
4616	63.9511
4600	63.95
4584	63.5339
4568	63.7686
4552	63.445
4536	63.3429
4520	64.2136
4504	63.8049
4488	63.3139
4472	63.2067
4456	63.6118
4440	63.5201
4424	63.6736
4408	62.7592
4392	63.2102
4376	62.4567
4360	65.7457
4344	63.7401
4328	63.89
4312	63.2972
4296	63.8681
4280	63.7967
4264	63.7297
4248	62.8313
4232	63.3776
4216	63.2776
4200	63.127
4184	63.2236
4168	63.305
4152	63.2745
4136	63.3567
4120	63.2085
4104	62.9575
4088	63.3475
4072	63.2155
4056	63.1958
4040	62.9589
4024	63.2054
4008	63.0015
3992	62.9241
3976	63.0221
3960	63.092
3944	62.8782
3928	63.0235
3912	62.9009
3896	62.9234
3880	62.9373
3864	62.8131
3848	62.6369
3832	62.5277
3816	62.8747
3800	62.7771
3784	62.5094
3768	62.4355
3752	62.7016
3736	62.5607
3720	62.6169
3704	62.6168
3688	62.5777
3672	62.5395
3656	62.3056
3640	62.4194
3624	62.4387
3608	62.3113
3592	62.4082
3576	62.1583
3560	62.1299
3544	62.2119
3528	62.2266
3512	62.2746
3496	62.1211
3480	62.1058
3464	62.0432
3448	61.9353
3432	61.8963
3416	61.8254
3400	61.7225
3384	61.5911
3368	61.6097
3352	61.6353
3336	61.2415
3320	61.3259
3304	61.4218
3288	61.424
3272	61.2033
3256	61.0555
3240	61.147
3224	60.9174
3208	60.8823
3192	60.7518
3176	60.9464
3160	60.703
3144	60.6883
3128	60.6635
3112	60.709
3096	60.3544
3080	60.4232
3064	60.2956
3048	60.1791
3032	60.3519
3016	60.1185
3000	59.9057
2984	59.9832
2968	60.0882
2952	59.6419
2936	59.4586
2920	59.2717
2904	59.3735
2888	59.4434
2872	59.3881
2856	59.1748
2840	59.23
2824	59.1471
2808	59.2352
2792	59.0236
2776	58.9041
2760	58.7823
2744	58.8075
2728	58.5396
2712	58.5248
2696	58.4747
2680	58.2495
2664	58.2615
2648	58.0727
2632	58.0414
2616	57.9046
2600	57.7633
2584	57.7545
2568	57.689
2552	57.54
2536	57.3791
2520	57.3546
2504	57.1041
2488	56.9989
2472	56.9742
2456	56.7454
2440	56.7301
2424	56.5233
2408	56.5074
2392	56.4353
2376	56.3126
2360	56.2129
2344	56.0381
2328	55.9203
2312	55.8608
2296	55.6981
2280	55.6813
2264	55.444
2248	55.5023
2232	55.2879
2216	55.0799
2200	55.0271
2184	54.8572
2168	54.8127
2152	54.5416
2136	54.5493
2120	54.4598
2104	54.2995
2088	54.1651
2072	53.8598
2056	53.9567
2040	53.657
2024	53.5138
2008	53.4136
1992	53.3867
1976	53.0816
1960	53.0073
1944	52.8585
1928	52.8114
1912	52.5555
1896	52.4587
1880	52.2764
1864	52.1882
1848	51.9805
1832	51.9149
1816	51.8121
1800	51.6286
1784	51.3575
1768	51.3451
1752	51.0705
1736	50.8882
1720	50.5032
1704	50.7119
1688	50.5619
1672	50.5442
1656	50.2776
1640	50.1106
1624	49.9945
1608	49.8768
1592	49.724
1576	49.5092
1560	49.4529
1544	49.0268
1528	49.1161
1512	48.9606
1496	48.8996
1480	48.6835
1464	48.5551
1448	48.4028
1432	48.3831
1416	47.9843
1400	47.8391
1384	47.652
1368	47.5919
1352	47.3775
1336	47.2898
1320	47.0562
1304	46.9335
1288	46.7044
1272	46.4676
1256	46.5931
1240	46.3794
1224	46.2199
1208	46.0766
1192	45.9326
1176	45.6945
1160	45.4949
1144	45.225
1128	45.1538
1112	45.0333
1096	45.0482
1080	45.0154
1064	43.9839
1048	44.9337
1032	44.3323
1016	44.5389
1000	43.844
984	 43.8663
968	 43.4158
952	 43.2447
936	 43.0316
920	 42.9436
904	 42.6185
888	 42.5773
872	 42.391
856	 41.8782
840	 41.7476
824	 41.62
808	 41.506
792	 41.0161
776	 40.4807
760	 40.4492
744	 39.9828
728	 39.8687
712	 39.6251
696	 38.8626
680	 38.2624
664	 38.4943
648	 37.8151
632	 37.4858
616	 37.451
600	 37.3555
584	 36.4259
568	 36.3687
552	 34.7015
536	 35.3097
520	 34.5057
504	 33.3184
488	 31.8203
472	 31.0084
456	 31.6844
440	 30.5073
424	 28.7759
408	 27.2024
392	 49.6618
376	 47.8309
370	 38.9755