Folder: Masteroppgave/Bakgrunnsmateriale/MATLAB/FTIR/ftir_data/subBb/Mapping_121 (part 49)

File: C-4040-8_t114.asc
PE IR       SPECTRUM    SPECTRUM    ASCII       PEDS        1.60
  -1
C-8CC8~1.ASC
17/03/27
23:53:38.00
17/03/27
23:54:04.00
tln
$C-4040-8_t0114$<tbV0>[5.2,13.0,8.0,0.0,27,1,0]
27.028
64

2002,4.07
MIRTGS : RIGHTBACK : INTERNAL 2
MIR : ON : INTERNAL 2
OPTKBR

0.200000
8
8.000000
FILLER
RATIO
SPECTRUM
UNLOCKED 256

DOUBLE
64
COMBINED
1
0
0

0.002000
RATIO

1
0
TRUE
51149
0
LEFT NOT FITTED RIGHT NOT FITTED 0
NONE
NONE
15600
12
4.427000
51148
TRUE
1 0 8 72 0 0 0 0

15798

#HDR
-1
-1
#GR
µM
%T
2.38419e-05
0.0
2.000000
0.002000
12515
8
96.9612
39.6262
#DATA
2.000000	 64.6216
2.084000	 65.1132
2.168000	 65.0479
2.252000	 66.3535
2.336000	 65.8155
2.420000	 64.8674
2.504000	 65.1937
2.588000	 65.469
2.672000	 65.3401
2.756000	 65.3163
2.840000	 65.1346
2.924000	 65.1013
3.008000	 64.9754
3.092000	 65.1567
3.176000	 65.0796
3.260000	 65.1621
3.344000	 65.2651
3.428000	 64.9475
3.512000	 65.0903
3.596000	 65.203
3.680000	 65.2022
3.764000	 65.15
3.848000	 65.2157
3.932000	 65.2685
4.016000	 64.9885
4.100000	 65.2657
4.184000	 65.1749
4.268000	 65.3031
4.352000	 65.4188
4.436000	 65.2781
4.520000	 65.3785
4.604000	 65.4027
4.688000	 65.1485
4.772000	 65.3798
4.856000	 65.2032
4.940000	 65.3835
5.024000	 65.1298
5.108000	 65.2413
5.192000	 65.2189
5.276000	 65.2391
5.359999	 65.1957
5.444000	 65.2374
5.528000	 65.1359
5.612000	 65.2211
5.696000	 65.1163
5.780000	 64.8444
5.864000	 65.1507
5.948000	 65.1841
6.032000	 65.1352
6.116000	 65.1572
6.200000	 65.1077
6.284000	 65.1322
6.368000	 65.0344
6.452000	 65.0918
6.536000	 65.2897
6.620000	 65.0366
6.704000	 65.1075
6.788000	 65.1666
6.872000	 65.211
6.956000	 64.8518
7.040000	 65.0293
7.124000	 65.0674
7.208000	 65.0196
7.292000	 64.7988
7.376000	 65.0648
7.460000	 64.9769
7.544000	 65.0511
7.628000	 65.0296
7.712000	 64.8708
7.796000	 64.9502
7.880000	 64.8549
7.964000	 64.9691
8.048000	 64.8668
8.132000	 64.8594
8.216000	 65.0892
8.300000	 64.8295
8.384000	 64.9168
8.468000	 65.0981
8.552000	 64.8342
8.635999	 64.8466
8.719999	 64.7337
8.804000	 65.1874
8.888000	 64.8422
8.972000	 64.8406
9.056000	 64.8992
9.140000	 64.6475
9.224000	 64.9518
9.308000	 65.0053
9.391999	 64.8546
9.475999	 64.6278
9.560000	 64.7648
9.644000	 64.8219
9.728000	 64.7386
9.812000	 64.5874
9.896000	 64.7254
9.980000	 64.5408
10.064	64.6923
10.148	64.6533
10.232	64.4829
10.316	64.6129
10.4	64.6371
10.484	64.635
10.568	64.6885
10.652	64.4914
10.736	64.7744
10.82	64.7351
10.904	64.7757
10.988	64.9093
11.072	64.797
11.156	64.6765
11.24	64.3817
11.324	64.5987
11.408	64.9248
11.492	64.4148
11.576	64.1668
11.66	63.9913
11.744	64.1283
11.828	64.4854
11.912	64.4476
11.996	63.4526
12.08	63.2622
12.164	64.1016
12.248	64.2945
12.332	63.6211
12.416	63.5432
12.5	64.0559
12.584	64.1717
12.668	64.0812
12.752	64.5241
12.836	64.5697
12.92	64.196
13.004	64.1905
13.088	63.9121
13.172	63.6355
13.256	63.909
13.34	64.2538
13.424	64.1696
13.508	64.0291
13.592	63.988
13.676	63.708
13.76	63.7378
13.844	64.0332
13.928	63.9622
14.012	63.5449
14.096	63.3354
14.18	63.514
14.264	63.6486
14.348	63.5138
14.432	63.4749
14.516	63.693
14.6	63.6668
14.684	63.4061
14.768	63.2959
14.852	63.3248
14.936	63.4982
15.02	63.5917
15.104	63.3643
15.188	63.0962
15.272	63.1097
15.356	63.2455
15.44	63.1462
15.524	62.8999
15.608	62.934
15.692	63.2748
15.776	63.5101
15.86	63.4933
15.944	63.4007
16.028	63.3012
16.112	63.18
16.196	63.096
16.28	63.0335
16.364	62.9101
16.448	62.8173
16.532	62.8851
16.616	62.9884
16.7	62.9854
16.784	62.975
16.868	63.0167
16.952	63.0472
17.036	63.0053
17.12	62.8059
17.204	62.4417
17.288	62.1138
17.372	62.0002
17.456	62.0461
17.54	62.1279
17.624	62.2009
17.708	62.2603
17.792	62.3278
17.876	62.4153
17.96	62.4396
18.044	62.3032
18.128	62.1052
18.212	62.1089
18.296	62.4436
18.38	62.9398
18.464	63.2931
18.548	63.3187
18.632	63.0332
18.716	62.5691
18.8	62.0785
18.884	61.6859
18.968	61.4685
19.052	61.4264
19.136	61.4841
19.22	61.5407
19.304	61.5384
19.388	61.4796
19.472	61.3977
19.556	61.3213
19.64	61.2667
19.724	61.2628
19.808	61.3284
19.892	61.439
19.976	61.5407
20.06	61.6024
20.144	61.6305
20.228	61.6194
20.312	61.5319
20.396	61.3552
20.48	61.1653
20.564	61.069
20.648	61.0851
20.732	61.0814
20.816	60.8941
20.9	60.5065
20.984	60.1138
21.068	59.971
21.152	60.1791
21.236	60.6179
21.32	61.0797
21.404	61.4472
21.488	61.7141
21.572	61.8722
21.656	61.8181
21.74	61.4075
21.824	60.5975
21.908	59.5473
21.992	58.5457
22.076	57.8404
22.16	57.5113
22.244	57.4723
22.328	57.5926
22.412	57.7847
22.496	58.0413
22.58	58.3956
22.664	58.862
22.748	59.3932
22.832	59.8933
22.916	60.2608
23	60.4569
23.084	60.5127
23.168	60.4883
23.252	60.4081
23.336	60.2427
23.42	59.9617
23.504	59.5554
23.588	59.1135
23.672	58.8164
23.756	58.8448
23.84	59.256
23.924	59.9536
24.008	60.7368
24.092	61.3939
24.176	61.8201
24.26	61.9565
24.344	61.7821
24.428	61.3421
24.512	60.7649
24.596	60.2547
24.68	59.942
24.764	59.7388
24.848	59.3514
24.932	58.3201
25.016	56.2738
25.1	53.1689
25.184	49.3772
25.268	45.598
25.352	42.5977
25.436	41.0953
25.52	41.4847
25.604	43.7577
25.688	47.687
25.772	52.8983
25.856	58.9421
25.94	65.2957
26.024	71.3445
26.108	76.4593
26.192	80.1777
26.276	82.3464
26.36	83.225
26.444	83.3518
26.528	83.3611
26.612	83.7975
26.696	85.0366
26.78	87.2594
26.864	90.348
26.948	93.8653
27.028	96.9612

File: C-4040-8_t114_cm-1.asc
PE IR       SPECTRUM    SPECTRUM    ASCII       PEDS        1.60
  -1
C-4909~1.ASC
17/03/27
23:53:38.00
17/03/27
23:53:38.00
tln
$C-4040-8_t0114$<tbV0>[5.2,13.0,8.0,0.0,27,1,0]
370
64

2002,4.07
MIRTGS : RIGHTBACK : INTERNAL 2
MIR : ON : INTERNAL 2
OPTKBR

0.200000
8
8.000000
FILLER
RATIO
SPECTRUM
UNLOCKED 256

DOUBLE
64
COMBINED
1
0
0

1.000000
RATIO

1
0
TRUE
51149
0
LEFT NOT FITTED RIGHT NOT FITTED 0
NONE
NONE
15600
12
4.427000
51148
TRUE
1 0 8 72 0 0 0 0

15798

#HDR
-1
-1
#GR
CM-1
%T
2.38419e-05
0.0
5000
-1.000000
4631
8
96.9612
39.1434
#DATA
5000	64.6216
4984	64.8519
4968	65.4916
4952	65.4668
4936	65.3762
4920	65.2346
4904	64.7953
4888	65.1071
4872	64.5396
4856	65.1202
4840	65.1506
4824	64.6699
4808	65.0828
4792	65.3451
4776	64.6777
4760	64.8165
4744	64.794
4728	64.5259
4712	64.3935
4696	64.6269
4680	64.5405
4664	64.8576
4648	64.9899
4632	64.6719
4616	65.1386
4600	65.318
4584	65.3292
4568	65.7536
4552	65.4665
4536	66.0588
4520	65.781
4504	65.8021
4488	66.1853
4472	66.4286
4456	66.4411
4440	66.3825
4424	67.0072
4408	64.7109
4392	45.289
4376	67.9574
4360	66.8739
4344	66.4623
4328	66.1288
4312	65.9549
4296	65.6938
4280	65.8068
4264	65.6123
4248	65.4163
4232	64.9224
4216	65.5062
4200	65.3625
4184	64.8765
4168	64.864
4152	64.874
4136	64.7747
4120	65.0611
4104	64.3522
4088	64.8742
4072	64.9982
4056	64.7941
4040	64.8041
4024	64.7637
4008	64.8455
3992	65.1462
3976	65.055
3960	65.0803
3944	65.1354
3928	65.1556
3912	65.0452
3896	65.034
3880	65.3649
3864	65.4689
3848	65.2126
3832	65.4344
3816	65.2332
3800	65.315
3784	65.3718
3768	65.077
3752	65.1344
3736	65.3337
3720	65.025
3704	65.2806
3688	65.3019
3672	65.2543
3656	65.1262
3640	65.3534
3624	65.229
3608	65.0725
3592	65.1246
3576	65.2014
3560	65.0394
3544	65.3715
3528	65.2084
3512	65.0183
3496	65.2586
3480	65.2153
3464	65.3458
3448	65.0963
3432	65.0476
3416	65.1088
3400	65.1647
3384	65.1083
3368	65.1937
3352	65.2056
3336	65.036
3320	65.1169
3304	65.0938
3288	65.12
3272	64.9379
3256	65.4924
3240	65.0168
3224	65.2085
3208	65.1324
3192	65.0952
3176	65.1157
3160	65.1773
3144	65.1022
3128	65.4997
3112	65.5811
3096	65.1487
3080	65.4359
3064	65.141
3048	65.188
3032	65.3784
3016	65.2437
3000	65.2319
2984	65.041
2968	65.2915
2952	65.0946
2936	64.9498
2920	64.9358
2904	64.97
2888	65.1595
2872	64.98
2856	64.811
2840	65.1507
2824	65.2511
2808	65.2016
2792	65.0534
2776	65.1082
2760	65.2813
2744	65.1373
2728	65.1904
2712	65.1983
2696	65.3919
2680	65.2249
2664	65.1121
2648	65.2093
2632	65.1372
2616	65.1957
2600	65.228
2584	65.1323
2568	65.1587
2552	65.3507
2536	65.3527
2520	65.2555
2504	65.2327
2488	65.0516
2472	65.2479
2456	65.2951
2440	65.2544
2424	64.834
2408	65.5738
2392	65.1407
2376	65.1608
2360	65.2628
2344	65.3042
2328	65.3237
2312	65.265
2296	65.4171
2280	65.2383
2264	65.335
2248	65.2983
2232	65.2109
2216	65.3517
2200	65.371
2184	65.3502
2168	65.308
2152	65.234
2136	65.1055
2120	65.429
2104	65.4235
2088	65.3338
2072	65.3472
2056	65.0324
2040	65.3302
2024	65.3787
2008	65.3239
1992	65.1139
1976	65.3177
1960	65.2413
1944	65.2657
1928	65.2238
1912	65.4019
1896	65.2275
1880	65.2242
1864	65.2348
1848	65.3383
1832	65.3017
1816	65.1841
1800	65.222
1784	65.2028
1768	65.1811
1752	65.1622
1736	64.838
1720	65.0095
1704	65.1251
1688	65.1721
1672	65.2249
1656	65.1166
1640	65.1511
1624	65.2431
1608	64.997
1592	65.1318
1576	65.0826
1560	65.1426
1544	65.1452
1528	65.239
1512	65.0229
1496	65.1963
1480	65.1929
1464	65.023
1448	64.9662
1432	65.0014
1416	64.9295
1400	65.0052
1384	64.9543
1368	64.8595
1352	65.0844
1336	65.0214
1320	65.114
1304	64.9646
1288	64.8148
1272	64.8651
1256	64.9663
1240	64.8478
1224	64.8665
1208	64.8704
1192	64.938
1176	64.8554
1160	64.9364
1144	64.8
1128	64.8736
1112	64.8484
1096	64.6501
1080	65.0028
1064	64.8206
1048	64.8071
1032	64.8081
1016	64.478
1000	64.5369
984	 64.5901
968	 64.6141
952	 64.6554
936	 64.5331
920	 64.7094
904	 64.8229
888	 64.3271
872	 64.5731
856	 63.9845
840	 64.4982
824	 63.8085
808	 63.4495
792	 64.0817
776	 64.3138
760	 63.6405
744	 64.1212
728	 63.6775
712	 63.4105
696	 63.4776
680	 63.359
664	 63.5164
648	 63.1676
632	 63.5219
616	 63.0718
600	 62.9961
584	 62.7941
568	 62.1863
552	 62.1273
536	 62.9082
520	 61.5443
504	 61.3697
488	 61.1444
472	 60.3437
456	 59.27
440	 59.2608
424	 59.128
408	 60.7796
392	 41.34
376	 83.657
370	 96.9612

File: C-4040-8_t115.asc
PE IR       SPECTRUM    SPECTRUM    ASCII       PEDS        1.60
  -1
C-80D8~1.ASC
17/03/28
00:12:42.00
17/03/28
00:13:09.00
tln
$C-4040-8_t0115$<tbV0>[2.6,13.0,8.0,0.0,27,1,0]
27.028
64

2002,4.07
MIRTGS : RIGHTBACK : INTERNAL 2
MIR : ON : INTERNAL 2
OPTKBR

0.200000
8
8.000000
FILLER
RATIO
SPECTRUM
UNLOCKED 256

DOUBLE
64
COMBINED
1
0
0

0.002000
RATIO

1
0
TRUE
51149
0
LEFT NOT FITTED RIGHT NOT FITTED 0
NONE
NONE
15600
12
4.427000
51148
TRUE
1 0 8 72 0 0 0 0

15798

#HDR
-1
-1
#GR
µM
%T
2.38419e-05
0.0
2.000000
0.002000
12515
8
119.56
47.0807
#DATA
2.000000	 64.9253
2.084000	 64.7047
2.168000	 64.4921
2.252000	 64.5468
2.336000	 65.548
2.420000	 65.0945
2.504000	 64.9624
2.588000	 65.2269
2.672000	 65.1734
2.756000	 65.0101
2.840000	 65.3443
2.924000	 65.0556
3.008000	 64.9934
3.092000	 64.9689
3.176000	 65.1608
3.260000	 64.9938
3.344000	 65.3385
3.428000	 64.8482
3.512000	 64.9171
3.596000	 65.0864
3.680000	 65.0858
3.764000	 65.0911
3.848000	 65.0869
3.932000	 65.151
4.016000	 64.9941
4.100000	 65.1574
4.184000	 65.1475
4.268000	 65.1768
4.352000	 65.2664
4.436000	 65.1465
4.520000	 65.1593
4.604000	 65.2544
4.688000	 65.042
4.772000	 65.1537
4.856000	 65.5206
4.940000	 65.2707
5.024000	 65.0868
5.108000	 65.0915
5.192000	 65.2357
5.276000	 65.0714
5.359999	 65.0916
5.444000	 65.0776
5.528000	 64.9079
5.612000	 65.0811
5.696000	 64.9976
5.780000	 64.7439
5.864000	 65.0798
5.948000	 65.0141
6.032000	 64.883
6.116000	 65.0282
6.200000	 65.1299
6.284000	 65.0039
6.368000	 64.7474
6.452000	 64.8073
6.536000	 65.1062
6.620000	 65.0029
6.704000	 65.0042
6.788000	 65.005
6.872000	 64.7296
6.956000	 64.8252
7.040000	 64.8989
7.124000	 64.8987
7.208000	 64.9926
7.292000	 64.838
7.376000	 64.917
7.460000	 64.7267
7.544000	 64.8937
7.628000	 64.8399
7.712000	 64.7574
7.796000	 64.7025
7.880000	 64.802
7.964000	 64.7302
8.048000	 64.6682
8.132000	 64.815
8.216000	 64.7712
8.300000	 64.7214
8.384000	 64.5993
8.468000	 64.6855
8.552000	 64.6815
8.635999	 64.7848
8.719999	 64.457
8.804000	 64.714
8.888000	 64.4774
8.972000	 64.9449
9.056000	 64.7068
9.140000	 64.665
9.224000	 64.6509
9.308000	 64.5973
9.391999	 64.6106
9.475999	 64.3044
9.560000	 64.4905
9.644000	 64.55
9.728000	 64.257
9.812000	 64.6843
9.896000	 64.8243
9.980000	 64.3174
10.064	64.2859
10.148	64.5448
10.232	64.5134
10.316	64.4433
10.4	64.4795
10.484	64.6201
10.568	64.6053
10.652	64.467
10.736	64.5748
10.82	64.3039
10.904	64.3683
10.988	64.466
11.072	64.3515
11.156	64.0516
11.24	63.9616
11.324	63.7912
11.408	63.7301
11.492	64.1158
11.576	64.2561
11.66	64.3162
11.744	64.0512
11.828	63.6137
11.912	64.4114
11.996	64.3721
12.08	64.2962
12.164	64.1888
12.248	64.1464
12.332	63.8224
12.416	63.7688
12.5	63.5378
12.584	63.4011
12.668	63.6847
12.752	63.7965
12.836	63.6216
12.92	63.4824
13.004	63.3934
13.088	63.5027
13.172	63.5306
13.256	63.6556
13.34	63.8184
13.424	64.3042
13.508	64.2876
13.592	63.5237
13.676	63.0775
13.76	63.3411
13.844	63.706
13.928	63.6932
14.012	63.3431
14.096	63.2323
14.18	63.4192
14.264	63.6522
14.348	63.7077
14.432	63.6442
14.516	63.5299
14.6	63.1712
14.684	62.7998
14.768	62.6908
14.852	62.813
14.936	63.1136
15.02	63.2709
15.104	63.033
15.188	62.8445
15.272	63.0654
15.356	63.2692
15.44	63.0022
15.524	62.4634
15.608	62.202
15.692	62.3707
15.776	62.5447
15.86	62.5264
15.944	62.5271
16.028	62.5141
16.112	62.354
16.196	62.2292
16.28	62.31
16.364	62.5471
16.448	62.8631
16.532	63.1376
16.616	63.1949
16.7	63.0135
16.784	62.7302
16.868	62.4407
16.952	62.1782
17.036	61.975
17.12	61.8518
17.204	61.8293
17.288	61.9174
17.372	62.031
17.456	62.0432
17.54	61.9581
17.624	61.8904
17.708	61.8714
17.792	61.8331
17.876	61.7521
17.96	61.6771
18.044	61.62
18.128	61.5523
18.212	61.5188
18.296	61.6209
18.38	61.8586
18.464	62.0982
18.548	62.2106
18.632	62.1582
18.716	61.9585
18.8	61.6496
18.884	61.3047
18.968	61.0137
19.052	60.8207
19.136	60.7118
19.22	60.678
19.304	60.7293
19.388	60.8383
19.472	60.9106
19.556	60.8514
19.64	60.661
19.724	60.4339
19.808	60.2562
19.892	60.1362
19.976	60.0517
20.06	60.0372
20.144	60.1819
20.228	60.5215
20.312	60.9456
20.396	61.2589
20.48	61.3391
20.564	61.2212
20.648	61.0279
20.732	60.8358
20.816	60.642
20.9	60.4301
20.984	60.2426
21.068	60.1508
21.152	60.1668
21.236	60.2236
21.32	60.2666
21.404	60.3365
21.488	60.5302
21.572	60.8738
21.656	61.2524
21.74	61.464
21.824	61.347
21.908	60.8902
21.992	60.23
22.076	59.5606
22.16	59.0444
22.244	58.7544
22.328	58.6792
22.412	58.7479
22.496	58.8612
22.58	58.942
22.664	58.9694
22.748	58.9735
22.832	58.9868
22.916	59.0373
23	59.1253
23.084	59.2445
23.168	59.3776
23.252	59.4931
23.336	59.5528
23.42	59.557
23.504	59.5024
23.588	59.4071
23.672	59.3086
23.756	59.2201
23.84	59.1024
23.924	58.9595
24.008	58.878
24.092	59.0382
24.176	59.7141
24.26	61.0281
24.344	62.8729
24.428	64.9715
24.512	66.9634
24.596	68.6527
24.68	69.9263
24.764	70.6202
24.848	70.4663
24.932	69.136
25.016	66.4347
25.1	62.3996
25.184	57.5012
25.268	52.6153
25.352	48.7664
25.436	47.0905
25.52	48.4387
25.604	53.1098
25.688	60.7495
25.772	70.3757
25.856	80.704
25.94	90.343
26.024	98.1408
26.108	103.545
26.192	106.873
26.276	109.022
26.36	111.21
26.444	114.043
26.528	117.123
26.612	119.282
26.696	119.001
26.78	115.177
26.864	107.633
26.948	97.1941
27.028	85.9904

File: C-4040-8_t115_cm-1.asc
PE IR       SPECTRUM    SPECTRUM    ASCII       PEDS        1.60
  -1
C-4A09~1.ASC
17/03/28
00:12:42.00
17/03/28
00:12:42.00
tln
$C-4040-8_t0115$<tbV0>[2.6,13.0,8.0,0.0,27,1,0]
370
64

2002,4.07
MIRTGS : RIGHTBACK : INTERNAL 2
MIR : ON : INTERNAL 2
OPTKBR

0.200000
8
8.000000
FILLER
RATIO
SPECTRUM
UNLOCKED 256

DOUBLE
64
COMBINED
1
0
0

1.000000
RATIO

1
0
TRUE
51149
0
LEFT NOT FITTED RIGHT NOT FITTED 0
NONE
NONE
15600
12
4.427000
51148
TRUE
1 0 8 72 0 0 0 0

15798

#HDR
-1
-1
#GR
CM-1
%T
2.38419e-05
0.0
5000
-1.000000
4631
8
119.471
46.8151
#DATA
5000	64.9253
4984	65.1173
4968	64.7068
4952	64.9164
4936	64.6054
4920	64.5124
4904	64.8546
4888	64.3564
4872	64.2499
4856	64.7896
4840	64.513
4824	64.5625
4808	64.7823
4792	64.6038
4776	64.5796
4760	64.3547
4744	65.4803
4728	64.6954
4712	64.6273
4696	64.6704
4680	64.7507
4664	65.054
4648	64.6039
4632	65.0614
4616	64.1809
4600	64.9712
4584	64.9748
4568	65.4379
4552	65.6744
4536	64.4843
4520	65.5294
4504	65.2214
4488	65.5918
4472	65.5471
4456	65.4788
4440	64.5741
4424	64.7718
4408	67.8982
4392	52.9563
4376	66.4688
4360	65.9605
4344	65.0716
4328	65.1742
4312	65.2796
4296	65.2281
4280	65.5175
4264	64.8676
4248	65.0087
4232	65.2646
4216	64.9375
4200	64.9413
4184	65.1822
4168	64.8511
4152	65.0207
4136	65.0885
4120	64.9806
4104	64.5677
4088	64.9983
4072	65.2507
4056	65.0559
4040	65.0111
4024	64.895
4008	64.8645
3992	64.9475
3976	65.1434
3960	65.0211
3944	65.0254
3928	64.988
3912	64.7738
3896	64.7205
3880	65.1517
3864	65.2269
3848	65.0441
3832	64.7876
3816	65.0131
3800	65.1795
3784	65.2413
3768	64.9703
3752	65.0656
3736	65.3279
3720	64.8848
3704	65.1668
3688	65.008
3672	65.1431
3656	64.9875
3640	65.0083
3624	64.9906
3608	64.9741
3592	65.1272
3576	64.9056
3560	65.2204
3544	65.0559
3528	65.2305
3512	64.9924
3496	65.4208
3480	65.2032
3464	65.2576
3448	65.0156
3432	65.0059
3416	65.0827
3400	65.1311
3384	65.1221
3368	64.9686
3352	64.9506
3336	65.04
3320	64.902
3304	64.8586
3288	65.0614
3272	64.9078
3256	65.1645
3240	64.8401
3224	64.9139
3208	64.9402
3192	64.7678
3176	65.1486
3160	65.0854
3144	65.0722
3128	65.1973
3112	65.2384
3096	64.9532
3080	65.1473
3064	65.0592
3048	65.0126
3032	65.2348
3016	65.1389
3000	65.0633
2984	65.1422
2968	64.8855
2952	64.9392
2936	64.9637
2920	64.8167
2904	64.842
2888	64.9628
2872	65.0009
2856	64.8811
2840	64.9895
2824	65.0961
2808	65.08
2792	65.0728
2776	64.9834
2760	65.0698
2744	65.0233
2728	65.0234
2712	65.0942
2696	65.1519
2680	65.1396
2664	65.0897
2648	65.0671
2632	64.9749
2616	65.2355
2600	65.061
2584	65.0628
2568	65.1562
2552	65.2389
2536	65.2106
2520	65.3158
2504	65.43
2488	65.0312
2472	65.1549
2456	65.2111
2440	65.1795
2424	64.8559
2408	65.2779
2392	65.1415
2376	65.0989
2360	65.1554
2344	65.2013
2328	65.1955
2312	65.1778
2296	65.2259
2280	65.0764
2264	65.2802
2248	65.2436
2232	65.1545
2216	65.1669
2200	65.2468
2184	65.0612
2168	65.339
2152	65.3355
2136	65.0257
2120	65.0898
2104	65.2126
2088	65.1972
2072	65.2542
2056	65.3124
2040	65.1685
2024	65.2686
2008	65.1811
1992	65.1033
1976	65.1959
1960	65.1071
1944	65.1242
1928	65.2213
1912	65.1828
1896	65.0713
1880	65.1365
1864	65.0595
1848	65.234
1832	65.0828
1816	65.0747
1800	65.1805
1784	65.022
1768	65.1468
1752	65.0054
1736	64.7457
1720	65.0741
1704	65.0713
1688	65.0832
1672	65.0611
1656	64.9509
1640	65.0748
1624	65.0635
1608	65.1012
1592	65.0142
1576	64.749
1560	64.795
1544	64.7621
1528	65.0862
1512	64.9698
1496	65.0062
1480	65.0771
1464	64.9186
1448	64.659
1432	65.0012
1416	64.8598
1400	64.9191
1384	64.8976
1368	64.801
1352	64.8946
1336	64.7802
1320	64.9137
1304	64.6608
1288	64.656
1272	64.9249
1256	64.7198
1240	64.6935
1224	64.752
1208	64.7845
1192	64.6113
1176	64.6264
1160	64.8525
1144	64.5159
1128	64.5516
1112	64.9826
1096	64.6755
1080	64.5749
1064	64.5753
1048	64.4322
1032	64.3772
1016	64.7889
1000	64.1739
984	 64.5429
968	 64.4545
952	 64.6156
936	 64.4598
920	 64.2896
904	 64.3984
888	 63.8919
872	 63.9929
856	 64.3453
840	 64.3574
824	 64.2102
808	 63.7929
792	 63.4984
776	 63.5633
760	 63.5123
744	 64.3733
728	 63.2283
712	 63.2512
696	 63.6944
680	 62.745
664	 63.1936
648	 63.0466
632	 62.5459
616	 62.2399
600	 63.1062
584	 61.8488
568	 61.8996
552	 61.5621
536	 62.1135
520	 60.6797
504	 60.2035
488	 61.3323
472	 60.19
456	 60.7307
440	 58.973
424	 59.4108
408	 66.9149
392	 48.109
376	 119.027
370	 85.9904

File: C-4040-8_t116.asc
PE IR       SPECTRUM    SPECTRUM    ASCII       PEDS        1.60
  -1
C-84D8~1.ASC
17/03/28
00:17:19.00
17/03/28
00:17:45.00
tln
$C-4040-8_t0116$<tbV0>[0.0,13.0,8.0,0.0,27,1,0]
27.028
64

2002,4.07
MIRTGS : RIGHTBACK : INTERNAL 2
MIR : ON : INTERNAL 2
OPTKBR

0.200000
8
8.000000
FILLER
RATIO
SPECTRUM
UNLOCKED 256

DOUBLE
64
COMBINED
1
0
0

0.002000
RATIO

1
0
TRUE
51149
0
LEFT NOT FITTED RIGHT NOT FITTED 0
NONE
NONE
15600
12
4.427000
51148
TRUE
1 0 8 72 0 0 0 0

15798

#HDR
-1
-1
#GR
µM
%T
2.38419e-05
0.0
2.000000
0.002000
12515
8
88.4333
32.643
#DATA
2.000000	 64.556
2.084000	 64.7554
2.168000	 64.6023
2.252000	 64.9021
2.336000	 65.2174
2.420000	 65.0327
2.504000	 64.9894
2.588000	 64.9494
2.672000	 65.1071
2.756000	 65.2035
2.840000	 65.1876
2.924000	 65.0099
3.008000	 65.0112
3.092000	 65.082
3.176000	 65.1574
3.260000	 65.1345
3.344000	 65.2239
3.428000	 64.7309
3.512000	 65.1665
3.596000	 65.046
3.680000	 65.1162
3.764000	 65.1897
3.848000	 65.1142
3.932000	 65.2554
4.016000	 64.9831
4.100000	 65.1803
4.184000	 65.3414
4.268000	 65.2581
4.352000	 65.2186
4.436000	 65.0978
4.520000	 65.3158
4.604000	 65.3145
4.688000	 65.3205
4.772000	 65.2615
4.856000	 65.2364
4.940000	 65.2382
5.024000	 65.0943
5.108000	 65.2944
5.192000	 65.0549
5.276000	 65.1844
5.359999	 65.1223
5.444000	 65.0666
5.528000	 65.0157
5.612000	 65.1006
5.696000	 65.1995
5.780000	 64.8617
5.864000	 65.1342
5.948000	 65.0519
6.032000	 65.0381
6.116000	 65.0278
6.200000	 65.0746
6.284000	 65.0243
6.368000	 64.9278
6.452000	 64.9273
6.536000	 65.1564
6.620000	 65.0664
6.704000	 65.2612
6.788000	 65.0025
6.872000	 65.0785
6.956000	 65.0099
7.040000	 64.874
7.124000	 64.8847
7.208000	 64.9073
7.292000	 64.9483
7.376000	 64.8945
7.460000	 64.9004
7.544000	 64.808
7.628000	 65.0288
7.712000	 64.7743
7.796000	 64.7298
7.880000	 64.8858
7.964000	 64.6856
8.048000	 64.7716
8.132000	 64.8144
8.216000	 64.9239
8.300000	 64.8258
8.384000	 64.7928
8.468000	 64.9921
8.552000	 64.6535
8.635999	 64.5862
8.719999	 64.8212
8.804000	 64.6993
8.888000	 64.7982
8.972000	 64.8881
9.056000	 64.9739
9.140000	 64.752
9.224000	 65.0147
9.308000	 64.8658
9.391999	 64.83
9.475999	 64.5632
9.560000	 64.7668
9.644000	 64.6528
9.728000	 64.4725
9.812000	 64.7516
9.896000	 64.6864
9.980000	 64.5371
10.064	64.6586
10.148	64.6439
10.232	64.5819
10.316	64.4894
10.4	64.5479
10.484	64.4337
10.568	64.4599
10.652	64.4106
10.736	64.7095
10.82	64.4765
10.904	64.3137
10.988	64.3403
11.072	64.6863
11.156	64.4487
11.24	64.0058
11.324	63.8697
11.408	64.204
11.492	64.0347
11.576	63.8904
11.66	63.5061
11.744	63.9859
11.828	64.0866
11.912	64.3011
11.996	64.3248
12.08	63.9017
12.164	63.3744
12.248	63.6853
12.332	63.7882
12.416	63.7822
12.5	63.9866
12.584	64.2473
12.668	64.385
12.752	64.1561
12.836	64.2735
12.92	64.235
13.004	63.8816
13.088	63.7064
13.172	63.5739
13.256	63.2667
13.34	63.3259
13.424	63.8133
13.508	64.0864
13.592	63.7933
13.676	63.249
13.76	63.1888
13.844	63.3036
13.928	63.406
14.012	63.3966
14.096	63.1703
14.18	63.1204
14.264	63.2666
14.348	63.3244
14.432	63.2456
14.516	63.2245
14.6	63.0356
14.684	62.6677
14.768	62.5432
14.852	62.7113
14.936	62.9697
15.02	63.0165
15.104	62.7899
15.188	62.619
15.272	62.5731
15.356	62.4413
15.44	62.2273
15.524	62.086
15.608	62.1484
15.692	62.4065
15.776	62.6209
15.86	62.6348
15.944	62.5885
16.028	62.5966
16.112	62.5285
16.196	62.2901
16.28	62.0804
16.364	62.1583
16.448	62.4391
16.532	62.5317
16.616	62.2956
16.7	62.072
16.784	62.1374
16.868	62.2992
16.952	62.2583
17.036	62.0139
17.12	61.7429
17.204	61.5809
17.288	61.6067
17.372	61.8208
17.456	62.0643
17.54	62.1244
17.624	61.9554
17.708	61.6991
17.792	61.4855
17.876	61.3393
17.96	61.2874
18.044	61.3814
18.128	61.5664
18.212	61.7311
18.296	61.8773
18.38	62.0645
18.464	62.2202
18.548	62.1788
18.632	61.9093
18.716	61.5479
18.8	61.2282
18.884	60.9886
18.968	60.8407
19.052	60.789
19.136	60.7875
19.22	60.7556
19.304	60.6621
19.388	60.5197
19.472	60.301
19.556	59.9517
19.64	59.5199
19.724	59.1952
19.808	59.152
19.892	59.3649
19.976	59.6323
20.06	59.7751
20.144	59.7794
20.228	59.7392
20.312	59.7157
20.396	59.6794
20.48	59.5589
20.564	59.3251
20.648	59.0329
20.732	58.7925
20.816	58.7129
20.9	58.8403
20.984	59.1399
21.068	59.515
21.152	59.8648
21.236	60.1338
21.32	60.3237
21.404	60.4718
21.488	60.5991
21.572	60.6945
21.656	60.7212
21.74	60.639
21.824	60.4234
21.908	60.0738
21.992	59.6154
22.076	59.0941
22.16	58.5625
22.244	58.0658
22.328	57.633
22.412	57.2997
22.496	57.1181
22.58	57.1744
22.664	57.5567
22.748	58.2595
22.832	59.1347
22.916	59.9554
23	60.4685
23.084	60.5629
23.168	60.2893
23.252	59.7906
23.336	59.2346
23.42	58.728
23.504	58.273
23.588	57.8613
23.672	57.5095
23.756	57.1748
23.84	56.7672
23.924	56.1801
24.008	55.364
24.092	54.4578
24.176	53.9108
24.26	54.3088
24.344	56.177
24.428	59.6841
24.512	64.555
24.596	70.0936
24.68	75.3794
24.764	79.543
24.848	82.0568
24.932	82.4955
25.016	80.5162
25.1	75.8963
25.184	68.6908
25.268	59.5106
25.352	49.5878
25.436	40.6752
25.52	34.5826
25.604	32.6692
25.688	35.7207
25.772	43.5769
25.856	55.0667
25.94	68.0192
26.024	79.5359
26.108	86.8063
26.192	88.209
26.276	83.7706
26.36	75.1551
26.444	65.1002
26.528	56.4205
26.612	51.029
26.696	49.6825
26.78	51.9908
26.864	56.8314
26.948	62.859
27.028	68.5313