Folder: Masteroppgave/Bakgrunnsmateriale/MATLAB/FTIR/ftir_data/subBb/Mapping_36 (part 12)

File: C-4040-8_t25.asc
PE IR       SPECTRUM    SPECTRUM    ASCII       PEDS        1.60
  -1
C-BD2E~1.ASC
17/05/02
13:01:56.00
17/05/02
13:02:23.00
tln
$C-4040-8_t0025$<tbV0>[12.5,7.0,8.0,0.0,22,1,0]
27.028
64

2002,4.07
MIRTGS : RIGHTBACK : INTERNAL 2
MIR : ON : INTERNAL 2
OPTKBR

0.200000
8
8.000000
FILLER
RATIO
SPECTRUM
UNLOCKED 256

DOUBLE
64
COMBINED
1
0
0

0.002000
RATIO

1
0
TRUE
51149
0
LEFT NOT FITTED RIGHT NOT FITTED 0
NONE
NONE
15600
12
4.427000
51148
TRUE
1 0 8 72 0 0 0 0

15798

#HDR
-1
-1
#GR
µM
%T
2.38419e-05
0.0
1.282000
0.002000
12874
8
79.3528
22.6321
#DATA
1.282000	 78.2437
1.368000	 62.8089
1.454000	 64.9637
1.540000	 63.5462
1.626000	 63.6972
1.712000	 64.8868
1.798000	 64.7855
1.884000	 64.5094
1.970000	 64.6352
2.056000	 64.472
2.142000	 65.0731
2.228000	 64.5588
2.314000	 64.9804
2.400000	 64.5034
2.486000	 64.9027
2.572000	 65.4744
2.658000	 64.9925
2.744000	 65.1583
2.830000	 64.9477
2.916000	 64.9949
3.002000	 64.9855
3.088000	 64.9784
3.174000	 65.1378
3.260000	 64.9162
3.346000	 65.0159
3.432000	 64.7177
3.518000	 65.1104
3.604000	 65.1986
3.690000	 65.1177
3.776000	 65.0459
3.862000	 65.122
3.948000	 65.1827
4.034000	 65.0392
4.120000	 65.2733
4.206000	 65.1484
4.292000	 65.1602
4.378000	 65.1375
4.464000	 65.1254
4.550000	 65.2184
4.636000	 65.1507
4.722000	 65.1878
4.808000	 65.2448
4.894000	 65.2998
4.980000	 65.1881
5.066000	 65.1419
5.152000	 65.1972
5.238000	 65.2213
5.324000	 65.2848
5.410000	 65.2305
5.496000	 65.2075
5.582000	 65.2046
5.668000	 65.094
5.754000	 64.9216
5.840000	 65.1428
5.926000	 65.0807
6.012000	 65.1111
6.098000	 65.0175
6.184000	 65.0547
6.270000	 65.062
6.356000	 64.8752
6.442000	 64.9286
6.528000	 64.9731
6.614000	 65.0496
6.700000	 65.0672
6.786000	 65.0261
6.872000	 64.8906
6.958000	 65.0323
7.044000	 65.1827
7.130000	 64.984
7.216000	 64.9733
7.302000	 65.0997
7.388000	 64.9415
7.474000	 64.9752
7.560000	 64.9935
7.646000	 64.8819
7.732000	 64.912
7.818000	 64.8798
7.904000	 64.9926
7.990000	 64.8893
8.076000	 64.9101
8.161999	 64.9069
8.248000	 64.8601
8.334000	 64.8681
8.420000	 64.896
8.506000	 64.8141
8.592000	 64.6892
8.678000	 64.7184
8.763999	 64.6055
8.850000	 64.8008
8.936000	 64.7216
9.022000	 64.8874
9.108000	 64.9134
9.193999	 64.78
9.280000	 64.666
9.366000	 64.5921
9.452000	 64.6138
9.538000	 64.661
9.624000	 64.6875
9.710000	 64.6725
9.795999	 64.5807
9.882000	 64.8534
9.968000	 64.6588
10.054	64.6438
10.14	64.6675
10.226	64.6459
10.312	64.7909
10.398	64.6904
10.484	64.6487
10.57	64.7643
10.656	64.4868
10.742	64.6711
10.828	64.9193
10.914	64.5307
11	64.2845
11.086	64.243
11.172	63.6433
11.258	63.8754
11.344	64.0453
11.43	64.1204
11.516	63.8341
11.602	64.0896
11.688	64.3749
11.774	64.5563
11.86	64.4747
11.946	64.4701
12.032	64.4989
12.118	64.7691
12.204	64.4553
12.29	64.1439
12.376	63.982
12.462	64.0147
12.548	64.0686
12.634	64.2352
12.72	64.1715
12.806	64.0062
12.892	63.8149
12.978	63.6373
13.064	63.5507
13.15	63.6473
13.236	63.7905
13.322	63.7874
13.408	63.4897
13.494	63.2049
13.58	63.4443
13.666	63.6762
13.752	63.5478
13.838	63.6408
13.924	63.8191
14.01	63.7316
14.096	63.5042
14.182	63.1719
14.268	62.8407
14.354	62.8585
14.44	63.1328
14.526	63.2487
14.612	63.2327
14.698	63.2087
14.784	63.0753
14.87	62.9644
14.956	62.9353
15.042	62.8957
15.128	62.9532
15.214	63.036
15.3	62.9327
15.386	62.7564
15.472	62.6636
15.558	62.7041
15.644	62.9045
15.73	63.0607
15.816	62.9568
15.902	62.7755
15.988	62.7805
16.074	62.8596
16.16	62.8143
16.246	62.7391
16.332	62.7889
16.418	62.9242
16.504	62.9605
16.59	62.7531
16.676	62.4071
16.762	62.1564
16.848	62.0948
16.934	62.155
17.02	62.2449
17.106	62.3122
17.192	62.3186
17.278	62.2703
17.364	62.2038
17.45	62.1398
17.536	62.1258
17.622	62.175
17.708	62.1824
17.794	62.0437
17.88	61.7874
17.966	61.5313
18.052	61.3774
18.138	61.3774
18.224	61.4917
18.31	61.5971
18.396	61.6049
18.482	61.5286
18.568	61.4198
18.654	61.2998
18.74	61.1732
18.826	61.0739
18.912	61.0564
18.998	61.1165
19.084	61.1665
19.17	61.1251
19.256	61.0077
19.342	60.897
19.428	60.8477
19.514	60.8432
19.6	60.8397
19.686	60.831
19.772	60.8508
19.858	60.9082
19.944	60.9544
20.03	60.936
20.116	60.8652
20.202	60.8066
20.288	60.8062
20.374	60.8501
20.46	60.8839
20.546	60.8582
20.632	60.7533
20.718	60.5674
20.804	60.3016
20.89	59.9749
20.976	59.6464
21.062	59.4074
21.148	59.3261
21.234	59.3957
21.32	59.5424
21.406	59.6816
21.492	59.7871
21.578	59.8812
21.664	59.9718
21.75	60.0091
21.836	59.9232
21.922	59.7035
22.008	59.4361
22.094	59.2591
22.18	59.2765
22.266	59.4967
22.352	59.8296
22.438	60.1347
22.524	60.2827
22.61	60.2016
22.696	59.8891
22.782	59.4061
22.868	58.848
22.954	58.3127
23.04	57.872
23.126	57.554
23.212	57.3766
23.298	57.3539
23.384	57.5024
23.47	57.8306
23.556	58.3164
23.642	58.8784
23.728	59.3806
23.814	59.6637
23.9	59.5955
23.986	59.1115
24.072	58.2485
24.158	57.1384
24.244	55.9578
24.33	54.8555
24.416	53.8714
24.502	52.9447
24.588	51.9349
24.674	50.743
24.76	49.4225
24.846	48.1809
24.932	47.3596
25.018	47.2676
25.104	48.0079
25.19	49.3627
25.276	50.8619
25.362	51.9549
25.448	52.19
25.534	51.4583
25.62	50.0129
25.706	48.2824
25.792	46.6646
25.878	45.3606
25.964	44.282
26.05	43.135
26.136	41.5943
26.222	39.4329
26.308	36.6226
26.394	33.3623
26.48	30.0382
26.566	27.0879
26.652	24.8253
26.738	23.3772
26.824	22.7188
26.91	22.6886
26.996	23.3189
27.028	23.586

File: C-4040-8_t25_cm-1.asc
PE IR       SPECTRUM    SPECTRUM    ASCII       PEDS        1.60
  -1
C-9AEE~1.ASC
17/05/02
13:01:56.00
17/05/02
13:01:56.00
tln
$C-4040-8_t0025$<tbV0>[12.5,7.0,8.0,0.0,22,1,0]
370
64

2002,4.07
MIRTGS : RIGHTBACK : INTERNAL 2
MIR : ON : INTERNAL 2
OPTKBR

0.200000
8
8.000000
FILLER
RATIO
SPECTRUM
UNLOCKED 256

DOUBLE
64
COMBINED
1
0
0

1.000000
RATIO

1
0
TRUE
51149
0
LEFT NOT FITTED RIGHT NOT FITTED 0
NONE
NONE
15600
12
4.427000
51148
TRUE
1 0 8 72 0 0 0 0

15798

#HDR
-1
-1
#GR
CM-1
%T
2.38419e-05
0.0
7800
-1.000000
7431
8
79.5649
22.6364
#DATA
7800	78.2437
7775	70.9797
7750	69.5266
7725	72.0533
7700	72.1604
7675	70.6581
7650	69.1891
7625	66.4619
7600	68.9956
7575	70.0361
7550	65.9016
7525	66.3076
7500	65.9356
7475	67.9993
7450	64.654
7425	65.8913
7400	63.4776
7375	64.525
7350	65.0559
7325	64.0898
7300	60.1674
7275	66.9773
7250	64.1604
7225	68.66
7200	67.6854
7175	67.2395
7150	66.4276
7125	64.0641
7100	66.9927
7075	63.9794
7050	63.0062
7025	64.5571
7000	64.269
6975	65.5896
6950	62.1522
6925	65.8995
6900	64.3337
6875	64.281
6850	65.7126
6825	64.7245
6800	63.5894
6775	64.5835
6750	64.6414
6725	62.15
6700	65.0811
6675	63.9913
6650	64.6742
6625	64.3087
6600	63.0736
6575	65.1453
6550	63.1611
6525	63.0462
6500	64.176
6475	63.6745
6450	64.782
6425	64.6152
6400	65.1609
6375	63.398
6350	64.8017
6325	65.0414
6300	65.1005
6275	65.7822
6250	64.9497
6225	65.3805
6200	65.0667
6175	64.0049
6150	63.7029
6125	64.8548
6100	65.1166
6075	63.6828
6050	64.726
6025	64.6119
6000	65.5881
5975	65.2085
5950	64.1316
5925	64.7553
5900	64.5689
5875	64.2364
5850	64.4306
5825	65.2337
5800	64.8514
5775	64.9416
5750	65.33
5725	65.1477
5700	65.0817
5675	65.4748
5650	65.1513
5625	65.2069
5600	65.266
5575	65.1734
5550	64.4353
5525	64.5578
5500	64.8413
5475	64.464
5450	65.4309
5425	65.0452
5400	65.2827
5375	65.673
5350	65.0019
5325	63.9311
5300	63.8479
5275	63.3373
5250	65.4551
5225	64.0853
5200	65.0006
5175	64.8491
5150	64.5412
5125	64.4585
5100	65.1961
5075	64.6489
5050	64.6788
5025	64.7138
5000	64.7573
4975	64.9888
4950	64.4727
4925	64.6413
4900	64.466
4875	65.0682
4850	64.5317
4825	64.9293
4800	65.0069
4775	65.177
4750	64.7903
4725	65.1626
4700	64.9944
4675	64.9639
4650	65.0038
4625	64.7394
4600	64.9158
4575	65.1841
4550	64.6534
4525	65.1961
4500	64.2794
4475	64.8661
4450	64.7785
4425	64.6655
4400	64.4759
4375	65.838
4350	65.1318
4325	64.5835
4300	65.0824
4275	64.7258
4250	64.6544
4225	64.6474
4200	64.9193
4175	64.8119
4150	65.0209
4125	64.9171
4100	65.1266
4075	64.8946
4050	65.1048
4025	64.9733
4000	65.1616
3975	64.9081
3950	65.0562
3925	65.1216
3900	65.0768
3875	65.1196
3850	65.082
3825	65.1943
3800	65.1111
3775	64.9498
3750	65.1925
3725	65.1573
3700	65.1646
3675	65.0759
3650	65.1764
3625	65.0374
3600	65.0599
3575	65.1279
3550	65.184
3525	64.9809
3500	65.2685
3475	65.1925
3450	65.0189
3425	65.0198
3400	65.2063
3375	64.9603
3350	65.1881
3325	64.8863
3300	65.0366
3275	64.9427
3250	65.0926
3225	64.9988
3200	65.0178
3175	65.2081
3150	65.1379
3125	65.0569
3100	65.0743
3075	65.0036
3050	65.009
3025	65.063
3000	65.1147
2975	64.9711
2950	64.8916
2925	64.7375
2900	64.903
2875	64.9658
2850	65.0094
2825	65.0941
2800	65.0406
2775	65.2006
2750	65.0423
2725	65.2129
2700	65.322
2675	65.2192
2650	65.0667
2625	65.1324
2600	65.1884
2575	65.1971
2550	65.1571
2525	65.2042
2500	65.1574
2475	65.1527
2450	65.0803
2425	65.2713
2400	65.0921
2375	65.1487
2350	65.1693
2325	65.1328
2300	65.2956
2275	65.0665
2250	65.2634
2225	65.0637
2200	65.2319
2175	65.1685
2150	65.2498
2125	65.1504
2100	65.1064
2075	65.3003
2050	65.1971
2025	65.1796
2000	65.1819
1975	65.1514
1950	65.202
1925	65.2356
1900	65.219
1875	65.3065
1850	65.2341
1825	65.1869
1800	65.2666
1775	65.0683
1750	65.0435
1725	64.9276
1700	65.1242
1675	64.96
1650	65.0197
1625	65.1107
1600	65.085
1575	64.8845
1550	64.9005
1525	64.8845
1500	65.0143
1475	65.0235
1450	64.9204
1425	65.1143
1400	64.9413
1375	64.9731
1350	64.9235
1325	64.9824
1300	64.8784
1275	64.8866
1250	64.8613
1225	64.9052
1200	64.8679
1175	64.8028
1150	64.7263
1125	64.7943
1100	64.916
1075	64.7277
1050	64.6815
1025	64.5686
1000	64.6301
975	 64.7676
950	 64.8361
925	 64.8879
900	 63.9509
875	 64.1296
850	 64.5728
825	 64.7688
800	 64.0232
775	 63.7919
750	 63.7648
725	 63.5495
700	 62.8086
675	 63.0224
650	 62.7587
625	 62.7934
600	 62.4436
575	 62.1818
550	 61.4282
525	 61.1535
500	 60.9507
475	 59.4263
450	 59.3628
425	 58.1528
400	 47.2162
375	 24.52
370	 23.586

File: C-4040-8_t26.asc
PE IR       SPECTRUM    SPECTRUM    ASCII       PEDS        1.60
  -1
C-BD22~1.ASC
17/05/02
13:06:38.00
17/05/02
13:07:04.00
tln
$C-4040-8_t0026$<tbV0>[7.5,7.0,8.0,0.0,22,1,0]
27.028
64

2002,4.07
MIRTGS : RIGHTBACK : INTERNAL 2
MIR : ON : INTERNAL 2
OPTKBR

0.200000
8
8.000000
FILLER
RATIO
SPECTRUM
UNLOCKED 256

DOUBLE
64
COMBINED
1
0
0

0.002000
RATIO

1
0
TRUE
51149
0
LEFT NOT FITTED RIGHT NOT FITTED 0
NONE
NONE
15600
12
4.427000
51148
TRUE
1 0 8 72 0 0 0 0

15798

#HDR
-1
-1
#GR
µM
%T
2.38419e-05
0.0
1.282000
0.002000
12874
8
78.617
36.0933
#DATA
1.282000	 71.9859
1.368000	 67.5192
1.454000	 66.1784
1.540000	 65.0525
1.626000	 64.255
1.712000	 65.0235
1.798000	 65.0863
1.884000	 61.4813
1.970000	 64.8858
2.056000	 64.8275
2.142000	 65.3334
2.228000	 64.4355
2.314000	 64.7185
2.400000	 64.9616
2.486000	 64.9866
2.572000	 65.0164
2.658000	 65.0899
2.744000	 65.3014
2.830000	 65.1922
2.916000	 65.0935
3.002000	 65.1061
3.088000	 65.1468
3.174000	 65.1468
3.260000	 65.0834
3.346000	 65.3231
3.432000	 64.9023
3.518000	 65.0735
3.604000	 65.2802
3.690000	 65.3861
3.776000	 65.2115
3.862000	 65.2265
3.948000	 65.2658
4.034000	 65.2363
4.120000	 65.2094
4.206000	 65.2688
4.292000	 65.1449
4.378000	 65.3939
4.464000	 65.2843
4.550000	 65.3744
4.636000	 65.2188
4.722000	 65.2346
4.808000	 65.2402
4.894000	 65.3208
4.980000	 65.3984
5.066000	 65.328
5.152000	 65.353
5.238000	 65.3916
5.324000	 65.3428
5.410000	 65.3575
5.496000	 65.334
5.582000	 65.3647
5.668000	 65.2671
5.754000	 65.0928
5.840000	 65.2185
5.926000	 65.1196
6.012000	 65.265
6.098000	 65.2483
6.184000	 65.1315
6.270000	 65.1912
6.356000	 65.1787
6.442000	 65.1927
6.528000	 65.1696
6.614000	 65.1952
6.700000	 65.373
6.786000	 65.0731
6.872000	 65.1972
6.958000	 65.2117
7.044000	 65.0529
7.130000	 65.063
7.216000	 65.0685
7.302000	 65.1175
7.388000	 65.0815
7.474000	 64.9316
7.560000	 65.1574
7.646000	 65.094
7.732000	 65.0749
7.818000	 65.1253
7.904000	 65.0071
7.990000	 64.8917
8.076000	 65.0469
8.161999	 64.9344
8.248000	 64.9301
8.334000	 65.0148
8.420000	 64.8431
8.506000	 64.8385
8.592000	 64.7552
8.678000	 64.8962
8.763999	 64.6983
8.850000	 64.861
8.936000	 64.8689
9.022000	 64.7515
9.108000	 64.8805
9.193999	 65.0179
9.280000	 64.8779
9.366000	 64.8471
9.452000	 64.787
9.538000	 64.966
9.624000	 64.795
9.710000	 64.8068
9.795999	 64.8745
9.882000	 64.884
9.968000	 64.8628
10.054	64.6082
10.14	64.6775
10.226	64.8055
10.312	64.5178
10.398	64.5874
10.484	64.3914
10.57	64.3827
10.656	64.4974
10.742	64.5869
10.828	64.4229
10.914	64.4192
11	64.981
11.086	65.2375
11.172	64.2885
11.258	64.2953
11.344	64.5222
11.43	64.0897
11.516	64.0477
11.602	64.4682
11.688	64.6573
11.774	64.595
11.86	64.3646
11.946	64.2602
12.032	64.4066
12.118	64.4207
12.204	64.1535
12.29	64.2326
12.376	64.2145
12.462	64.1705
12.548	64.073
12.634	63.9316
12.72	63.8124
12.806	63.8047
12.892	63.8973
12.978	63.7217
13.064	63.5984
13.15	63.7486
13.236	63.7651
13.322	63.5538
13.408	63.4906
13.494	63.6497
13.58	63.7306
13.666	63.6904
13.752	63.6431
13.838	63.5165
13.924	63.4584
14.01	63.4488
14.096	63.3643
14.182	63.3089
14.268	63.1757
14.354	63.1481
14.44	63.325
14.526	63.377
14.612	63.1545
14.698	62.8662
14.784	62.7578
14.87	62.8312
14.956	62.9572
15.042	63.0936
15.128	63.2055
15.214	63.1655
15.3	62.9885
15.386	62.8712
15.472	62.7469
15.558	62.6134
15.644	62.7437
15.73	63.0251
15.816	63.0886
15.902	62.9133
15.988	62.7614
16.074	62.7831
16.16	62.8891
16.246	63.004
16.332	63.1587
16.418	63.3179
16.504	63.3492
16.59	63.1899
16.676	62.9502
16.762	62.7897
16.848	62.7543
16.934	62.764
17.02	62.732
17.106	62.66
17.192	62.583
17.278	62.4723
17.364	62.2757
17.45	62.0266
17.536	61.8286
17.622	61.7509
17.708	61.7772
17.794	61.8396
17.88	61.8824
17.966	61.8599
18.052	61.7609
18.138	61.6746
18.224	61.6985
18.31	61.7842
18.396	61.8019
18.482	61.7248
18.568	61.6385
18.654	61.5878
18.74	61.5357
18.826	61.4663
18.912	61.4259
18.998	61.4417
19.084	61.4611
19.17	61.404
19.256	61.2648
19.342	61.1304
19.428	61.1003
19.514	61.1969
19.6	61.3597
19.686	61.5037
19.772	61.5829
19.858	61.5929
19.944	61.5496
20.03	61.4807
20.116	61.4264
20.202	61.4106
20.288	61.4141
20.374	61.3798
20.46	61.2547
20.546	61.0231
20.632	60.7032
20.718	60.3246
20.804	59.9235
20.89	59.5556
20.976	59.3073
21.062	59.2589
21.148	59.4263
21.234	59.7389
21.32	60.0776
21.406	60.3393
21.492	60.4813
21.578	60.51
21.664	60.4541
21.75	60.3462
21.836	60.218
21.922	60.0973
22.008	59.9934
22.094	59.8967
22.18	59.8043
22.266	59.7413
22.352	59.7625
22.438	59.9072
22.524	60.1517
22.61	60.3806
22.696	60.4395
22.782	60.2444
22.868	59.8235
22.954	59.3035
23.04	58.8246
23.126	58.473
23.212	58.2779
23.298	58.2361
23.384	58.3359
23.47	58.5511
23.556	58.8138
23.642	59.021
23.728	59.1056
23.814	59.0877
23.9	59.0834
23.986	59.2556
24.072	59.664
24.158	60.1858
24.244	60.568
24.33	60.5327
24.416	59.924
24.502	58.819
24.588	57.4541
24.674	56.0899
24.76	54.9402
24.846	54.0543
24.932	53.369
25.018	52.8189
25.104	52.4415
25.19	52.4396
25.276	53.0859
25.362	54.5842
25.448	56.9645
25.534	59.9849
25.62	63.1492
25.706	65.8677
25.792	67.6626
25.878	68.2518
25.964	67.5683
26.05	65.7464
26.136	62.9937
26.222	59.4965
26.308	55.4191
26.394	50.9648
26.48	46.4168
26.566	42.184
26.652	38.7421
26.738	36.6088
26.824	36.1484
26.91	37.4492
26.996	40.3143
27.028	41.2659

File: C-4040-8_t26_cm-1.asc
PE IR       SPECTRUM    SPECTRUM    ASCII       PEDS        1.60
  -1
C-9A6E~1.ASC
17/05/02
13:06:38.00
17/05/02
13:06:38.00
tln
$C-4040-8_t0026$<tbV0>[7.5,7.0,8.0,0.0,22,1,0]
370
64

2002,4.07
MIRTGS : RIGHTBACK : INTERNAL 2
MIR : ON : INTERNAL 2
OPTKBR

0.200000
8
8.000000
FILLER
RATIO
SPECTRUM
UNLOCKED 256

DOUBLE
64
COMBINED
1
0
0

1.000000
RATIO

1
0
TRUE
51149
0
LEFT NOT FITTED RIGHT NOT FITTED 0
NONE
NONE
15600
12
4.427000
51148
TRUE
1 0 8 72 0 0 0 0

15798

#HDR
-1
-1
#GR
CM-1
%T
2.38419e-05
0.0
7800
-1.000000
7431
8
79.0335
36.0982
#DATA
7800	71.9859
7775	73.4167
7750	64.8999
7725	70.3949
7700	71.3928
7675	71.5839
7650	68.3367
7625	66.3744
7600	67.5058
7575	77.0048
7550	69.0125
7525	68.1722
7500	64.6392
7475	65.5353
7450	63.5027
7425	65.4491
7400	61.5051
7375	65.172
7350	69.5974
7325	66.7992
7300	65.2849
7275	66.3269
7250	65.3347
7225	66.4232
7200	63.6928
7175	67.0779
7150	63.8625
7125	63.7552
7100	64.3266
7075	63.7753
7050	65.4681
7025	67.2803
7000	64.5663
6975	66.6873
6950	64.907
6925	64.9845
6900	65.4433
6875	66.4043
6850	65.6874
6825	65.7482
6800	65.1332
6775	64.3313
6750	65.4149
6725	63.6378
6700	63.9788
6675	63.9379
6650	62.7247
6625	65.3888
6600	65.5359
6575	65.2241
6550	63.6062
6525	64.7
6500	64.5579
6475	66.0817
6450	65.0331
6425	64.0771
6400	65.4234
6375	65.4106
6350	64.8381
6325	64.6729
6300	65.0215
6275	64.9894
6250	64.9098
6225	64.8125
6200	65.2736
6175	63.9031
6150	64.2572
6125	65.1831
6100	65.5756
6075	65.0535
6050	65.8502
6025	64.2006
6000	65.2603
5975	64.9855
5950	64.7751
5925	65.0234
5900	65.5323
5875	64.5423
5850	65.4162
5825	64.8329
5800	64.8848
5775	65.25
5750	65.0155
5725	64.9066
5700	65.6553
5675	64.9918
5650	65.3855
5625	65.0165
5600	65.4925
5575	65.6801
5550	65.0564
5525	65.1813
5500	65.095
5475	65.0629
5450	64.7743
5425	64.5057
5400	65.6723
5375	64.2461
5350	64.9898
5325	66.2836
5300	61.8906
5275	61.0199
5250	65.953
5225	64.8694
5200	65.1767
5175	65.2489
5150	64.7807
5125	64.9205
5100	65.0689
5075	64.9003
5050	64.4698
5025	65.2778
5000	65.3098
4975	65.033
4950	64.3918
4925	65.0453
4900	64.8548
4875	64.8323
4850	64.5446
4825	64.9099
4800	64.7805
4775	64.9682
4750	65.0698
4725	64.9294
4700	65.1028
4675	65.0258
4650	65.4819
4625	65.0373
4600	64.89
4575	64.9582
4550	64.5246
4525	64.7206
4500	64.3034
4475	64.1379
4450	64.1287
4425	63.7996
4400	62.818
4375	64.8441
4350	64.9534
4325	64.6061
4300	64.9622
4275	64.5282
4250	64.6187
4225	64.8576
4200	64.9353
4175	64.8442
4150	64.7902
4125	65.1701
4100	65.495
4075	65.0542
4050	65.38
4025	65.0222
4000	65.1491
3975	65.0856
3950	65.2769
3925	64.9765
3900	65.3762
3875	65.1231
3850	65.2257
3825	65.2851
3800	65.0168
3775	64.9066
3750	65.2024
3725	65.2991
3700	65.2511
3675	65.1885
3650	65.2996
3625	65.0945
3600	65.2078
3575	65.2824
3550	65.2304
3525	65.2441
3500	65.3857
3475	65.0537
3450	65.3349
3425	65.0197
3400	65.2774
3375	65.3006
3350	65.1644
3325	65.1428
3300	65.1529
3275	65.2463
3250	65.2103
3225	65.1288
3200	65.1441
3175	65.2618
3150	65.1419
3125	65.2382
3100	65.325
3075	65.1899
3050	65.2716
3025	65.1099
3000	65.2884
2975	65.024
2950	65.01
2925	64.7369
2900	65.0784
2875	65.0172
2850	64.9777
2825	65.2831
2800	65.3069
2775	65.2765
2750	65.2804
2725	65.3131
2700	65.2756
2675	65.1781
2650	65.2109
2625	65.3276
2600	65.4036
2575	65.2483
2550	65.407
2525	65.2841
2500	65.3304
2475	65.2433
2450	65.2146
2425	65.2208
2400	65.193
2375	65.2899
2350	65.2613
2325	65.1396
2300	65.3785
2275	65.2235
2250	65.3826
2225	65.2435
2200	65.3465
2175	65.2803
2150	65.2535
2125	65.3963
2100	65.3842
2075	65.2219
2050	65.2683
2025	65.3769
2000	65.396
1975	65.3381
1950	65.3584
1925	65.4009
1900	65.4139
1875	65.3875
1850	65.3769
1825	65.3996
1800	65.4019
1775	65.4664
1750	65.161
1725	65.0262
1700	65.2303
1675	65.3159
1650	65.2424
1625	65.1723
1600	65.2497
1575	65.2001
1550	65.1444
1525	65.2388
1500	65.1996
1475	65.0717
1450	65.1589
1425	65.174
1400	65.0585
1375	65.0115
1350	65.0893
1325	65.1447
1300	65.1143
1275	65.0161
1250	64.8998
1225	64.9356
1200	65.017
1175	64.8262
1150	64.8576
1125	64.9274
1100	64.8811
1075	64.9241
1050	64.9522
1025	64.8276
1000	64.8066
975	 64.6735
950	 64.3491
925	 64.5169
900	 65.0559
875	 64.0979
850	 64.6152
825	 64.4138
800	 64.1439
775	 63.8919
750	 63.5288
725	 63.5914
700	 63.1504
675	 62.7702
650	 62.8726
625	 62.7541
600	 62.9745
575	 62.1978
550	 61.6721
525	 61.4583
500	 61.5052
475	 59.2532
450	 59.7666
425	 58.734
400	 52.9237
375	 38.2763
370	 41.2659

File: C-4040-8_t27.asc
PE IR       SPECTRUM    SPECTRUM    ASCII       PEDS        1.60
  -1
C-BD26~1.ASC
17/05/02
13:11:19.00
17/05/02
13:11:45.00
tln
$C-4040-8_t0027$<tbV0>[2.5,7.0,8.0,0.0,22,1,0]
27.028
64

2002,4.07
MIRTGS : RIGHTBACK : INTERNAL 2
MIR : ON : INTERNAL 2
OPTKBR

0.200000
8
8.000000
FILLER
RATIO
SPECTRUM
UNLOCKED 256

DOUBLE
64
COMBINED
1
0
0

0.002000
RATIO

1
0
TRUE
51149
0
LEFT NOT FITTED RIGHT NOT FITTED 0
NONE
NONE
15600
12
4.427000
51148
TRUE
1 0 8 72 0 0 0 0

15798

#HDR
-1
-1
#GR
µM
%T
2.38419e-05
0.0
1.282000
0.002000
12874
8
87.236
36.3949
#DATA
1.282000	 87.236
1.368000	 64.6572
1.454000	 65.4252
1.540000	 65.0701
1.626000	 65.2041
1.712000	 65.0376
1.798000	 65.3213
1.884000	 64.5265
1.970000	 64.8946
2.056000	 64.6689
2.142000	 65.4429
2.228000	 65.3943
2.314000	 65.4088
2.400000	 65.2186
2.486000	 65.0699
2.572000	 65.609
2.658000	 65.163
2.744000	 65.0994
2.830000	 65.4475
2.916000	 65.3384
3.002000	 65.227
3.088000	 65.2519
3.174000	 65.3475
3.260000	 65.3343
3.346000	 65.247
3.432000	 64.977
3.518000	 65.2031
3.604000	 65.2462
3.690000	 65.3939
3.776000	 65.2947
3.862000	 65.4839
3.948000	 65.3984
4.034000	 65.305
4.120000	 65.3025
4.206000	 65.3339
4.292000	 65.2741
4.378000	 65.4224
4.464000	 65.4023
4.550000	 65.4007
4.636000	 65.3821
4.722000	 65.4285
4.808000	 65.4409
4.894000	 65.4724
4.980000	 65.417
5.066000	 65.5688
5.152000	 65.4702
5.238000	 65.3886
5.324000	 65.4483
5.410000	 65.3796
5.496000	 65.3796
5.582000	 65.3527
5.668000	 65.3353
5.754000	 65.1427
5.840000	 65.2894
5.926000	 65.3774
6.012000	 65.3886
6.098000	 65.2119
6.184000	 65.2759
6.270000	 65.2022
6.356000	 65.1609
6.442000	 65.1529
6.528000	 65.2817
6.614000	 65.2404
6.700000	 65.2963
6.786000	 65.183
6.872000	 65.2058
6.958000	 65.2145
7.044000	 65.1856
7.130000	 65.1499
7.216000	 65.0553
7.302000	 65.1818
7.388000	 65.1938
7.474000	 65.175
7.560000	 65.1128
7.646000	 65.1255
7.732000	 65.0866
7.818000	 65.2182
7.904000	 65.1489
7.990000	 65.1042
8.076000	 65.2003
8.161999	 65.1354
8.248000	 65.0462
8.334000	 65.1335
8.420000	 64.9708
8.506000	 65.0234
8.592000	 64.9508
8.678000	 64.8487
8.763999	 64.8973
8.850000	 65.0258
8.936000	 64.9736
9.022000	 64.8422
9.108000	 64.9632
9.193999	 65.0548
9.280000	 64.9001
9.366000	 64.8132
9.452000	 64.852
9.538000	 64.7765
9.624000	 64.854
9.710000	 64.7322
9.795999	 64.7262
9.882000	 64.9255
9.968000	 64.9543
10.054	64.8311
10.14	65.1147
10.226	65.1378
10.312	64.8742
10.398	65.0245
10.484	64.753
10.57	64.5957
10.656	64.7515
10.742	64.7822
10.828	65.1888
10.914	65.2661
11	64.9225
11.086	63.8612
11.172	63.0251
11.258	63.3927
11.344	63.9316
11.43	64.4729
11.516	64.0959
11.602	64.5748
11.688	64.7082
11.774	64.509
11.86	64.5981
11.946	64.6672
12.032	64.4802
12.118	64.6396
12.204	64.5437
12.29	64.6136
12.376	64.5634
12.462	64.3019
12.548	64.1553
12.634	64.277
12.72	64.3023
12.806	64.1932
12.892	64.1904
12.978	64.2189
13.064	64.2333
13.15	64.323
13.236	64.213
13.322	64.0026
13.408	63.849
13.494	63.6463
13.58	63.7055
13.666	63.8915
13.752	63.9183
13.838	63.861
13.924	63.9271
14.01	64.0845
14.096	64.0212
14.182	63.7442
14.268	63.3588
14.354	63.2678
14.44	63.5655
14.526	63.7418
14.612	63.5786
14.698	63.3058
14.784	63.2129
14.87	63.2977
14.956	63.4723
15.042	63.6073
15.128	63.5436
15.214	63.4052
15.3	63.3284
15.386	63.2754
15.472	63.2286
15.558	63.2355
15.644	63.2704
15.73	63.199
15.816	63.0392
15.902	63.0037
15.988	63.1638
16.074	63.3335
16.16	63.3093
16.246	63.1092
16.332	62.9623
16.418	62.9682
16.504	62.9738
16.59	62.9064
16.676	62.8564
16.762	62.8346
16.848	62.8028
16.934	62.7644
17.02	62.7001
17.106	62.6341
17.192	62.6374
17.278	62.6535
17.364	62.54
17.45	62.3332
17.536	62.2399
17.622	62.3407
17.708	62.4997
17.794	62.577
17.88	62.5895
17.966	62.5995
18.052	62.5979
18.138	62.5802
18.224	62.5895
18.31	62.6238
18.396	62.6052
18.482	62.4841
18.568	62.3004
18.654	62.1278
18.74	62.0153
18.826	61.9635
18.912	61.9169
18.998	61.7978
19.084	61.5883
19.17	61.3633
19.256	61.1986
19.342	61.0849
19.428	60.9944
19.514	60.9633
19.6	61.0296
19.686	61.1466
19.772	61.2332
19.858	61.264
19.944	61.282
20.03	61.3304
20.116	61.3953
20.202	61.4057
20.288	61.304
20.374	61.0998
20.46	60.8598
20.546	60.646
20.632	60.4702
20.718	60.3035
20.804	60.1242
20.89	59.9501
20.976	59.8438
21.062	59.87
21.148	60.0524
21.234	60.3523
21.32	60.6776
21.406	60.922
21.492	61.0139
21.578	60.943
21.664	60.7684
21.75	60.5914
21.836	60.4953
21.922	60.4963
22.008	60.5181
22.094	60.4328
22.18	60.1484
22.266	59.6761
22.352	59.1573
22.438	58.7999
22.524	58.7523
22.61	59.0046
22.696	59.3689
22.782	59.6009
22.868	59.5354
22.954	59.1888
23.04	58.7228
23.126	58.3597
23.212	58.2701
23.298	58.5169
23.384	59.0217
23.47	59.6126
23.556	60.0945
23.642	60.3373
23.728	60.2789
23.814	59.9651
23.9	59.5023
23.986	59.0101
24.072	58.6114
24.158	58.4277
24.244	58.5466
24.33	58.9876
24.416	59.677
24.502	60.4525
24.588	61.0993
24.674	61.4736
24.76	61.5863
24.846	61.5976
24.932	61.7531
25.018	62.217
25.104	62.9414
25.19	63.5289
25.276	63.3839
25.362	61.9532
25.448	59.0202
25.534	54.8959
25.62	50.3629
25.706	46.3961
25.792	43.7753
25.878	42.8702
25.964	43.5477
26.05	45.2872
26.136	47.4081
26.222	49.1866
26.308	50.0131
26.394	49.5505
26.48	47.8129
26.566	45.1526
26.652	42.1438
26.738	39.3943
26.824	37.3939
26.91	36.452
26.996	36.744
27.028	36.9885