Folder: Masteroppgave/Bakgrunnsmateriale/MATLAB/FTIR/ftir_data/subBb/Mapping_121 (part 16)

File: C-4040-8_t31_cm-1.asc
PE IR       SPECTRUM    SPECTRUM    ASCII       PEDS        1.60
  -1
C-1BE4~1.ASC
17/03/27
17:01:45.00
17/03/27
17:01:45.00
tln
$C-4040-8_t0031$<tbV0>[-7.8,-7.8,8.0,0.0,27,1,0]
370
64

2002,4.07
MIRTGS : RIGHTBACK : INTERNAL 2
MIR : ON : INTERNAL 2
OPTKBR

0.200000
8
8.000000
FILLER
RATIO
SPECTRUM
UNLOCKED 256

DOUBLE
64
COMBINED
1
0
0

1.000000
RATIO

1
0
TRUE
51149
0
LEFT NOT FITTED RIGHT NOT FITTED 0
NONE
NONE
15600
12
4.427000
51148
TRUE
1 0 8 72 0 0 0 0

15798

#HDR
-1
-1
#GR
CM-1
%T
2.38419e-05
0.0
5000
-1.000000
4631
8
77.2167
15.1189
#DATA
5000	63.7169
4984	63.6176
4968	63.5511
4952	64.0527
4936	64.1545
4920	63.5957
4904	64.0607
4888	63.9146
4872	63.9559
4856	63.7029
4840	63.9647
4824	63.9373
4808	63.9662
4792	63.9104
4776	63.931
4760	64.0669
4744	63.9854
4728	63.6373
4712	63.8089
4696	63.8144
4680	63.6635
4664	64.2388
4648	63.775
4632	64.058
4616	63.9677
4600	63.9918
4584	63.8411
4568	63.716
4552	63.6439
4536	63.519
4520	63.7867
4504	63.4726
4488	63.6896
4472	63.3462
4456	63.4701
4440	63.3301
4424	63.1601
4408	62.7203
4392	63.3403
4376	63.3412
4360	51.464
4344	69.0229
4328	62.9385
4312	63.2362
4296	63.1441
4280	63.4291
4264	62.9717
4248	63.1156
4232	63.1392
4216	63.1214
4200	62.5838
4184	62.3551
4168	62.9004
4152	63.1801
4136	63.2017
4120	63.139
4104	63.2537
4088	63.0187
4072	63.2115
4056	62.8974
4040	63.1063
4024	63.1018
4008	62.9439
3992	63.045
3976	63.1194
3960	62.9671
3944	62.9162
3928	62.795
3912	62.5161
3896	62.8042
3880	62.8228
3864	62.783
3848	62.6101
3832	62.2829
3816	62.5127
3800	62.4736
3784	62.1899
3768	62.3993
3752	62.3359
3736	62.2854
3720	62.1774
3704	62.3446
3688	62.1194
3672	62.0813
3656	62.1352
3640	62.025
3624	62.1598
3608	61.758
3592	61.9388
3576	61.9786
3560	61.6835
3544	61.4147
3528	61.5312
3512	61.6156
3496	61.5066
3480	61.4609
3464	61.267
3448	61.2521
3432	61.376
3416	61.0029
3400	60.9853
3384	60.9455
3368	60.9358
3352	60.8075
3336	60.81
3320	60.5718
3304	60.6804
3288	60.3789
3272	60.451
3256	60.4636
3240	60.196
3224	60.1844
3208	59.9623
3192	60.1281
3176	59.9005
3160	59.7474
3144	59.5636
3128	59.4487
3112	59.6288
3096	59.3197
3080	59.3712
3064	59.1835
3048	59.1702
3032	58.9722
3016	58.8141
3000	58.8546
2984	58.8574
2968	58.7218
2952	58.4517
2936	58.3559
2920	58.0776
2904	58.1374
2888	58.0486
2872	57.897
2856	57.621
2840	57.9467
2824	57.7119
2808	57.6378
2792	57.5342
2776	57.3144
2760	57.2756
2744	57.2675
2728	56.96
2712	56.8765
2696	56.8364
2680	56.622
2664	56.5746
2648	56.2876
2632	56.2792
2616	56.1006
2600	55.9597
2584	55.9388
2568	55.8134
2552	55.5449
2536	55.4667
2520	55.2802
2504	55.0875
2488	54.9387
2472	54.8437
2456	54.7295
2440	54.5959
2424	54.8315
2408	54.5252
2392	54.2182
2376	53.9677
2360	53.8578
2344	53.7199
2328	53.5763
2312	53.4492
2296	53.3056
2280	53.0975
2264	52.9866
2248	52.894
2232	52.7443
2216	52.5629
2200	52.3675
2184	52.2961
2168	52.044
2152	51.9301
2136	51.75
2120	51.6534
2104	51.504
2088	51.3529
2072	51.0747
2056	50.9376
2040	50.7266
2024	50.5232
2008	50.5829
1992	50.2409
1976	50
1960	49.9327
1944	49.6825
1928	49.6085
1912	49.4184
1896	49.174
1880	49.0823
1864	48.9402
1848	48.6767
1832	48.6356
1816	48.2508
1800	48.1937
1784	48.0509
1768	47.8749
1752	47.6761
1736	47.3787
1720	47.1026
1704	47.1453
1688	46.9888
1672	46.8285
1656	46.5777
1640	46.5064
1624	46.3183
1608	46.0963
1592	45.8701
1576	45.7696
1560	45.5872
1544	45.3129
1528	45.184
1512	44.9696
1496	44.8874
1480	44.6165
1464	44.4383
1448	44.2462
1432	43.9856
1416	43.8194
1400	43.7062
1384	43.4512
1368	43.1423
1352	43.1818
1336	42.8705
1320	42.7756
1304	42.5428
1288	42.2913
1272	42.2962
1256	41.9226
1240	41.9318
1224	41.5956
1208	41.4165
1192	41.1302
1176	41.0721
1160	40.9298
1144	40.5716
1128	40.6068
1112	40.3703
1096	39.9064
1080	39.5444
1064	39.3586
1048	39.6707
1032	39.267
1016	39.0575
1000	38.7978
984	 38.7718
968	 38.4707
952	 38.3369
936	 38.0681
920	 37.7353
904	 37.5124
888	 37.3397
872	 37.0996
856	 36.9379
840	 36.5077
824	 36.2017
808	 36.0409
792	 35.674
776	 35.3595
760	 34.8468
744	 34.2768
728	 34.3633
712	 33.8236
696	 33.5558
680	 33.4728
664	 32.4566
648	 32.4028
632	 31.7672
616	 31.3665
600	 30.7881
584	 30.608
568	 29.8161
552	 29.1234
536	 28.1312
520	 28.1364
504	 26.5351
488	 26.9329
472	 25.9107
456	 23.9294
440	 23.8731
424	 22.1835
408	 20.3587
392	 15.1189
376	 49.4371
370	 69.06

File: C-4040-8_t32.asc
PE IR       SPECTRUM    SPECTRUM    ASCII       PEDS        1.60
  -1
C-A132~1.ASC
17/03/27
17:06:22.00
17/03/27
17:06:48.00
tln
$C-4040-8_t0032$<tbV0>[-10.4,-7.8,8.0,0.0,27,1,0]
27.028
64

2002,4.07
MIRTGS : RIGHTBACK : INTERNAL 2
MIR : ON : INTERNAL 2
OPTKBR

0.200000
8
8.000000
FILLER
RATIO
SPECTRUM
UNLOCKED 256

DOUBLE
64
COMBINED
1
0
0

0.002000
RATIO

1
0
TRUE
51149
0
LEFT NOT FITTED RIGHT NOT FITTED 0
NONE
NONE
15600
12
4.427000
51148
TRUE
1 0 8 72 0 0 0 0

15798

#HDR
-1
-1
#GR
µM
%T
2.38419e-05
0.0
2.000000
0.002000
12515
8
91.4162
45.2042
#DATA
2.000000	 64.6104
2.084000	 64.7455
2.168000	 64.7798
2.252000	 63.9529
2.336000	 64.5043
2.420000	 64.7545
2.504000	 64.9449
2.588000	 64.4689
2.672000	 64.4737
2.756000	 64.4566
2.840000	 64.3001
2.924000	 64.1401
3.008000	 64.1773
3.092000	 64.1657
3.176000	 63.9123
3.260000	 63.7868
3.344000	 63.8111
3.428000	 63.4396
3.512000	 63.4682
3.596000	 63.4782
3.680000	 63.4341
3.764000	 63.1394
3.848000	 63.2547
3.932000	 63.1752
4.016000	 62.8556
4.100000	 63.0204
4.184000	 62.856
4.268000	 62.6268
4.352000	 62.6399
4.436000	 62.5878
4.520000	 62.3854
4.604000	 62.4759
4.688000	 62.1957
4.772000	 62.1243
4.856000	 62.1731
4.940000	 62.0343
5.024000	 62.0251
5.108000	 61.9
5.192000	 61.861
5.276000	 61.6451
5.359999	 61.6761
5.444000	 61.6152
5.528000	 61.3829
5.612000	 61.3774
5.696000	 61.4138
5.780000	 61.146
5.864000	 61.2507
5.948000	 61.1798
6.032000	 61.1373
6.116000	 61.1516
6.200000	 60.9949
6.284000	 61.058
6.368000	 60.7717
6.452000	 60.6255
6.536000	 60.717
6.620000	 60.5825
6.704000	 60.4713
6.788000	 60.4987
6.872000	 60.4278
6.956000	 60.5321
7.040000	 60.2387
7.124000	 60.2846
7.208000	 60.311
7.292000	 60.1418
7.376000	 60.3351
7.460000	 60.1075
7.544000	 60.0109
7.628000	 60.1701
7.712000	 59.9184
7.796000	 59.8339
7.880000	 59.8469
7.964000	 59.9199
8.048000	 59.7712
8.132000	 59.7532
8.216000	 59.6059
8.300000	 59.6287
8.384000	 59.7144
8.468000	 59.5538
8.552000	 59.4583
8.635999	 59.4756
8.719999	 59.6563
8.804000	 59.4468
8.888000	 59.5369
8.972000	 58.9074
9.056000	 59.4603
9.140000	 59.6769
9.224000	 58.9338
9.308000	 59.5665
9.391999	 58.9264
9.475999	 58.97
9.560000	 59.1726
9.644000	 58.9599
9.728000	 59.1383
9.812000	 58.9446
9.896000	 58.9921
9.980000	 58.5952
10.064	58.6264
10.148	59.1104
10.232	58.8476
10.316	58.5795
10.4	58.3998
10.484	58.6028
10.568	58.8337
10.652	58.414
10.736	58.3467
10.82	58.4367
10.904	58.6371
10.988	58.6061
11.072	58.4264
11.156	58.4244
11.24	58.3662
11.324	58.2947
11.408	58.4102
11.492	58.4847
11.576	58.2553
11.66	58.0711
11.744	58.2128
11.828	58.1466
11.912	58.0149
11.996	58.18
12.08	58.0287
12.164	57.8642
12.248	57.624
12.332	57.6223
12.416	57.7929
12.5	57.7125
12.584	57.8209
12.668	57.7927
12.752	57.6685
12.836	57.6155
12.92	57.5359
13.004	57.3196
13.088	57.1422
13.172	57.0771
13.256	57.0011
13.34	57.2287
13.424	57.1916
13.508	56.9258
13.592	56.8572
13.676	56.8494
13.76	56.7812
13.844	56.7738
13.928	56.8021
14.012	56.856
14.096	57.033
14.18	57.1486
14.264	57.0428
14.348	56.7535
14.432	56.5263
14.516	56.4814
14.6	56.445
14.684	56.3422
14.768	56.1719
14.852	56.0107
14.936	56.0919
15.02	56.3063
15.104	56.3195
15.188	56.1708
15.272	56.0164
15.356	55.8916
15.44	55.8368
15.524	55.7086
15.608	55.4957
15.692	55.6024
15.776	56.0337
15.86	56.212
15.944	55.9837
16.028	55.7414
16.112	55.6297
16.196	55.5317
16.28	55.4686
16.364	55.4716
16.448	55.5031
16.532	55.6332
16.616	55.8198
16.7	55.8128
16.784	55.5916
16.868	55.4201
16.952	55.4277
17.036	55.4671
17.12	55.3889
17.204	55.2809
17.288	55.332
17.372	55.5338
17.456	55.6733
17.54	55.62
17.624	55.4397
17.708	55.2283
17.792	55.0037
17.876	54.7618
17.96	54.5712
18.044	54.5297
18.128	54.6418
18.212	54.8005
18.296	54.903
18.38	54.9307
18.464	54.8929
18.548	54.7774
18.632	54.6037
18.716	54.4597
18.8	54.4308
18.884	54.5092
18.968	54.6082
19.052	54.6366
19.136	54.5549
19.22	54.3843
19.304	54.201
19.388	54.0964
19.472	54.1096
19.556	54.1857
19.64	54.226
19.724	54.1961
19.808	54.155
19.892	54.1636
19.976	54.1949
20.06	54.1582
20.144	54.0017
20.228	53.7714
20.312	53.5777
20.396	53.5035
20.48	53.5384
20.564	53.5952
20.648	53.5914
20.732	53.5104
20.816	53.393
20.9	53.2851
20.984	53.2036
21.068	53.1382
21.152	53.0715
21.236	52.9969
21.32	52.9156
21.404	52.8266
21.488	52.7231
21.572	52.5949
21.656	52.4358
21.74	52.2538
21.824	52.0777
21.908	51.9474
21.992	51.8867
22.076	51.8859
22.16	51.9025
22.244	51.901
22.328	51.8799
22.412	51.8733
22.496	51.9238
22.58	52.0281
22.664	52.1278
22.748	52.1422
22.832	52.0328
22.916	51.8213
23	51.5661
23.084	51.3178
23.168	51.0918
23.252	50.8691
23.336	50.6216
23.42	50.309
23.504	49.9239
23.588	49.4732
23.672	48.9894
23.756	48.5779
23.84	48.3348
23.924	48.352
24.008	48.64
24.092	49.0703
24.176	49.4316
24.26	49.5637
24.344	49.4283
24.428	49.1236
24.512	48.8448
24.596	48.7344
24.68	48.8654
24.764	49.2723
24.848	49.9476
24.932	50.9524
25.016	52.4418
25.1	54.5827
25.184	57.5603
25.268	61.4858
25.352	66.3446
25.436	71.8918
25.52	77.6689
25.604	83.1294
25.688	87.6058
25.772	90.4905
25.856	91.4135
25.94	90.339
26.024	87.5687
26.108	83.6651
26.192	79.2435
26.276	74.8122
26.36	70.8229
26.444	67.3548
26.528	64.1695
26.612	60.9187
26.696	57.3608
26.78	53.5145
26.864	49.769
26.948	46.776
27.028	45.2042

File: C-4040-8_t32_cm-1.asc
PE IR       SPECTRUM    SPECTRUM    ASCII       PEDS        1.60
  -1
C-1B64~1.ASC
17/03/27
17:06:22.00
17/03/27
17:06:22.00
tln
$C-4040-8_t0032$<tbV0>[-10.4,-7.8,8.0,0.0,27,1,0]
370
64

2002,4.07
MIRTGS : RIGHTBACK : INTERNAL 2
MIR : ON : INTERNAL 2
OPTKBR

0.200000
8
8.000000
FILLER
RATIO
SPECTRUM
UNLOCKED 256

DOUBLE
64
COMBINED
1
0
0

1.000000
RATIO

1
0
TRUE
51149
0
LEFT NOT FITTED RIGHT NOT FITTED 0
NONE
NONE
15600
12
4.427000
51148
TRUE
1 0 8 72 0 0 0 0

15798

#HDR
-1
-1
#GR
CM-1
%T
2.38419e-05
0.0
5000
-1.000000
4631
8
91.395
45.2042
#DATA
5000	64.6104
4984	64.1473
4968	64.9996
4952	65.0169
4936	64.8805
4920	64.4951
4904	64.8571
4888	64.4125
4872	64.681
4856	64.5538
4840	64.8419
4824	65.0526
4808	64.4797
4792	64.5056
4776	64.4929
4760	64.8232
4744	64.9823
4728	64.5791
4712	64.5686
4696	64.6609
4680	64.5175
4664	64.6641
4648	64.6019
4632	64.944
4616	64.8227
4600	64.7224
4584	64.5963
4568	64.7288
4552	64.7647
4536	64.2756
4520	64.7777
4504	64.7072
4488	64.5278
4472	64.1596
4456	64.5202
4440	63.9551
4424	64.0944
4408	64.1007
4392	64.7267
4376	64.4993
4360	75.2678
4344	63.7369
4328	64.5231
4312	65.0074
4296	64.4072
4280	64.5617
4264	64.2645
4248	64.2742
4232	64.4935
4216	64.3878
4200	64.5468
4184	63.7217
4168	64.6723
4152	64.4418
4136	64.7836
4120	64.5095
4104	64.5043
4088	64.6718
4072	64.7542
4056	64.3443
4040	64.6347
4024	64.4761
4008	64.4986
3992	64.9527
3976	64.6572
3960	64.8179
3944	64.3849
3928	64.5075
3912	64.272
3896	64.5448
3880	64.8441
3864	64.4687
3848	64.5311
3832	64.4681
3816	64.6193
3800	64.5435
3784	64.4088
3768	64.463
3752	64.5607
3736	64.4646
3720	64.6236
3704	64.4435
3688	64.5213
3672	64.427
3656	64.5348
3640	64.5951
3624	64.5761
3608	64.423
3592	64.3551
3576	64.4162
3560	64.3724
3544	64.3119
3528	64.2878
3512	64.4021
3496	64.4274
3480	64.4076
3464	64.2645
3448	64.4186
3432	64.2983
3416	64.152
3400	64.1386
3384	64.0919
3368	64.1002
3352	64.1796
3336	64.1957
3320	64.3527
3304	64.0744
3288	64.287
3272	64.1451
3256	64.0131
3240	64.2863
3224	64.1289
3208	63.9941
3192	64.0121
3176	64.1623
3160	64.0792
3144	63.8689
3128	64.1125
3112	64.0911
3096	64.0699
3080	63.9088
3064	63.71
3048	63.8386
3032	63.831
3016	63.8312
3000	63.8063
2984	63.8723
2968	63.8285
2952	63.601
2936	63.5184
2920	63.4307
2904	63.4762
2888	63.7133
2872	63.6182
2856	63.4282
2840	63.5547
2824	63.5915
2808	63.5828
2792	63.6334
2776	63.4539
2760	63.55
2744	63.6202
2728	63.3723
2712	63.3205
2696	63.3826
2680	63.4007
2664	63.3395
2648	63.1487
2632	63.1777
2616	63.2015
2600	63.2525
2584	63.1904
2568	63.1286
2552	63.2015
2536	63.1958
2520	63.1103
2504	63.0644
2488	62.8838
2472	62.8538
2456	62.9005
2440	63.009
2424	62.5751
2408	62.8585
2392	62.8368
2376	62.8212
2360	62.8067
2344	62.6252
2328	62.7022
2312	62.7282
2296	62.5942
2280	62.5939
2264	62.4784
2248	62.5252
2232	62.6034
2216	62.3382
2200	62.5631
2184	62.5035
2168	62.4753
2152	62.2121
2136	62.1383
2120	62.3344
2104	62.1245
2088	62.2319
2072	61.9549
2056	62.1063
2040	62.0309
2024	62.0313
2008	61.9925
1992	62.0311
1976	61.9251
1960	61.9116
1944	61.8842
1928	61.8811
1912	61.8148
1896	61.645
1880	61.7172
1864	61.6628
1848	61.5777
1832	61.5959
1816	61.4974
1800	61.4272
1784	61.4285
1768	61.3439
1752	61.3914
1736	61.1936
1720	60.9985
1704	61.2649
1688	61.1986
1672	61.0861
1656	61.1069
1640	61.1547
1624	60.9934
1608	60.9783
1592	61.0565
1576	60.8425
1560	60.6678
1544	60.5717
1528	60.7446
1512	60.571
1496	60.5381
1480	60.6063
1464	60.5262
1448	60.5891
1432	60.5023
1416	60.29
1400	60.3052
1384	60.2421
1368	60.1276
1352	60.3194
1336	60.1595
1320	60.0529
1304	60.075
1288	59.8433
1272	59.8612
1256	59.9267
1240	59.7538
1224	59.6662
1208	59.6381
1192	59.716
1176	59.6051
1160	59.4574
1144	59.702
1128	59.5026
1112	59.0113
1096	59.7556
1080	59.1015
1064	58.9179
1048	59.2669
1032	59.1957
1016	59.042
1000	58.5601
984	 59.1336
968	 58.5174
952	 58.7293
936	 58.3181
920	 58.5487
904	 58.4368
888	 58.3163
872	 58.5025
856	 58.0836
840	 58.008
824	 57.911
808	 57.7476
792	 57.8399
776	 57.5794
760	 57.0961
744	 57.1347
728	 56.8011
712	 56.9157
696	 56.6838
680	 56.3054
664	 56.3457
648	 55.8415
632	 56.1942
616	 55.494
600	 55.8496
584	 55.384
568	 55.484
552	 54.6198
536	 54.5532
520	 54.3597
504	 54.1516
488	 53.5473
472	 53.0419
456	 51.9245
440	 52.1499
424	 49.4907
408	 48.8502
392	 77.0032
376	 61.5694
370	 45.2042

File: C-4040-8_t33.asc
PE IR       SPECTRUM    SPECTRUM    ASCII       PEDS        1.60
  -1
C-A136~1.ASC
17/03/27
17:10:59.00
17/03/27
17:11:25.00
tln
$C-4040-8_t0033$<tbV0>[-13.0,-7.8,8.0,0.0,27,1,0]
27.028
64

2002,4.07
MIRTGS : RIGHTBACK : INTERNAL 2
MIR : ON : INTERNAL 2
OPTKBR

0.200000
8
8.000000
FILLER
RATIO
SPECTRUM
UNLOCKED 256

DOUBLE
64
COMBINED
1
0
0

0.002000
RATIO

1
0
TRUE
51149
0
LEFT NOT FITTED RIGHT NOT FITTED 0
NONE
NONE
15600
12
4.427000
51148
TRUE
1 0 8 72 0 0 0 0

15798

#HDR
-1
-1
#GR
µM
%T
2.38419e-05
0.0
2.000000
0.002000
12515
8
89.6919
33.0258
#DATA
2.000000	 64.6348
2.084000	 65.0696
2.168000	 64.8334
2.252000	 64.8231
2.336000	 65.0458
2.420000	 65.0485
2.504000	 65.0871
2.588000	 65.1368
2.672000	 65.1696
2.756000	 65.0504
2.840000	 65.1263
2.924000	 64.9972
3.008000	 65.2185
3.092000	 65.2928
3.176000	 65.0458
3.260000	 65.1903
3.344000	 65.1521
3.428000	 64.8447
3.512000	 64.9848
3.596000	 65.3346
3.680000	 65.1328
3.764000	 65.1751
3.848000	 65.3442
3.932000	 65.3358
4.016000	 65.1848
4.100000	 65.2567
4.184000	 65.301
4.268000	 65.2479
4.352000	 65.2928
4.436000	 65.4197
4.520000	 65.4169
4.604000	 65.3632
4.688000	 65.356
4.772000	 65.44
4.856000	 65.6302
4.940000	 65.4129
5.024000	 65.4729
5.108000	 65.427
5.192000	 65.3986
5.276000	 65.3471
5.359999	 65.3493
5.444000	 65.3535
5.528000	 65.2129
5.612000	 65.2382
5.696000	 65.3649
5.780000	 64.9769
5.864000	 65.2304
5.948000	 65.2561
6.032000	 65.2168
6.116000	 65.3043
6.200000	 65.1668
6.284000	 65.2185
6.368000	 65.0295
6.452000	 65.1279
6.536000	 65.1201
6.620000	 65.1272
6.704000	 65.1432
6.788000	 64.9856
6.872000	 65.1331
6.956000	 65.1749
7.040000	 65.1609
7.124000	 64.9644
7.208000	 65.0091
7.292000	 65.0035
7.376000	 65.1491
7.460000	 65.225
7.544000	 65.0611
7.628000	 65.1566
7.712000	 65.0041
7.796000	 65.0845
7.880000	 65.2043
7.964000	 65.1284
8.048000	 65.0666
8.132000	 64.9859
8.216000	 65.178
8.300000	 65.0169
8.384000	 65.0349
8.468000	 64.8909
8.552000	 65.0266
8.635999	 64.8511
8.719999	 65.0742
8.804000	 64.8957
8.888000	 65.0441
8.972000	 64.8254
9.056000	 65.2104
9.140000	 64.5937
9.224000	 65.4409
9.308000	 65.1677
9.391999	 64.8586
9.475999	 64.5052
9.560000	 64.639
9.644000	 65.0367
9.728000	 65.0888
9.812000	 65.1714
9.896000	 64.6024
9.980000	 64.5255
10.064	64.6325
10.148	65.0866
10.232	64.9503
10.316	64.8513
10.4	64.6109
10.484	64.773
10.568	64.8704
10.652	64.6755
10.736	64.7304
10.82	64.6683
10.904	65.0768
10.988	64.8735
11.072	64.6414
11.156	64.4699
11.24	64.6084
11.324	64.6169
11.408	64.566
11.492	64.643
11.576	64.895
11.66	64.9085
11.744	64.8497
11.828	64.6946
11.912	64.5135
11.996	64.6144
12.08	64.4669
12.164	64.4248
12.248	64.3588
12.332	64.1734
12.416	64.2439
12.5	64.2264
12.584	64.2385
12.668	64.464
12.752	64.4937
12.836	64.4839
12.92	64.2934
13.004	64.1352
13.088	64.2267
13.172	64.2609
13.256	63.9988
13.34	63.9009
13.424	64.0699
13.508	64.1202
13.592	64.0758
13.676	64.0446
13.76	64.0204
13.844	64.0075
13.928	64.1141
14.012	64.0311
14.096	63.9361
14.18	64.0601
14.264	64.0676
14.348	63.8886
14.432	63.7769
14.516	63.7817
14.6	63.7451
14.684	63.6818
14.768	63.5874
14.852	63.5275
14.936	63.6432
15.02	63.7124
15.104	63.5405
15.188	63.3864
15.272	63.3613
15.356	63.3626
15.44	63.4923
15.524	63.5967
15.608	63.3687
15.692	63.0858
15.776	63.0953
15.86	63.219
15.944	63.2807
16.028	63.3853
16.112	63.5007
16.196	63.4587
16.28	63.3373
16.364	63.3236
16.448	63.3548
16.532	63.3213
16.616	63.2733
16.7	63.2261
16.784	63.1185
16.868	62.9728
16.952	62.8728
17.036	62.8805
17.12	63.0376
17.204	63.3145
17.288	63.5552
17.372	63.5575
17.456	63.2746
17.54	62.922
17.624	62.7614
17.708	62.821
17.792	62.9339
17.876	62.9785
17.96	62.9835
18.044	63.0243
18.128	63.1086
18.212	63.1745
18.296	63.1692
18.38	63.1121
18.464	63.0399
18.548	62.9281
18.632	62.7239
18.716	62.4712
18.8	62.323
18.884	62.3857
18.968	62.6008
19.052	62.8082
19.136	62.8726
19.22	62.7486
19.304	62.4873
19.388	62.1994
19.472	61.9847
19.556	61.8732
19.64	61.8287
19.724	61.8044
19.808	61.782
19.892	61.75
19.976	61.6938
20.06	61.6241
20.144	61.5916
20.228	61.6474
20.312	61.7934
20.396	61.9724
20.48	62.1073
20.564	62.1555
20.648	62.1385
20.732	62.124
20.816	62.1664
20.9	62.2611
20.984	62.3484
21.068	62.3583
21.152	62.2681
21.236	62.1245
21.32	62.0149
21.404	62.0055
21.488	62.0924
21.572	62.2055
21.656	62.256
21.74	62.194
21.824	62.0467
21.908	61.8908
21.992	61.7799
22.076	61.7026
22.16	61.593
22.244	61.4072
22.328	61.1711
22.412	60.969
22.496	60.8743
22.58	60.8984
22.664	60.9874
22.748	61.0716
22.832	61.1416
22.916	61.2217
23	61.3504
23.084	61.4986
23.168	61.5736
23.252	61.4804
23.336	61.1576
23.42	60.6348
23.504	60.0099
23.588	59.3987
23.672	58.8969
23.756	58.5649
23.84	58.3189
23.924	58.0262
24.008	57.5296
24.092	56.6468
24.176	55.2594
24.26	53.3478
24.344	51.0254
24.428	48.4874
24.512	45.9227
24.596	43.4208
24.68	41.0553
24.764	38.9687
24.848	37.2754
24.932	36.0297
25.016	35.2331
25.1	34.8276
25.184	35.1096
25.268	36.7462
25.352	40.5036
25.436	46.872
25.52	55.5512
25.604	65.4166
25.688	74.8643
25.772	82.4154
25.856	87.2495
25.94	89.3956
26.024	89.5896
26.108	88.8513
26.192	87.8701
26.276	86.7073
26.36	84.9165
26.444	81.7895
26.528	76.7841
26.612	70.0384
26.696	62.1072
26.78	53.7143
26.864	45.6379
26.948	38.5139
27.028	33.0258

File: C-4040-8_t33_cm-1.asc
PE IR       SPECTRUM    SPECTRUM    ASCII       PEDS        1.60
  -1
C-1BE1~1.ASC
17/03/27
17:10:59.00
17/03/27
17:10:59.00
tln
$C-4040-8_t0033$<tbV0>[-13.0,-7.8,8.0,0.0,27,1,0]
370
64

2002,4.07
MIRTGS : RIGHTBACK : INTERNAL 2
MIR : ON : INTERNAL 2
OPTKBR

0.200000
8
8.000000
FILLER
RATIO
SPECTRUM
UNLOCKED 256

DOUBLE
64
COMBINED
1
0
0

1.000000
RATIO

1
0
TRUE
51149
0
LEFT NOT FITTED RIGHT NOT FITTED 0
NONE
NONE
15600
12
4.427000
51148
TRUE
1 0 8 72 0 0 0 0

15798

#HDR
-1
-1
#GR
CM-1
%T
2.38419e-05
0.0
5000
-1.000000
4631
8
89.6532
33.0258
#DATA
5000	64.6348
4984	64.2451
4968	64.7314
4952	64.7331
4936	65.124
4920	65.0145
4904	65.0509
4888	65.2826
4872	65.1826
4856	65.0335
4840	64.885
4824	65.2345
4808	64.8099
4792	65.2009
4776	64.732
4760	64.9237
4744	64.9422
4728	64.9463
4712	64.5853
4696	65.0427
4680	64.6456
4664	64.7581
4648	64.8938
4632	65.0131
4616	64.8074
4600	65.323
4584	64.7326
4568	65.1882
4552	64.866
4536	64.4782
4520	65.149
4504	65.0885
4488	64.9389
4472	65.081
4456	65.3207
4440	64.8352
4424	64.7544
4408	64.8858
4392	66.2422
4376	67.6239
4360	59.3274
4344	66.9431
4328	64.7691
4312	65.705
4296	65.2564
4280	65.0915
4264	65.4286
4248	65.0687
4232	65.4926
4216	64.8888
4200	64.5273
4184	64.2156
4168	65.156
4152	64.9439
4136	65.1912
4120	64.9487
4104	64.7906
4088	64.9527
4072	65.1004
4056	64.6632
4040	64.9054
4024	65.0689
4008	64.8386
3992	65.079
3976	65.0074
3960	65.2677
3944	64.7879
3928	64.9738
3912	65.111
3896	65.3831
3880	65.4284
3864	65.1361
3848	65.2118
3832	64.9075
3816	65.0831
3800	65.1436
3784	64.7863
3768	65.2104
3752	65.2439
3736	65.0689
3720	65.1257
3704	65.2834
3688	65.1451
3672	64.9353
3656	65.1123
3640	65.1064
3624	65.1649
3608	65.1512
3592	65.132
3576	65.0617
3560	65.0059
3544	65.0978
3528	65.279
3512	65.0791
3496	65.2056
3480	65.2112
3464	65.3119
3448	65.1337
3432	65.3867
3416	65.0905
3400	65.1757
3384	65.0644
3368	65.1201
3352	65.3193
3336	65.1105
3320	65.3991
3304	64.9474
3288	65.369
3272	65.2101
3256	65.2644
3240	65.2889
3224	65.1517
3208	65.2107
3192	65.314
3176	65.3481
3160	65.1677
3144	65.1339
3128	65.035
3112	65.3851
3096	65.3228
3080	65.261
3064	65.1651
3048	65.207
3032	65.2783
3016	65.0853
3000	65.2247
2984	65.1082
2968	65.3864
2952	65.0109
2936	64.9535
2920	64.7851
2904	65.0244
2888	65.1386
2872	65.279
2856	64.9761
2840	65.1256
2824	65.2418
2808	65.1055
2792	65.243
2776	65.3323
2760	65.1622
2744	65.3752
2728	65.0732
2712	65.1883
2696	65.2958
2680	65.2549
2664	65.2906
2648	65.1828
2632	65.2323
2616	65.1993
2600	65.3447
2584	65.1943
2568	65.1575
2552	65.2303
2536	65.2951
2520	65.4956
2504	65.2365
2488	65.2742
2472	65.2001
2456	65.2844
2440	65.281
2424	65.2427
2408	65.3584
2392	65.2959
2376	65.4027
2360	65.2747
2344	65.229
2328	65.321
2312	65.3306
2296	65.293
2280	65.3908
2264	65.3407
2248	65.3862
2232	65.3648
2216	65.3983
2200	65.3815
2184	65.3605
2168	65.3131
2152	65.1545
2136	65.3585
2120	65.3673
2104	65.3584
2088	65.5227
2072	65.2379
2056	65.6518
2040	65.2606
2024	65.4186
2008	65.3962
1992	65.4829
1976	65.3538
1960	65.4131
1944	65.2089
1928	65.398
1912	65.2987
1896	65.3476
1880	65.3147
1864	65.3747
1848	65.2755
1832	65.3758
1816	65.2901
1800	65.2741
1784	65.2742
1768	65.3659
1752	65.3622
1736	65.1482
1720	65.0772
1704	65.2318
1688	65.1951
1672	65.2412
1656	65.1912
1640	65.2741
1624	65.0691
1608	65.2445
1592	65.2227
1576	65.0407
1560	65.1365
1544	65.092
1528	65.1482
1512	65.1161
1496	65.1392
1480	65.1427
1464	65.0866
1448	65.1908
1432	65.1901
1416	65.202
1400	64.998
1384	64.9655
1368	64.9669
1352	65.1385
1336	65.3175
1320	65.1125
1304	65.0905
1288	65.1068
1272	65.1683
1256	65.1279
1240	65.0015
1224	65.0238
1208	65.0431
1192	65.0113
1176	65.0503
1160	64.8759
1144	65.0552
1128	65.0633
1112	64.7394
1096	64.6644
1080	65.1596
1064	64.8019
1048	64.5006
1032	65.2207
1016	65.0347
1000	64.5408
984	 65.1188
968	 64.82
952	 64.8534
936	 64.67
920	 64.9024
904	 64.659
888	 64.6298
872	 64.6068
856	 64.8911
840	 64.5219
824	 64.3797
808	 64.2057
792	 64.3498
776	 64.3985
760	 64.2762
744	 64.0936
728	 64.0326
712	 63.9661
696	 63.8476
680	 63.6621
664	 63.6509
648	 63.475
632	 63.1701
616	 63.3994
600	 63.2492
584	 63.0468
568	 62.7742
552	 63.0959
536	 62.6489
520	 62.7209
504	 61.7715
488	 62.1196
472	 62.2107
456	 61.8565
440	 61.0526
424	 59.4196
408	 45.9891
392	 54.4583
376	 71.4512
370	 33.0258