Folder: Masteroppgave/Bakgrunnsmateriale/MATLAB/FTIR/ftir_data/subBb/Mapping_121 (part 43)

File: C-4040-8_t99.asc
PE IR       SPECTRUM    SPECTRUM    ASCII       PEDS        1.60
  -1
C-C94E~1.ASC
17/03/27
22:37:33.00
17/03/27
22:37:59.00
tln
$C-4040-8_t0099$<tbV0>[-13.0,7.8,8.0,0.0,27,1,0]
27.028
64

2002,4.07
MIRTGS : RIGHTBACK : INTERNAL 2
MIR : ON : INTERNAL 2
OPTKBR

0.200000
8
8.000000
FILLER
RATIO
SPECTRUM
UNLOCKED 256

DOUBLE
64
COMBINED
1
0
0

0.002000
RATIO

1
0
TRUE
51149
0
LEFT NOT FITTED RIGHT NOT FITTED 0
NONE
NONE
15600
12
4.427000
51148
TRUE
1 0 8 72 0 0 0 0

15798

#HDR
-1
-1
#GR
µM
%T
2.38419e-05
0.0
2.000000
0.002000
12515
8
174.588
49.0296
#DATA
2.000000	 65.202
2.084000	 65.342
2.168000	 64.6559
2.252000	 63.179
2.336000	 63.8211
2.420000	 65.0921
2.504000	 64.9608
2.588000	 64.825
2.672000	 65.0642
2.756000	 65.1138
2.840000	 65.2273
2.924000	 64.9665
3.008000	 64.9053
3.092000	 65.0661
3.176000	 65.0358
3.260000	 64.9998
3.344000	 65.1399
3.428000	 64.6812
3.512000	 64.8855
3.596000	 65.0705
3.680000	 65.173
3.764000	 65.107
3.848000	 64.9765
3.932000	 65.1428
4.016000	 65.1503
4.100000	 65.1863
4.184000	 65.1146
4.268000	 65.2145
4.352000	 65.2625
4.436000	 65.2734
4.520000	 65.1401
4.604000	 65.2502
4.688000	 65.2707
4.772000	 65.0464
4.856000	 65.3108
4.940000	 65.1459
5.024000	 65.1458
5.108000	 65.2897
5.192000	 65.265
5.276000	 65.1111
5.359999	 65.1866
5.444000	 65.2879
5.528000	 65.228
5.612000	 65.2005
5.696000	 65.1467
5.780000	 64.8521
5.864000	 65.2806
5.948000	 65.1437
6.032000	 65.1464
6.116000	 65.1541
6.200000	 65.0275
6.284000	 64.9712
6.368000	 64.8628
6.452000	 65.0091
6.536000	 64.9754
6.620000	 65.0225
6.704000	 65.0803
6.788000	 65.0473
6.872000	 64.9342
6.956000	 65.0728
7.040000	 64.8515
7.124000	 65.2068
7.208000	 64.9207
7.292000	 64.8643
7.376000	 65.0064
7.460000	 64.9326
7.544000	 64.9539
7.628000	 64.8221
7.712000	 65.0026
7.796000	 64.8118
7.880000	 64.777
7.964000	 64.9405
8.048000	 64.963
8.132000	 64.8161
8.216000	 64.8572
8.300000	 64.7715
8.384000	 64.9086
8.468000	 64.8546
8.552000	 64.962
8.635999	 64.8222
8.719999	 64.7519
8.804000	 64.7668
8.888000	 64.5724
8.972000	 64.7636
9.056000	 64.6657
9.140000	 64.5896
9.224000	 64.2593
9.308000	 64.5765
9.391999	 64.66
9.475999	 64.4917
9.560000	 64.8684
9.644000	 64.409
9.728000	 64.6126
9.812000	 64.8759
9.896000	 64.2921
9.980000	 64.6315
10.064	64.6385
10.148	64.6363
10.232	64.3997
10.316	64.3843
10.4	64.5491
10.484	64.3686
10.568	64.3448
10.652	64.4486
10.736	64.1691
10.82	64.6569
10.904	64.9302
10.988	64.6771
11.072	64.148
11.156	64.086
11.24	64.6041
11.324	64.2056
11.408	64.2802
11.492	64.5647
11.576	64.5398
11.66	64.4419
11.744	64.3079
11.828	64.1442
11.912	64.0806
11.996	64.3155
12.08	64.4338
12.164	64.2894
12.248	64.3726
12.332	64.3442
12.416	64.0936
12.5	64.0247
12.584	64.053
12.668	63.7988
12.752	63.5712
12.836	63.5935
12.92	63.6898
13.004	63.8781
13.088	64.0906
13.172	64.2591
13.256	63.9903
13.34	63.5167
13.424	63.6218
13.508	63.7532
13.592	63.8488
13.676	63.9171
13.76	63.7159
13.844	63.4512
13.928	63.446
14.012	63.5081
14.096	63.3268
14.18	62.9817
14.264	62.9482
14.348	63.2005
14.432	63.4655
14.516	63.5168
14.6	63.3582
14.684	63.28
14.768	63.2662
14.852	63.165
14.936	62.9497
15.02	62.874
15.104	63.0365
15.188	62.9983
15.272	62.7103
15.356	62.5602
15.44	62.5703
15.524	62.6217
15.608	62.679
15.692	62.6718
15.776	62.6364
15.86	62.6506
15.944	62.7684
16.028	62.9835
16.112	63.025
16.196	62.7089
16.28	62.407
16.364	62.4794
16.448	62.654
16.532	62.5305
16.616	62.2133
16.7	62.0582
16.784	62.1527
16.868	62.3079
16.952	62.3548
17.036	62.3163
17.12	62.3159
17.204	62.407
17.288	62.5732
17.372	62.7566
17.456	62.8316
17.54	62.7099
17.624	62.4802
17.708	62.3274
17.792	62.3536
17.876	62.5562
17.96	62.8316
18.044	62.9702
18.128	62.8113
18.212	62.4415
18.296	62.1155
18.38	61.9763
18.464	61.984
18.548	62.0517
18.632	62.0907
18.716	61.9874
18.8	61.669
18.884	61.2159
18.968	60.8369
19.052	60.7058
19.136	60.8377
19.22	61.1164
19.304	61.4157
19.388	61.6888
19.472	61.9503
19.556	62.1799
19.64	62.2727
19.724	62.1323
19.808	61.7967
19.892	61.4327
19.976	61.1948
20.06	61.0964
20.144	61.0366
20.228	60.9391
20.312	60.8446
20.396	60.8503
20.48	60.9811
20.564	61.1364
20.648	61.1699
20.732	61.0194
20.816	60.7569
20.9	60.5136
20.984	60.377
21.068	60.3398
21.152	60.3363
21.236	60.3075
21.32	60.2343
21.404	60.127
21.488	59.9941
21.572	59.8509
21.656	59.755
21.74	59.7931
21.824	60.0109
21.908	60.3327
21.992	60.5848
22.076	60.6046
22.16	60.3362
22.244	59.8644
22.328	59.3386
22.412	58.8836
22.496	58.5567
22.58	58.3709
22.664	58.335
22.748	58.4517
22.832	58.6803
22.916	58.9151
23	59.0109
23.084	58.8735
23.168	58.4598
23.252	57.7893
23.336	56.9658
23.42	56.1244
23.504	55.383
23.588	54.8552
23.672	54.6292
23.756	54.6955
23.84	54.9522
23.924	55.2571
24.008	55.5022
24.092	55.6427
24.176	55.6749
24.26	55.5931
24.344	55.3976
24.428	55.1678
24.512	55.1171
24.596	55.726
24.68	57.5076
24.764	60.6057
24.848	64.8027
24.932	69.1783
25.016	72.2824
25.1	72.524
25.184	69.1972
25.268	63.1538
25.352	56.5392
25.436	51.5456
25.52	49.2396
25.604	49.2953
25.688	50.8141
25.772	53.0938
25.856	56.0085
25.94	58.8886
26.024	60.4721
26.108	59.3913
26.192	56.6586
26.276	55.7675
26.36	62.2635
26.444	79.6138
26.528	106.807
26.612	137.388
26.696	162.432
26.78	174.165
26.864	169.741
26.948	152.052
27.028	129.203

File: C-4040-8_t99_cm-1.asc
PE IR       SPECTRUM    SPECTRUM    ASCII       PEDS        1.60
  -1
C-1EE0~1.ASC
17/03/27
22:37:33.00
17/03/27
22:37:33.00
tln
$C-4040-8_t0099$<tbV0>[-13.0,7.8,8.0,0.0,27,1,0]
370
64

2002,4.07
MIRTGS : RIGHTBACK : INTERNAL 2
MIR : ON : INTERNAL 2
OPTKBR

0.200000
8
8.000000
FILLER
RATIO
SPECTRUM
UNLOCKED 256

DOUBLE
64
COMBINED
1
0
0

1.000000
RATIO

1
0
TRUE
51149
0
LEFT NOT FITTED RIGHT NOT FITTED 0
NONE
NONE
15600
12
4.427000
51148
TRUE
1 0 8 72 0 0 0 0

15798

#HDR
-1
-1
#GR
CM-1
%T
2.38419e-05
0.0
5000
-1.000000
4631
8
174.468
49.0629
#DATA
5000	65.202
4984	64.5615
4968	64.4348
4952	64.8788
4936	63.9565
4920	65.0232
4904	64.2493
4888	65.6089
4872	65.0512
4856	64.6256
4840	64.6611
4824	64.6757
4808	64.8762
4792	65.2611
4776	64.9791
4760	65.0417
4744	64.93
4728	65.3291
4712	65.2966
4696	64.9455
4680	65.1449
4664	65.1257
4648	65.1558
4632	65.4964
4616	64.7113
4600	64.7897
4584	64.8316
4568	64.5744
4552	64.6113
4536	63.3732
4520	64.525
4504	63.53
4488	63.5787
4472	63.4686
4456	63.479
4440	63.172
4424	62.7208
4408	63.2025
4392	75.8104
4376	66.5928
4360	64.0072
4344	63.8708
4328	63.9077
4312	63.3356
4296	63.7121
4280	63.8572
4264	64.4453
4248	63.7774
4232	64.5848
4216	64.5199
4200	64.2775
4184	64.4879
4168	64.3443
4152	64.9404
4136	64.9954
4120	65.0675
4104	65.2797
4088	64.8135
4072	65.2159
4056	65.1835
4040	65.1583
4024	65.3831
4008	65.239
3992	64.9657
3976	65.0347
3960	64.9176
3944	64.9359
3928	64.8276
3912	64.7809
3896	64.8877
3880	64.7419
3864	64.8248
3848	64.9369
3832	64.4986
3816	64.711
3800	64.7397
3784	65.055
3768	65.1295
3752	65.0615
3736	65.0344
3720	65.1058
3704	65.1225
3688	65.257
3672	65.3033
3656	65.241
3640	65.1538
3624	65.1762
3608	65.2426
3592	65.3342
3576	65.1166
3560	65.326
3544	65.1244
3528	65.0796
3512	64.965
3496	64.8696
3480	64.7786
3464	64.8844
3448	64.8061
3432	65.126
3416	64.8798
3400	65.0047
3384	64.768
3368	64.9726
3352	65.0377
3336	64.9873
3320	64.8043
3304	65.0765
3288	65.1172
3272	65.1786
3256	65.0781
3240	65.159
3224	64.962
3208	65.1445
3192	65.088
3176	65.1433
3160	65.3054
3144	65.113
3128	65.1253
3112	65.0445
3096	65.2853
3080	65.0908
3064	64.9308
3048	65.1778
3032	65.2035
3016	65.0386
3000	65.2049
2984	65.0142
2968	64.898
2952	64.883
2936	65.0323
2920	64.625
2904	64.9279
2888	64.9281
2872	64.8373
2856	64.8771
2840	65.038
2824	65.0552
2808	65.144
2792	65.1509
2776	65.0692
2760	65.2144
2744	65.1287
2728	64.9482
2712	65.1625
2696	65.0643
2680	65.1099
2664	65.2051
2648	65.0622
2632	65.0708
2616	65.2564
2600	64.9616
2584	65.1803
2568	65.0305
2552	64.9419
2536	65.1348
2520	65.1084
2504	65.1295
2488	65.2138
2472	65.2205
2456	65.2053
2440	65.1873
2424	65.0135
2408	65.1961
2392	65.1347
2376	65.0951
2360	65.1895
2344	65.2181
2328	65.1942
2312	65.3493
2296	65.2613
2280	65.283
2264	65.2257
2248	65.2278
2232	65.158
2216	65.1383
2200	65.0879
2184	65.2094
2168	65.2992
2152	65.3869
2136	65.1642
2120	65.1567
2104	65.1855
2088	64.8437
2072	65.4481
2056	65.2136
2040	65.2043
2024	65.1426
2008	65.2031
1992	65.1357
1976	65.2995
1960	65.3007
1944	65.2289
1928	65.2835
1912	65.1079
1896	65.1137
1880	65.0946
1864	65.2204
1848	65.2096
1832	65.2678
1816	65.1327
1800	65.306
1784	65.2212
1768	65.2515
1752	65.1722
1736	65.015
1720	64.9252
1704	65.2308
1688	65.2213
1672	65.2419
1656	65.0971
1640	65.1842
1624	65.0855
1608	64.9733
1592	64.9621
1576	64.9814
1560	64.8517
1544	65.0995
1528	64.9798
1512	65.0311
1496	65.1401
1480	65.1003
1464	65.0877
1448	64.9923
1432	64.9474
1416	64.8866
1400	65.1678
1384	64.905
1368	64.897
1352	65.0023
1336	64.8107
1320	65.0246
1304	64.9248
1288	64.8648
1272	64.8053
1256	64.9409
1240	64.9401
1224	64.8732
1208	64.8319
1192	64.9121
1176	64.9082
1160	64.8028
1144	64.6884
1128	64.59
1112	64.6877
1096	64.6017
1080	64.3599
1064	64.628
1048	64.881
1032	64.4525
1016	64.5854
1000	64.6142
984	 64.5776
968	 64.4197
952	 64.3364
936	 64.2949
920	 64.9285
904	 64.2242
888	 64.5909
872	 64.5198
856	 64.429
840	 64.08
824	 64.3233
808	 64.2126
792	 63.948
776	 63.6532
760	 64.2423
744	 63.663
728	 63.7993
712	 63.4767
696	 63.2696
680	 63.2774
664	 62.9437
648	 62.5669
632	 62.635
616	 62.5379
600	 62.086
584	 62.3177
568	 62.5299
552	 62.8521
536	 62.0805
520	 61.1555
504	 61.6447
488	 61.0046
472	 60.3297
456	 60.4126
440	 58.4097
424	 54.8695
408	 55.1115
392	 49.3768
376	 131.71
370	 129.203

File: C-4040-8_t100.asc
PE IR       SPECTRUM    SPECTRUM    ASCII       PEDS        1.60
  -1
C-8CB6~1.ASC
17/03/27
22:42:47.00
17/03/27
22:43:14.00
tln
$C-4040-8_t0100$<tbV0>[13.0,10.4,8.0,0.0,27,1,0]
27.028
64

2002,4.07
MIRTGS : RIGHTBACK : INTERNAL 2
MIR : ON : INTERNAL 2
OPTKBR

0.200000
8
8.000000
FILLER
RATIO
SPECTRUM
UNLOCKED 256

DOUBLE
64
COMBINED
1
0
0

0.002000
RATIO

1
0
TRUE
51149
0
LEFT NOT FITTED RIGHT NOT FITTED 0
NONE
NONE
15600
12
4.427000
51148
TRUE
1 0 8 72 0 0 0 0

15798

#HDR
-1
-1
#GR
µM
%T
2.38419e-05
0.0
2.000000
0.002000
12515
8
185.842
49.7641
#DATA
2.000000	 64.9681
2.084000	 65.0751
2.168000	 65.3228
2.252000	 64.2043
2.336000	 64.3325
2.420000	 65.0558
2.504000	 65.2639
2.588000	 64.8251
2.672000	 65.0297
2.756000	 65.1784
2.840000	 65.1965
2.924000	 65.1232
3.008000	 65.3017
3.092000	 64.9782
3.176000	 65.1948
3.260000	 65.2066
3.344000	 65.2999
3.428000	 65.009
3.512000	 65.2263
3.596000	 65.2977
3.680000	 65.2964
3.764000	 65.3959
3.848000	 65.2269
3.932000	 65.3465
4.016000	 65.5048
4.100000	 65.2721
4.184000	 65.3864
4.268000	 65.2712
4.352000	 65.3602
4.436000	 65.3546
4.520000	 65.3766
4.604000	 65.332
4.688000	 65.3633
4.772000	 65.2616
4.856000	 65.2411
4.940000	 65.4445
5.024000	 65.2474
5.108000	 65.3404
5.192000	 65.4537
5.276000	 65.4471
5.359999	 65.4559
5.444000	 65.416
5.528000	 65.3278
5.612000	 65.3781
5.696000	 65.1362
5.780000	 64.9761
5.864000	 65.4161
5.948000	 65.2547
6.032000	 65.3254
6.116000	 65.2439
6.200000	 65.1791
6.284000	 65.2563
6.368000	 65.2325
6.452000	 65.129
6.536000	 65.1558
6.620000	 65.1345
6.704000	 65.2537
6.788000	 65.2297
6.872000	 65.1179
6.956000	 65.063
7.040000	 65.3453
7.124000	 65.4278
7.208000	 65.1436
7.292000	 65.1805
7.376000	 65.2197
7.460000	 65.0764
7.544000	 65.1557
7.628000	 64.8569
7.712000	 65.1826
7.796000	 65.1758
7.880000	 64.976
7.964000	 65.1318
8.048000	 65.0415
8.132000	 65.0721
8.216000	 65.145
8.300000	 65.0217
8.384000	 65.0721
8.468000	 65.0755
8.552000	 65.1401
8.635999	 65.0489
8.719999	 64.894
8.804000	 65.1289
8.888000	 64.9625
8.972000	 65.1501
9.056000	 65.1319
9.140000	 64.8821
9.224000	 64.7716
9.308000	 64.6253
9.391999	 64.7895
9.475999	 64.7908
9.560000	 65.2523
9.644000	 64.6932
9.728000	 64.6745
9.812000	 64.7375
9.896000	 64.6019
9.980000	 64.6791
10.064	64.8331
10.148	65.1732
10.232	64.8069
10.316	64.8904
10.4	64.8669
10.484	64.8041
10.568	64.8982
10.652	64.8787
10.736	65.1075
10.82	65.2613
10.904	65.5611
10.988	64.8405
11.072	64.4504
11.156	64.3657
11.24	64.6156
11.324	64.7351
11.408	64.6955
11.492	64.7299
11.576	64.7249
11.66	64.9153
11.744	64.9137
11.828	64.3427
11.912	64.0624
11.996	64.5823
12.08	64.7021
12.164	64.2018
12.248	64.238
12.332	64.6454
12.416	64.7516
12.5	64.5575
12.584	64.7156
12.668	64.5629
12.752	64.3588
12.836	64.3516
12.92	64.3599
13.004	64.5042
13.088	64.3354
13.172	63.9434
13.256	64.2432
13.34	64.4772
13.424	63.9446
13.508	63.5331
13.592	63.6643
13.676	63.9574
13.76	63.9824
13.844	63.8412
13.928	63.8502
14.012	63.9255
14.096	64.0578
14.18	64.0435
14.264	63.9577
14.348	63.9682
14.432	64.1134
14.516	64.3113
14.6	64.2743
14.684	64.0763
14.768	63.9484
14.852	63.9337
14.936	63.8175
15.02	63.4714
15.104	63.1181
15.188	62.9715
15.272	63.0756
15.356	63.3287
15.44	63.5283
15.524	63.5579
15.608	63.5155
15.692	63.4841
15.776	63.4102
15.86	63.357
15.944	63.3994
16.028	63.4352
16.112	63.3664
16.196	63.2629
16.28	63.294
16.364	63.4647
16.448	63.5093
16.532	63.3146
16.616	63.0963
16.7	62.9709
16.784	62.8449
16.868	62.7221
16.952	62.6687
17.036	62.6555
17.12	62.6855
17.204	62.8333
17.288	63.0733
17.372	63.2373
17.456	63.2032
17.54	63.0532
17.624	62.9788
17.708	63.0495
17.792	63.1751
17.876	63.3014
17.96	63.4308
18.044	63.4536
18.128	63.1986
18.212	62.6965
18.296	62.2317
18.38	62.0781
18.464	62.2684
18.548	62.5981
18.632	62.7822
18.716	62.6686
18.8	62.3408
18.884	62.0003
18.968	61.7753
19.052	61.6708
19.136	61.6682
19.22	61.7794
19.304	61.9902
19.388	62.23
19.472	62.4212
19.556	62.5167
19.64	62.4825
19.724	62.3221
19.808	62.1219
19.892	62.0335
19.976	62.147
20.06	62.3899
20.144	62.6002
20.228	62.6926
20.312	62.7182
20.396	62.7539
20.48	62.7746
20.564	62.6639
20.648	62.3357
20.732	61.8383
20.816	61.34
20.9	61.0116
20.984	60.923
21.068	61.0177
21.152	61.163
21.236	61.2253
21.32	61.134
21.404	60.9
21.488	60.6083
21.572	60.3676
21.656	60.2701
21.74	60.3523
21.824	60.57
21.908	60.8181
21.992	60.9872
22.076	61.0133
22.16	60.903
22.244	60.7153
22.328	60.5106
22.412	60.3265
22.496	60.1553
22.58	59.9677
22.664	59.7259
22.748	59.3863
22.832	58.9285
22.916	58.3801
23	57.8156
23.084	57.3767
23.168	57.2087
23.252	57.3735
23.336	57.8445
23.42	58.4546
23.504	58.9358
23.588	59.0707
23.672	58.784
23.756	58.1034
23.84	57.0745
23.924	55.741
24.008	54.174
24.092	52.5276
24.176	51.053
24.26	50.0442
24.344	49.7852
24.428	50.4725
24.512	52.206
24.596	55.1201
24.68	59.2355
24.764	64.2115
24.848	69.5639
24.932	74.3098
25.016	77.1397
25.1	76.7893
25.184	72.8732
25.268	66.3901
25.352	59.4163
25.436	54.1374
25.52	51.6882
25.604	51.77
25.688	53.5468
25.772	56.1453
25.856	58.9553
25.94	61.1293
26.024	61.651
26.108	59.7464
26.192	56.5699
26.276	55.3217
26.36	60.864
26.444	76.5255
26.528	102.028
26.612	132.56
26.696	160.83
26.78	179.791
26.864	185.836
26.948	179.712
27.028	166.323

File: C-4040-8_t100_cm-1.asc
PE IR       SPECTRUM    SPECTRUM    ASCII       PEDS        1.60
  -1
C-458C~1.ASC
17/03/27
22:42:47.00
17/03/27
22:42:47.00
tln
$C-4040-8_t0100$<tbV0>[13.0,10.4,8.0,0.0,27,1,0]
370
64

2002,4.07
MIRTGS : RIGHTBACK : INTERNAL 2
MIR : ON : INTERNAL 2
OPTKBR

0.200000
8
8.000000
FILLER
RATIO
SPECTRUM
UNLOCKED 256

DOUBLE
64
COMBINED
1
0
0

1.000000
RATIO

1
0
TRUE
51149
0
LEFT NOT FITTED RIGHT NOT FITTED 0
NONE
NONE
15600
12
4.427000
51148
TRUE
1 0 8 72 0 0 0 0

15798

#HDR
-1
-1
#GR
CM-1
%T
2.38419e-05
0.0
5000
-1.000000
4631
8
185.515
49.7656
#DATA
5000	64.9681
4984	64.8911
4968	65.4936
4952	65.2546
4936	64.4109
4920	65.084
4904	64.8912
4888	65.6969
4872	65.0697
4856	64.8806
4840	64.4089
4824	64.5675
4808	65.3017
4792	65.3433
4776	65.6767
4760	65.5361
4744	65.0678
4728	65.391
4712	65.4835
4696	65.5117
4680	65.1739
4664	65.6439
4648	65.8465
4632	65.1089
4616	65.323
4600	64.9499
4584	65.3177
4568	65.2329
4552	65.0038
4536	64.4944
4520	64.3268
4504	64.0875
4488	64.1808
4472	64.1606
4456	63.848
4440	64.2077
4424	64.0464
4408	63.7631
4392	64.1408
4376	70.667
4360	63.8002
4344	63.5109
4328	64.3352
4312	64.3183
4296	64.2781
4280	64.334
4264	65.0409
4248	63.953
4232	64.7512
4216	65.0049
4200	64.6345
4184	64.3409
4168	65.185
4152	64.9445
4136	65.1812
4120	65.2315
4104	65.1536
4088	64.9831
4072	65.1417
4056	65.1803
4040	65.1457
4024	65.3909
4008	65.1013
3992	65.2986
3976	65.2422
3960	65.0096
3944	64.9752
3928	64.6007
3912	65.2215
3896	64.9385
3880	65.106
3864	64.8248
3848	65.0023
3832	64.8059
3816	65.262
3800	65.0528
3784	65.1527
3768	65.2308
3752	65.2103
3736	65.0247
3720	65.5204
3704	65.1848
3688	65.315
3672	65.3313
3656	65.3971
3640	65.1802
3624	65.3704
3608	65.0425
3592	65.4135
3576	65.3054
3560	65.5413
3544	65.0863
3528	65.2465
3512	65.5158
3496	64.9574
3480	64.9571
3464	65.7212
3448	65.0953
3432	65.3619
3416	65.2052
3400	65.0578
3384	64.9123
3368	64.9355
3352	65.1616
3336	65.2182
3320	65.2176
3304	65.1241
3288	65.1107
3272	65.2765
3256	65.0628
3240	65.0139
3224	65.0771
3208	65.3356
3192	64.8452
3176	65.2684
3160	65.352
3144	65.1748
3128	65.7322
3112	65.3625
3096	65.0607
3080	65.1186
3064	65.1311
3048	65.3535
3032	65.4404
3016	65.3206
3000	65.3606
2984	65.0953
2968	65.2572
2952	65.1654
2936	65.2328
2920	65.0284
2904	65.0481
2888	65.0962
2872	65.1813
2856	65.184
2840	65.1217
2824	65.3561
2808	65.2756
2792	65.3664
2776	65.3153
2760	65.2024
2744	65.233
2728	65.4037
2712	65.2531
2696	65.2468
2680	65.284
2664	65.471
2648	65.3525
2632	65.2585
2616	65.2753
2600	65.2309
2584	65.4217
2568	65.2338
2552	65.3594
2536	65.3733
2520	65.2889
2504	65.3271
2488	65.4781
2472	65.3022
2456	65.3419
2440	65.2937
2424	65.4858
2408	65.1162
2392	65.388
2376	65.2617
2360	65.3995
2344	65.2795
2328	65.4371
2312	65.3927
2296	65.3586
2280	65.4076
2264	65.3496
2248	65.322
2232	65.3347
2216	65.4179
2200	65.3344
2184	65.4428
2168	65.3541
2152	65.309
2136	65.3642
2120	65.432
2104	65.4193
2088	65.364
2072	65.6203
2056	64.9888
2040	65.364
2024	65.4458
2008	65.4457
1992	65.2491
1976	65.3234
1960	65.3751
1944	65.318
1928	65.4817
1912	65.2038
1896	65.4564
1880	65.4577
1864	65.4467
1848	65.4936
1832	65.3803
1816	65.2902
1800	65.3158
1784	65.3321
1768	65.3729
1752	65.1228
1736	65.1059
1720	65.2172
1704	65.3783
1688	65.3621
1672	65.3206
1656	65.3154
1640	65.2332
1624	65.2254
1608	65.1896
1592	65.2369
1576	65.2925
1560	65.1172
1544	65.2443
1528	65.1533
1512	65.1591
1496	65.3025
1480	65.1488
1464	65.2132
1448	65.2017
1432	64.9294
1416	65.4014
1400	65.2649
1384	65.2157
1368	65.1643
1352	65.2256
1336	64.9711
1320	65.0766
1304	65.1112
1288	65.1183
1272	65.0773
1256	65.1261
1240	65.0202
1224	65.0915
1208	65.0938
1192	65.0896
1176	65.1377
1160	65.1051
1144	64.9925
1128	64.8761
1112	65.0538
1096	64.9932
1080	64.6779
1064	64.7886
1048	65.2256
1032	64.6555
1016	64.6786
1000	64.7297
984	 65.1527
968	 64.9034
952	 64.8089
936	 64.9613
920	 65.5339
904	 64.5319
888	 64.6554
872	 64.7662
856	 64.9376
840	 64.0495
824	 64.338
808	 64.7752
792	 64.6949
776	 64.3455
760	 63.9731
744	 63.8198
728	 64.0121
712	 63.9785
696	 63.9878
680	 64.0303
664	 63.2859
648	 63.5167
632	 63.3693
616	 63.2522
600	 63.0147
584	 62.6887
568	 62.9816
552	 63.2545
536	 62.7805
520	 61.8018
504	 62.0651
488	 62.7698
472	 61.2048
456	 60.8735
440	 59.481
424	 59.0732
408	 52.1459
392	 51.8339
376	 126.66
370	 166.323

File: C-4040-8_t101.asc
PE IR       SPECTRUM    SPECTRUM    ASCII       PEDS        1.60
  -1
C-80C6~1.ASC
17/03/27
22:47:24.00
17/03/27
22:47:50.00
tln
$C-4040-8_t0101$<tbV0>[10.4,10.4,8.0,0.0,27,1,0]
27.028
64

2002,4.07
MIRTGS : RIGHTBACK : INTERNAL 2
MIR : ON : INTERNAL 2
OPTKBR

0.200000
8
8.000000
FILLER
RATIO
SPECTRUM
UNLOCKED 256

DOUBLE
64
COMBINED
1
0
0

0.002000
RATIO

1
0
TRUE
51149
0
LEFT NOT FITTED RIGHT NOT FITTED 0
NONE
NONE
15600
12
4.427000
51148
TRUE
1 0 8 72 0 0 0 0

15798

#HDR
-1
-1
#GR
µM
%T
2.38419e-05
0.0
2.000000
0.002000
12515
8
200
41.6779
#DATA
2.000000	 65.4205
2.084000	 65.4382
2.168000	 64.9114
2.252000	 63.7266
2.336000	 64.0589
2.420000	 65.0922
2.504000	 65.1022
2.588000	 65.287
2.672000	 65.266
2.756000	 65.1696
2.840000	 65.1904
2.924000	 65.0173
3.008000	 65.1303
3.092000	 65.0358
3.176000	 65.2084
3.260000	 65.1813
3.344000	 65.3794
3.428000	 64.7645
3.512000	 64.7831
3.596000	 65.2782
3.680000	 65.0847
3.764000	 65.2536
3.848000	 65.2118
3.932000	 65.1029
4.016000	 65.4335
4.100000	 65.0341
4.184000	 65.2677
4.268000	 65.1773
4.352000	 65.2075
4.436000	 65.3392
4.520000	 65.0964
4.604000	 65.2021
4.688000	 65.3204
4.772000	 65.2107
4.856000	 65.1765
4.940000	 65.2599
5.024000	 65.1691
5.108000	 65.2802
5.192000	 65.2644
5.276000	 65.1713
5.359999	 65.2335
5.444000	 65.3627
5.528000	 65.2108
5.612000	 65.1511
5.696000	 65.0549
5.780000	 64.7376
5.864000	 65.2742
5.948000	 65.0776
6.032000	 65.1162
6.116000	 65.1285
6.200000	 65.158
6.284000	 65.0166
6.368000	 64.9242
6.452000	 65.1011
6.536000	 64.9743
6.620000	 64.8945
6.704000	 65.0853
6.788000	 65.1072
6.872000	 64.9431
6.956000	 64.9783
7.040000	 65.0429
7.124000	 65.1905
7.208000	 65.0814
7.292000	 64.9741
7.376000	 65.048
7.460000	 64.9584
7.544000	 64.9825
7.628000	 64.7385
7.712000	 65.0463
7.796000	 64.9734
7.880000	 64.9118
7.964000	 64.9583
8.048000	 65.0131
8.132000	 64.8636
8.216000	 64.9444
8.300000	 64.9555
8.384000	 64.913
8.468000	 64.8378
8.552000	 64.8365
8.635999	 64.8465
8.719999	 64.7607
8.804000	 64.6513
8.888000	 64.7864
8.972000	 64.9179
9.056000	 64.7219
9.140000	 64.7035
9.224000	 64.5637
9.308000	 64.821
9.391999	 64.7282
9.475999	 64.6348
9.560000	 64.7645
9.644000	 64.7103
9.728000	 64.6198
9.812000	 65.0207
9.896000	 64.6112
9.980000	 64.6253
10.064	64.7483
10.148	64.8925
10.232	64.5513
10.316	64.5583
10.4	64.7437
10.484	64.6588
10.568	64.5801
10.652	64.5137
10.736	64.9207
10.82	65.0277
10.904	65.0658
10.988	64.9835
11.072	64.2936
11.156	63.9664
11.24	64.4445
11.324	64.5352
11.408	64.1355
11.492	64.4828
11.576	64.682
11.66	64.7132
11.744	64.6935
11.828	64.5169
11.912	64.3704
11.996	64.2639
12.08	64.3449
12.164	64.2934
12.248	64.0723
12.332	64.2553
12.416	64.2976
12.5	64.1517
12.584	64.2301
12.668	64.0829
12.752	63.7812
12.836	63.7932
12.92	64.0292
13.004	64.1266
13.088	63.9611
13.172	63.9585
13.256	64.0946
13.34	64.1026
13.424	64.281
13.508	64.0186
13.592	63.1241
13.676	63.0788
13.76	63.7898
13.844	64.1264
13.928	63.8253
14.012	63.4229
14.096	63.4185
14.18	63.4844
14.264	63.4543
14.348	63.2458
14.432	63.058
14.516	63.3154
14.6	63.5941
14.684	63.4851
14.768	63.2854
14.852	63.2099
14.936	63.197
15.02	63.1474
15.104	62.9397
15.188	62.6962
15.272	62.7324
15.356	62.9696
15.44	63.083
15.524	63.0268
15.608	63.0118
15.692	63.151
15.776	63.2976
15.86	63.3432
15.944	63.331
16.028	63.2555
16.112	63.0858
16.196	62.8687
16.28	62.6849
16.364	62.6179
16.448	62.7154
16.532	62.9441
16.616	63.1536
16.7	63.1404
16.784	62.8773
16.868	62.5803
16.952	62.42
17.036	62.348
17.12	62.2647
17.204	62.1597
17.288	62.0937
17.372	62.1431
17.456	62.3459
17.54	62.6506
17.624	62.9095
17.708	62.9551
17.792	62.7581
17.876	62.5252
17.96	62.4956
18.044	62.6574
18.128	62.7894
18.212	62.734
18.296	62.5265
18.38	62.313
18.464	62.2152
18.548	62.2421
18.632	62.2755
18.716	62.1816
18.8	61.9382
18.884	61.6249
18.968	61.3217
19.052	61.0764
19.136	60.9313
19.22	60.9142
19.304	61.0022
19.388	61.141
19.472	61.308
19.556	61.51
19.64	61.7074
19.724	61.7845
19.808	61.6518
19.892	61.3654
19.976	61.1197
20.06	61.0937
20.144	61.3094
20.228	61.6368
20.312	61.9144
20.396	62.0533
20.48	62.0541
20.564	61.9653
20.648	61.8424
20.732	61.7376
20.816	61.6952
20.9	61.724
20.984	61.7795
21.068	61.7802
21.152	61.6594
21.236	61.4007
21.32	61.0331
21.404	60.5935
21.488	60.1349
21.572	59.7365
21.656	59.4992
21.74	59.5038
21.824	59.7461
21.908	60.1118
21.992	60.4274
22.076	60.5425
22.16	60.4156
22.244	60.1435
22.328	59.8713
22.412	59.6769
22.496	59.5001
22.58	59.1845
22.664	58.5908
22.748	57.7233
22.832	56.7609
22.916	55.9839
23	55.6804
23.084	55.9989
23.168	56.9003
23.252	58.1722
23.336	59.4748
23.42	60.4833
23.504	60.9543
23.588	60.823
23.672	60.2167
23.756	59.4218
23.84	58.7289
23.924	58.3926
24.008	58.5095
24.092	58.9415
24.176	59.3904
24.26	59.5269
24.344	59.0613
24.428	57.8588
24.512	55.9579
24.596	53.6151
24.68	51.165
24.764	48.8488
24.848	46.9415
24.932	45.4994
25.016	44.3332
25.1	43.2571
25.184	42.2732
25.268	41.7017
25.352	42.11
25.436	44.1294
25.52	48.121
25.604	53.9631
25.688	60.9694
25.772	67.7751
25.856	72.6679
25.94	74.3137
26.024	72.2985
26.108	67.4978
26.192	61.546
26.276	56.5751
26.36	54.4503
26.444	57.3891
26.528	67.3597
26.612	85.8287
26.696	112.054
26.78	142.419
26.864	170.928
26.948	191.753
27.028	200