Folder: Masteroppgave/Bakgrunnsmateriale/MATLAB/FTIR/ftir_data/subBb/Mapping_121 (part 51)

File: C-4040-8_t119.asc
PE IR       SPECTRUM    SPECTRUM    ASCII       PEDS        1.60
  -1
C-80E8~1.ASC
17/03/28
00:31:10.00
17/03/28
00:31:36.00
tln
$C-4040-8_t0119$<tbV0>[-7.8,13.0,8.0,0.0,27,1,0]
27.028
64

2002,4.07
MIRTGS : RIGHTBACK : INTERNAL 2
MIR : ON : INTERNAL 2
OPTKBR

0.200000
8
8.000000
FILLER
RATIO
SPECTRUM
UNLOCKED 256

DOUBLE
64
COMBINED
1
0
0

0.002000
RATIO

1
0
TRUE
51149
0
LEFT NOT FITTED RIGHT NOT FITTED 0
NONE
NONE
15600
12
4.427000
51148
TRUE
1 0 8 72 0 0 0 0

15798

#HDR
-1
-1
#GR
µM
%T
2.38419e-05
0.0
2.000000
0.002000
12515
8
72.9892
26.0724
#DATA
2.000000	 64.6321
2.084000	 64.8856
2.168000	 64.2991
2.252000	 65.1541
2.336000	 65.5362
2.420000	 64.9573
2.504000	 64.9661
2.588000	 64.8689
2.672000	 65.1977
2.756000	 65.1893
2.840000	 65.0989
2.924000	 64.988
3.008000	 64.8672
3.092000	 65.029
3.176000	 64.9172
3.260000	 65.0469
3.344000	 65.2692
3.428000	 64.7178
3.512000	 64.8479
3.596000	 65.1651
3.680000	 65.0255
3.764000	 65.0273
3.848000	 65.1151
3.932000	 65.2215
4.016000	 65.1883
4.100000	 65.0851
4.184000	 65.1164
4.268000	 65.1485
4.352000	 65.1702
4.436000	 65.0854
4.520000	 65.1439
4.604000	 65.0683
4.688000	 64.9868
4.772000	 65.1134
4.856000	 65.3379
4.940000	 65.1933
5.024000	 65.0366
5.108000	 65.1305
5.192000	 65.0167
5.276000	 65.099
5.359999	 64.8298
5.444000	 64.9103
5.528000	 64.763
5.612000	 64.9397
5.696000	 64.9315
5.780000	 64.5627
5.864000	 64.9454
5.948000	 64.9195
6.032000	 64.9116
6.116000	 64.9913
6.200000	 64.8685
6.284000	 64.859
6.368000	 64.8563
6.452000	 64.8006
6.536000	 64.8972
6.620000	 64.9071
6.704000	 65.0069
6.788000	 65.0151
6.872000	 64.7332
6.956000	 64.7742
7.040000	 64.8408
7.124000	 64.6998
7.208000	 64.876
7.292000	 64.6409
7.376000	 64.8183
7.460000	 64.7192
7.544000	 64.8947
7.628000	 64.7458
7.712000	 64.7323
7.796000	 64.6721
7.880000	 64.5579
7.964000	 64.8428
8.048000	 64.6232
8.132000	 64.6094
8.216000	 64.5811
8.300000	 64.7176
8.384000	 64.5378
8.468000	 64.7614
8.552000	 64.5729
8.635999	 64.4719
8.719999	 64.5959
8.804000	 64.6531
8.888000	 64.4766
8.972000	 64.5768
9.056000	 64.8102
9.140000	 64.3107
9.224000	 64.4318
9.308000	 64.4206
9.391999	 64.3566
9.475999	 64.2643
9.560000	 64.4912
9.644000	 64.5083
9.728000	 64.3132
9.812000	 64.2342
9.896000	 64.3168
9.980000	 64.2101
10.064	64.3984
10.148	64.5295
10.232	64.1876
10.316	64.2769
10.4	64.2286
10.484	64.3372
10.568	64.3036
10.652	63.9714
10.736	64.2261
10.82	64.2106
10.904	64.2177
10.988	64.432
11.072	64.3764
11.156	64.0192
11.24	63.9341
11.324	63.7705
11.408	63.8919
11.492	63.4251
11.576	63.5228
11.66	63.5669
11.744	63.6244
11.828	63.6194
11.912	63.746
11.996	63.5991
12.08	63.1107
12.164	64.2367
12.248	64.6796
12.332	63.8306
12.416	63.1997
12.5	63.314
12.584	63.4302
12.668	63.4157
12.752	63.4694
12.836	63.4931
12.92	63.4571
13.004	63.5888
13.088	63.2778
13.172	63.0436
13.256	63.2035
13.34	63.5028
13.424	63.8683
13.508	63.8352
13.592	63.5985
13.676	63.2411
13.76	62.9646
13.844	63.039
13.928	62.9708
14.012	62.6172
14.096	62.4711
14.18	62.5563
14.264	62.6132
14.348	62.6594
14.432	62.7684
14.516	62.8674
14.6	62.6105
14.684	62.2212
14.768	62.2156
14.852	62.4327
14.936	62.6623
15.02	62.8152
15.104	62.6058
15.188	62.114
15.272	61.8145
15.356	61.8365
15.44	61.9172
15.524	61.9192
15.608	61.8971
15.692	61.8279
15.776	61.6643
15.86	61.5143
15.944	61.5581
16.028	61.7516
16.112	61.8588
16.196	61.7957
16.28	61.6543
16.364	61.544
16.448	61.5834
16.532	61.716
16.616	61.7023
16.7	61.5141
16.784	61.352
16.868	61.2729
16.952	61.2098
17.036	61.1588
17.12	61.1071
17.204	61.0135
17.288	60.8966
17.372	60.8139
17.456	60.7763
17.54	60.7557
17.624	60.7373
17.708	60.7295
17.792	60.7437
17.876	60.7709
17.96	60.7952
18.044	60.7864
18.128	60.6839
18.212	60.5097
18.296	60.4337
18.38	60.5895
18.464	60.8623
18.548	60.9947
18.632	60.8806
18.716	60.6447
18.8	60.4597
18.884	60.3859
18.968	60.4005
19.052	60.4418
19.136	60.3976
19.22	60.1517
19.304	59.7264
19.388	59.3125
19.472	59.086
19.556	59.0464
19.64	59.068
19.724	59.0891
19.808	59.1576
19.892	59.3076
19.976	59.4495
20.06	59.4475
20.144	59.2907
20.228	59.1389
20.312	59.1808
20.396	59.4697
20.48	59.8912
20.564	60.2661
20.648	60.4634
20.732	60.4368
20.816	60.2071
20.9	59.8389
20.984	59.4357
21.068	59.1059
21.152	58.9103
21.236	58.8476
21.32	58.8995
21.404	59.0722
21.488	59.378
21.572	59.7708
21.656	60.1256
21.74	60.287
21.824	60.1571
21.908	59.7526
21.992	59.1722
22.076	58.5326
22.16	57.9331
22.244	57.4566
22.328	57.1821
22.412	57.1586
22.496	57.3698
22.58	57.7212
22.664	58.0859
22.748	58.356
22.832	58.4704
22.916	58.4129
23	58.1974
23.084	57.8599
23.168	57.4482
23.252	57.0344
23.336	56.7444
23.42	56.697
23.504	56.923
23.588	57.3729
23.672	57.9408
23.756	58.4608
23.84	58.8482
23.924	59.1252
24.008	59.4403
24.092	60.0124
24.176	60.9584
24.26	62.1428
24.344	63.2173
24.428	63.8668
24.512	64.0039
24.596	63.9269
24.68	64.231
24.764	65.4848
24.848	67.8305
24.932	70.6495
25.016	72.6828
25.1	72.5771
25.184	69.4278
25.268	63.3296
25.352	55.3075
25.436	46.8489
25.52	39.2647
25.604	33.287
25.688	29.1416
25.772	26.7593
25.856	26.0817
25.94	27.149
26.024	29.9552
26.108	34.2053
26.192	39.2634
26.276	44.2615
26.36	48.2383
26.444	50.4818
26.528	50.7458
26.612	49.3513
26.696	46.9845
26.78	44.434
26.864	42.3678
26.948	41.1481
27.028	40.7348

File: C-4040-8_t119_cm-1.asc
PE IR       SPECTRUM    SPECTRUM    ASCII       PEDS        1.60
  -1
C-4E09~1.ASC
17/03/28
00:31:10.00
17/03/28
00:31:10.00
tln
$C-4040-8_t0119$<tbV0>[-7.8,13.0,8.0,0.0,27,1,0]
370
64

2002,4.07
MIRTGS : RIGHTBACK : INTERNAL 2
MIR : ON : INTERNAL 2
OPTKBR

0.200000
8
8.000000
FILLER
RATIO
SPECTRUM
UNLOCKED 256

DOUBLE
64
COMBINED
1
0
0

1.000000
RATIO

1
0
TRUE
51149
0
LEFT NOT FITTED RIGHT NOT FITTED 0
NONE
NONE
15600
12
4.427000
51148
TRUE
1 0 8 72 0 0 0 0

15798

#HDR
-1
-1
#GR
CM-1
%T
2.38419e-05
0.0
5000
-1.000000
4631
8
72.9755
26.0785
#DATA
5000	64.6321
4984	65.3532
4968	64.766
4952	64.6107
4936	64.7684
4920	64.6542
4904	65.3867
4888	65.6356
4872	64.5936
4856	65.1184
4840	64.6642
4824	64.5901
4808	64.7758
4792	64.5178
4776	64.6504
4760	64.7844
4744	65.1
4728	64.5705
4712	65.2517
4696	64.7324
4680	64.4676
4664	64.8941
4648	64.6194
4632	64.6855
4616	64.1194
4600	64.9999
4584	65.0617
4568	64.9497
4552	65.3136
4536	65.5206
4520	64.7332
4504	65.1225
4488	65.2645
4472	65.2247
4456	66.2186
4440	65.1351
4424	65.6245
4408	66.0302
4392	49.0635
4376	66.5357
4360	66.2747
4344	65.7059
4328	65.415
4312	65.4583
4296	65.0847
4280	65.5342
4264	65
4248	65.3062
4232	65.2839
4216	65.4745
4200	64.8564
4184	64.1171
4168	64.4739
4152	64.8542
4136	64.8514
4120	65.0675
4104	64.9436
4088	65.115
4072	65.398
4056	64.8206
4040	64.8389
4024	64.7606
4008	64.9812
3992	65.0034
3976	65.0489
3960	65.0264
3944	65.3186
3928	65.0354
3912	64.8937
3896	65.1077
3880	64.9841
3864	64.8693
3848	65.1212
3832	64.9925
3816	64.9653
3800	65.169
3784	65.47
3768	65.0933
3752	65.0401
3736	65.1125
3720	65.082
3704	65.1401
3688	65.1477
3672	65.0126
3656	65.1134
3640	65.0559
3624	65.155
3608	64.9858
3592	64.928
3576	65.0356
3560	65.0011
3544	65.0183
3528	64.8959
3512	64.9228
3496	65.1405
3480	64.8575
3464	65.1036
3448	65.0436
3432	65.1382
3416	64.9444
3400	65.1857
3384	65.0603
3368	65.2159
3352	64.8519
3336	64.9997
3320	64.8512
3304	64.8731
3288	65.141
3272	64.9493
3256	65.279
3240	64.8515
3224	65.2756
3208	65.0222
3192	64.9868
3176	65.0588
3160	64.9041
3144	64.9151
3128	65.0039
3112	65.2681
3096	65.2287
3080	65.0843
3064	65.0262
3048	65.0992
3032	65.0626
3016	65.1011
3000	65.3117
2984	65.0545
2968	65.0528
2952	64.9373
2936	64.6784
2920	64.7324
2904	65.0179
2888	64.878
2872	65.1133
2856	64.8295
2840	65.0208
2824	65.0063
2808	65.0497
2792	65.0159
2776	65.0817
2760	65.1069
2744	64.9618
2728	65.0142
2712	65.0443
2696	65.0243
2680	65.1678
2664	65.0933
2648	65.0374
2632	64.9846
2616	65.1132
2600	65.1195
2584	65.0997
2568	65.1028
2552	65.2863
2536	65.1303
2520	65.1788
2504	65.1387
2488	65.1602
2472	65.2144
2456	65.1432
2440	65.0651
2424	65.1625
2408	65.3648
2392	65.1302
2376	65.1957
2360	65.2021
2344	65.1667
2328	65.2302
2312	65.0903
2296	65.1187
2280	65.0271
2264	65.2177
2248	65.1194
2232	64.9513
2216	65.1286
2200	65.2123
2184	65.1591
2168	65.1919
2152	65.1965
2136	65.0198
2120	65.0669
2104	65.2354
2088	65.071
2072	65.2356
2056	65.1219
2040	65.1049
2024	65.192
2008	65.1433
1992	64.9804
1976	65.2513
1960	65.1093
1944	65.0302
1928	65.0042
1912	65.154
1896	65.0972
1880	65.1621
1864	64.8078
1848	65.0454
1832	65.0227
1816	64.9683
1800	65.0616
1784	64.8962
1768	65.0262
1752	64.967
1736	64.7763
1720	65.0568
1704	64.9522
1688	64.9604
1672	64.9094
1656	64.9158
1640	64.9131
1624	64.8453
1608	64.8983
1592	64.8589
1576	64.8701
1560	64.8714
1544	64.8755
1528	64.9077
1512	64.8923
1496	64.9722
1480	65.0301
1464	64.9508
1448	65.0157
1432	64.8763
1416	64.7945
1400	64.6215
1384	64.846
1368	64.7783
1352	64.7706
1336	64.8255
1320	64.8384
1304	64.6715
1288	64.6156
1272	64.5587
1256	64.8488
1240	64.6228
1224	64.6343
1208	64.7003
1192	64.5233
1176	64.5824
1160	64.5189
1144	64.6681
1128	64.517
1112	64.5964
1096	64.3445
1080	64.2454
1064	64.3304
1048	64.4005
1032	64.473
1016	64.2087
1000	64.1944
984	 64.4887
968	 64.2977
952	 64.3436
936	 63.9856
920	 64.1553
904	 64.4206
888	 63.8573
872	 63.5979
856	 63.5267
840	 63.7168
824	 63.7885
808	 63.3648
792	 63.4374
776	 63.4408
760	 63.0455
744	 63.8994
728	 63.0027
712	 62.5155
696	 62.6765
680	 62.1777
664	 62.7712
648	 61.9131
632	 61.5655
616	 61.7356
600	 61.597
584	 61.1043
568	 60.7409
552	 60.7054
536	 60.8147
520	 60.1047
504	 59.2095
488	 59.9503
472	 58.8699
456	 59.6138
440	 58.3025
424	 57.3535
408	 64.0042
392	 40.0716
376	 49.7149
370	 40.7348

File: C-4040-8_t120.asc
PE IR       SPECTRUM    SPECTRUM    ASCII       PEDS        1.60
  -1
C-8CB2~1.ASC
17/03/28
00:35:47.00
17/03/28
00:36:14.00
tln
$C-4040-8_t0120$<tbV0>[-10.4,13.0,8.0,0.0,27,1,0]
27.028
64

2002,4.07
MIRTGS : RIGHTBACK : INTERNAL 2
MIR : ON : INTERNAL 2
OPTKBR

0.200000
8
8.000000
FILLER
RATIO
SPECTRUM
UNLOCKED 256

DOUBLE
64
COMBINED
1
0
0

0.002000
RATIO

1
0
TRUE
51149
0
LEFT NOT FITTED RIGHT NOT FITTED 0
NONE
NONE
15600
12
4.427000
51148
TRUE
1 0 8 72 0 0 0 0

15798

#HDR
-1
-1
#GR
µM
%T
2.38419e-05
0.0
2.000000
0.002000
12515
8
70.9835
13.135
#DATA
2.000000	 64.4855
2.084000	 64.481
2.168000	 64.5799
2.252000	 64.6371
2.336000	 64.9218
2.420000	 64.9747
2.504000	 64.9304
2.588000	 64.9805
2.672000	 65.1019
2.756000	 64.993
2.840000	 65.1672
2.924000	 65.0545
3.008000	 64.7057
3.092000	 64.9448
3.176000	 65.0323
3.260000	 65.0329
3.344000	 65.266
3.428000	 64.7059
3.512000	 64.8887
3.596000	 65.0963
3.680000	 64.9845
3.764000	 65.0468
3.848000	 65.0969
3.932000	 65.2128
4.016000	 65.0984
4.100000	 65.0396
4.184000	 65.1959
4.268000	 65.1214
4.352000	 65.0611
4.436000	 65.0743
4.520000	 65.2068
4.604000	 65.2123
4.688000	 64.9023
4.772000	 65.1907
4.856000	 65.1165
4.940000	 65.2466
5.024000	 65.0976
5.108000	 65.0947
5.192000	 65.0717
5.276000	 64.9363
5.359999	 65.0482
5.444000	 64.929
5.528000	 64.8912
5.612000	 65.0845
5.696000	 64.9256
5.780000	 64.6001
5.864000	 65.214
5.948000	 64.8809
6.032000	 64.9193
6.116000	 65.0128
6.200000	 64.9232
6.284000	 64.8581
6.368000	 64.8591
6.452000	 64.8878
6.536000	 64.9849
6.620000	 64.929
6.704000	 64.927
6.788000	 64.9403
6.872000	 65.0828
6.956000	 64.9548
7.040000	 64.916
7.124000	 64.7895
7.208000	 64.7385
7.292000	 64.7339
7.376000	 64.816
7.460000	 64.6893
7.544000	 64.8587
7.628000	 64.7287
7.712000	 64.6479
7.796000	 64.8336
7.880000	 64.6494
7.964000	 64.7504
8.048000	 64.67
8.132000	 64.6973
8.216000	 64.6151
8.300000	 64.5588
8.384000	 64.6316
8.468000	 64.7089
8.552000	 64.5821
8.635999	 64.5259
8.719999	 64.4499
8.804000	 64.5212
8.888000	 64.2921
8.972000	 64.7144
9.056000	 64.8999
9.140000	 64.3229
9.224000	 64.536
9.308000	 64.6099
9.391999	 64.6452
9.475999	 64.4351
9.560000	 64.7179
9.644000	 64.5968
9.728000	 64.2768
9.812000	 63.985
9.896000	 64.0952
9.980000	 64.5183
10.064	64.2448
10.148	64.2865
10.232	64.3952
10.316	64.3111
10.4	64.3199
10.484	64.1402
10.568	64.1751
10.652	64.351
10.736	64.1643
10.82	64.1098
10.904	64.1181
10.988	64.4643
11.072	64.601
11.156	64.288
11.24	63.9916
11.324	63.8513
11.408	63.8577
11.492	63.7325
11.576	63.3896
11.66	63.1816
11.744	63.1082
11.828	63.4333
11.912	64.0304
11.996	63.7861
12.08	63.6028
12.164	63.5104
12.248	64.2231
12.332	63.914
12.416	63.6313
12.5	63.711
12.584	64.0387
12.668	63.6757
12.752	63.1266
12.836	63.2419
12.92	63.2142
13.004	63.3352
13.088	63.2173
13.172	63.1988
13.256	63.4279
13.34	63.4882
13.424	63.4653
13.508	63.7338
13.592	63.6626
13.676	63.1627
13.76	63.0151
13.844	63.2084
13.928	63.0093
14.012	62.5204
14.096	62.2473
14.18	62.2851
14.264	62.5474
14.348	62.6807
14.432	62.7289
14.516	62.91
14.6	62.7708
14.684	62.4224
14.768	62.3262
14.852	62.4727
14.936	62.7898
15.02	62.8416
15.104	62.4562
15.188	62.2114
15.272	62.3667
15.356	62.5654
15.44	62.5089
15.524	62.3642
15.608	62.4729
15.692	62.696
15.776	62.6076
15.86	62.2988
15.944	62.1776
16.028	62.2195
16.112	62.1567
16.196	62.0095
16.28	61.9354
16.364	61.9289
16.448	61.9029
16.532	61.773
16.616	61.5287
16.7	61.3078
16.784	61.254
16.868	61.338
16.952	61.42
17.036	61.3954
17.12	61.3
17.204	61.2686
17.288	61.2745
17.372	61.1515
17.456	60.9383
17.54	60.8843
17.624	61.0518
17.708	61.26
17.792	61.4025
17.876	61.5145
17.96	61.6251
18.044	61.711
18.128	61.7144
18.212	61.6086
18.296	61.4789
18.38	61.4638
18.464	61.5677
18.548	61.621
18.632	61.4993
18.716	61.271
18.8	61.0744
18.884	60.9605
18.968	60.9059
19.052	60.9033
19.136	60.9552
19.22	61.0063
19.304	60.946
19.388	60.7071
19.472	60.3356
19.556	59.9528
19.64	59.6614
19.724	59.4767
19.808	59.3408
19.892	59.1869
19.976	59.0011
20.06	58.8369
20.144	58.7715
20.228	58.834
20.312	58.9571
20.396	59.0223
20.48	58.9705
20.564	58.8698
20.648	58.8609
20.732	59.0294
20.816	59.3265
20.9	59.6083
20.984	59.743
21.068	59.6917
21.152	59.5093
21.236	59.2942
21.32	59.1423
21.404	59.1204
21.488	59.2526
21.572	59.5127
21.656	59.8203
21.74	60.0679
21.824	60.1764
21.908	60.1296
21.992	59.9567
22.076	59.699
22.16	59.391
22.244	59.0736
22.328	58.8018
22.412	58.6208
22.496	58.5257
22.58	58.4666
22.664	58.3974
22.748	58.3264
22.832	58.3196
22.916	58.4589
23	58.7298
23.084	59.0264
23.168	59.157
23.252	58.9494
23.336	58.353
23.42	57.5731
23.504	56.8986
23.588	56.5625
23.672	56.6373
23.756	56.9915
23.84	57.3825
23.924	57.5905
24.008	57.5435
24.092	57.3409
24.176	57.1762
24.26	57.2283
24.344	57.6511
24.428	58.5967
24.512	60.3106
24.596	63.0065
24.68	66.4281
24.764	69.5851
24.848	70.9835
24.932	69.2485
25.016	64.0058
25.1	56.1287
25.184	47.5345
25.268	40.3591
25.352	36.1154
25.436	35.3684
25.52	37.617
25.604	41.7597
25.688	46.2712
25.772	49.7052
25.856	51.1517
25.94	50.3581
26.024	47.8157
26.108	44.5708
26.192	41.8811
26.276	40.7283
26.36	41.5534
26.444	43.9116
26.528	46.58
26.612	48.0329
26.696	46.8173
26.78	42.0621
26.864	33.859
26.948	23.3657
27.028	13.135

File: C-4040-8_t120_cm-1.asc
PE IR       SPECTRUM    SPECTRUM    ASCII       PEDS        1.60
  -1
C-458B~1.ASC
17/03/28
00:35:47.00
17/03/28
00:35:47.00
tln
$C-4040-8_t0120$<tbV0>[-10.4,13.0,8.0,0.0,27,1,0]
370
64

2002,4.07
MIRTGS : RIGHTBACK : INTERNAL 2
MIR : ON : INTERNAL 2
OPTKBR

0.200000
8
8.000000
FILLER
RATIO
SPECTRUM
UNLOCKED 256

DOUBLE
64
COMBINED
1
0
0

1.000000
RATIO

1
0
TRUE
51149
0
LEFT NOT FITTED RIGHT NOT FITTED 0
NONE
NONE
15600
12
4.427000
51148
TRUE
1 0 8 72 0 0 0 0

15798

#HDR
-1
-1
#GR
CM-1
%T
2.38419e-05
0.0
5000
-1.000000
4631
8
70.8051
13.135
#DATA
5000	64.4855
4984	65.2331
4968	64.6596
4952	63.7349
4936	64.7444
4920	64.5165
4904	64.5876
4888	65.5173
4872	63.9725
4856	64.7772
4840	64.6061
4824	64.6432
4808	64.8652
4792	64.2517
4776	65.0773
4760	64.2809
4744	64.5582
4728	64.5993
4712	65.3279
4696	64.9294
4680	64.6523
4664	64.8695
4648	64.7504
4632	64.877
4616	64.5066
4600	64.815
4584	64.5633
4568	64.7496
4552	64.9606
4536	64.9192
4520	64.7841
4504	65.1891
4488	64.6265
4472	64.9387
4456	64.9064
4440	64.6559
4424	64.9301
4408	65.32
4392	59.7778
4376	66.5046
4360	65.4581
4344	65.1728
4328	65.0633
4312	65.2438
4296	64.93
4280	64.8663
4264	64.5814
4248	64.872
4232	64.7896
4216	64.9945
4200	64.6834
4184	64.3205
4168	63.3824
4152	64.5696
4136	64.7228
4120	64.9051
4104	64.5948
4088	64.9441
4072	65.0083
4056	64.8729
4040	64.7896
4024	64.7676
4008	64.8244
3992	64.914
3976	65.0029
3960	64.9075
3944	65.0885
3928	64.9322
3912	64.7746
3896	64.6166
3880	65.0726
3864	64.9804
3848	65.0285
3832	64.699
3816	64.9724
3800	64.9913
3784	65.0322
3768	65.0893
3752	64.7308
3736	65.2236
3720	64.9822
3704	64.9933
3688	64.9897
3672	64.9557
3656	64.8762
3640	64.9547
3624	65.0361
3608	65.0567
3592	65.0259
3576	64.9562
3560	64.9196
3544	65.0995
3528	65.0737
3512	64.9373
3496	65.0928
3480	65.0024
3464	64.91
3448	64.8797
3432	64.805
3416	64.93
3400	64.9312
3384	65.0529
3368	64.9214
3352	64.9129
3336	64.9454
3320	64.7155
3304	64.8669
3288	64.9895
3272	64.7703
3256	65.0306
3240	64.8599
3224	64.9351
3208	64.7993
3192	64.8005
3176	65.0832
3160	64.9399
3144	65.0378
3128	64.8847
3112	65.0921
3096	65.0668
3080	65.1467
3064	65.102
3048	65.0395
3032	65.0843
3016	65.1164
3000	65.2632
2984	65.0996
2968	64.9757
2952	64.7942
2936	64.8366
2920	64.7281
2904	64.8624
2888	64.7466
2872	64.8967
2856	64.8241
2840	64.8414
2824	65.1578
2808	65.2116
2792	65.011
2776	64.9907
2760	65.0199
2744	64.9975
2728	65.1062
2712	65.065
2696	64.962
2680	65.194
2664	65.134
2648	65.0217
2632	65.0623
2616	65.0426
2600	65.1013
2584	65.0856
2568	65.1659
2552	65.3131
2536	65.1873
2520	65.146
2504	65.0302
2488	65.1337
2472	65.0619
2456	65.2134
2440	65.0444
2424	64.8358
2408	65.5726
2392	65.1586
2376	65.1808
2360	65.1424
2344	65.1471
2328	65.1035
2312	65.0429
2296	65.0651
2280	65.0393
2264	65.105
2248	65.1123
2232	65.1885
2216	65.1203
2200	65.3451
2184	65.2448
2168	65.1914
2152	65.0595
2136	64.9423
2120	65.0823
2104	65.081
2088	65.2195
2072	65.241
2056	65.0148
2040	65.0687
2024	65.2399
2008	65.1509
1992	65.0559
1976	65.1043
1960	65.1463
1944	65.0811
1928	65.0591
1912	65.1461
1896	64.9302
1880	65.2165
1864	65.0434
1848	65.2056
1832	65.0125
1816	65.1009
1800	65.0717
1784	65.0317
1768	65.1368
1752	64.8696
1736	64.7816
1720	64.8542
1704	65.1758
1688	64.8324
1672	65.1426
1656	64.9158
1640	64.9021
1624	64.9206
1608	64.8828
1592	64.8794
1576	64.905
1560	64.817
1544	64.893
1528	64.9556
1512	64.8865
1496	64.9967
1480	65.0153
1464	65.0752
1448	64.9324
1432	65.0106
1416	64.8479
1400	64.7955
1384	64.6975
1368	64.7614
1352	64.8475
1336	64.7582
1320	64.8905
1304	64.6335
1288	64.6684
1272	64.6714
1256	64.744
1240	64.6266
1224	64.645
1208	64.6027
1192	64.6353
1176	64.5888
1160	64.5659
1144	64.4627
1128	64.3133
1112	64.821
1096	64.3615
1080	64.5187
1064	64.5931
1048	64.7189
1032	64.4577
1016	63.9381
1000	64.5088
984	 64.2996
968	 64.2852
952	 64.1315
936	 64.3066
920	 64.0801
904	 64.6005
888	 63.9119
872	 63.7657
856	 63.1814
840	 64.0181
824	 63.4262
808	 63.6931
792	 63.9856
776	 63.238
760	 63.1698
744	 63.4995
728	 62.9976
712	 62.3764
696	 62.6827
680	 62.369
664	 62.6839
648	 62.5238
632	 62.4326
616	 61.9632
600	 61.3803
584	 61.2969
568	 61.0044
552	 61.721
536	 61.4362
520	 61.007
504	 59.2845
488	 58.9567
472	 59.4189
456	 60.095
440	 58.3415
424	 56.5675
408	 60.2535
392	 37.2382
376	 47.9348
370	 13.135

File: C-4040-8_t121.asc
PE IR       SPECTRUM    SPECTRUM    ASCII       PEDS        1.60
  -1
C-80C2~1.ASC
17/03/28
00:40:25.00
17/03/28
00:40:51.00
tln
$C-4040-8_t0121$<tbV0>[-13.0,13.0,8.0,0.0,27,1,0]
27.028
64

2002,4.07
MIRTGS : RIGHTBACK : INTERNAL 2
MIR : ON : INTERNAL 2
OPTKBR

0.200000
8
8.000000
FILLER
RATIO
SPECTRUM
UNLOCKED 256

DOUBLE
64
COMBINED
1
0
0

0.002000
RATIO

1
0
TRUE
51149
0
LEFT NOT FITTED RIGHT NOT FITTED 0
NONE
NONE
15600
12
4.427000
51148
TRUE
1 0 8 72 0 0 0 0

15798

#HDR
-1
-1
#GR
µM
%T
2.38419e-05
0.0
2.000000
0.002000
12515
8
84.243
42.2389
#DATA
2.000000	 64.5864
2.084000	 64.7452
2.168000	 64.3792
2.252000	 66.1807
2.336000	 65.2525
2.420000	 64.7968
2.504000	 64.8408
2.588000	 65.1672
2.672000	 64.9059
2.756000	 64.8769
2.840000	 64.8498
2.924000	 65.0548
3.008000	 64.7455
3.092000	 64.6559
3.176000	 64.658
3.260000	 64.898
3.344000	 65.0356
3.428000	 64.6306
3.512000	 64.8927
3.596000	 64.8563
3.680000	 64.9412
3.764000	 64.9839
3.848000	 64.9934
3.932000	 65.0117
4.016000	 64.8926
4.100000	 65.025
4.184000	 64.9866
4.268000	 64.917
4.352000	 65.0654
4.436000	 64.9587
4.520000	 64.9389
4.604000	 64.9563
4.688000	 64.951
4.772000	 65.0125
4.856000	 65.2136
4.940000	 65.1209
5.024000	 64.9416
5.108000	 65.0808
5.192000	 65.0098
5.276000	 64.9724
5.359999	 64.8844
5.444000	 64.9004
5.528000	 64.8322
5.612000	 64.8347
5.696000	 64.8565
5.780000	 64.4149
5.864000	 64.8327
5.948000	 64.8681
6.032000	 64.758
6.116000	 64.8768
6.200000	 64.7284
6.284000	 64.744
6.368000	 64.643
6.452000	 64.6669
6.536000	 64.8724
6.620000	 64.6609
6.704000	 64.6662
6.788000	 64.7607
6.872000	 64.5462
6.956000	 64.7151
7.040000	 64.7705
7.124000	 64.5429
7.208000	 64.6722
7.292000	 64.5586
7.376000	 64.6685
7.460000	 64.5783
7.544000	 64.746
7.628000	 64.5407
7.712000	 64.4754
7.796000	 64.6558
7.880000	 64.6046
7.964000	 64.5514
8.048000	 64.4975
8.132000	 64.4701
8.216000	 64.5665
8.300000	 64.6029
8.384000	 64.6079
8.468000	 64.5287
8.552000	 64.4807
8.635999	 64.5581
8.719999	 64.5185
8.804000	 64.6715
8.888000	 64.2999
8.972000	 64.4841
9.056000	 64.3838
9.140000	 63.9844
9.224000	 64.1016
9.308000	 64.2902
9.391999	 64.5556
9.475999	 64.1226
9.560000	 64.2647
9.644000	 64.1738
9.728000	 64.2367
9.812000	 63.9706
9.896000	 64.1574
9.980000	 64.2987
10.064	64.2483
10.148	64.4853
10.232	64.4785
10.316	64.26
10.4	64.0386
10.484	63.9728
10.568	64.1923
10.652	64.0698
10.736	64.1781
10.82	64.3353
10.904	64.1503
10.988	64.2931
11.072	64.3796
11.156	63.7608
11.24	63.7411
11.324	63.8634
11.408	63.9434
11.492	64.0792
11.576	63.9611
11.66	63.8227
11.744	63.859
11.828	63.8594
11.912	64.2734
11.996	63.9533
12.08	63.7374
12.164	64.061
12.248	64.2122
12.332	63.735
12.416	64.2642
12.5	64.392
12.584	63.7586
12.668	63.5456
12.752	63.5094
12.836	63.4442
12.92	63.2249
13.004	63.4279
13.088	63.3146
13.172	63.1797
13.256	63.5124
13.34	63.7063
13.424	64.0919
13.508	64.0115
13.592	63.3222
13.676	62.9055
13.76	62.6671
13.844	62.6965
13.928	62.695
14.012	62.5885
14.096	62.6198
14.18	62.5945
14.264	62.6692
14.348	62.8154
14.432	62.9064
14.516	62.874
14.6	62.4816
14.684	62.0555
14.768	61.9434
14.852	61.8515
14.936	61.8316
15.02	62.0549
15.104	62.0685
15.188	61.7865
15.272	61.7644
15.356	62.0709
15.44	62.2776
15.524	62.339
15.608	62.4468
15.692	62.5112
15.776	62.4611
15.86	62.3588
15.944	62.1996
16.028	62.0422
16.112	61.9769
16.196	61.8339
16.28	61.5507
16.364	61.5593
16.448	62.0126
16.532	62.3277
16.616	62.2286
16.7	62.1401
16.784	62.1957
16.868	62.0983
16.952	61.8211
17.036	61.586
17.12	61.4078
17.204	61.2051
17.288	61.1249
17.372	61.3186
17.456	61.5937
17.54	61.6223
17.624	61.3696
17.708	61.0805
17.792	60.9609
17.876	61.0683
17.96	61.3553
18.044	61.6742
18.128	61.8158
18.212	61.689
18.296	61.412
18.38	61.1754
18.464	61.0615
18.548	61.0122
18.632	60.936
18.716	60.8038
18.8	60.671
18.884	60.6219
18.968	60.6975
19.052	60.8616
19.136	61.0254
19.22	61.0993
19.304	61.0316
19.388	60.8205
19.472	60.518
19.556	60.2225
19.64	60.0338
19.724	59.9863
19.808	60.0144
19.892	60.0014
19.976	59.8916
20.06	59.7517
20.144	59.7022
20.228	59.7835
20.312	59.9087
20.396	59.942
20.48	59.8149
20.564	59.5664
20.648	59.2949
20.732	59.0829
20.816	58.9667
20.9	58.951
20.984	59.0406
21.068	59.2447
21.152	59.5711
21.236	59.9927
21.32	60.4374
21.404	60.7987
21.488	60.9845
21.572	60.9712
21.656	60.8025
21.74	60.5534
21.824	60.2901
21.908	60.0411
21.992	59.8004
22.076	59.5503
22.16	59.2817
22.244	58.998
22.328	58.6956
22.412	58.3424
22.496	57.9006
22.58	57.3674
22.664	56.8245
22.748	56.4393
22.832	56.3545
22.916	56.6287
23	57.1441
23.084	57.686
23.168	58.0167
23.252	58.006
23.336	57.676
23.42	57.1983
23.504	56.7322
23.588	56.3864
23.672	56.2174
23.756	56.2292
23.84	56.4491
23.924	56.9901
24.008	58.0149
24.092	59.6615
24.176	61.9851
24.26	64.8084
24.344	67.7461
24.428	70.4309
24.512	72.6964
24.596	74.6403
24.68	76.3924
24.764	77.8533
24.848	78.5948
24.932	77.8944
25.016	75.1192
25.1	70.0988
25.184	63.2943
25.268	55.7769
25.352	48.8964
25.436	44.0519
25.52	42.2404
25.604	43.8476
25.688	48.6741
25.772	55.9465
25.856	64.5117
25.94	72.946
26.024	79.7246
26.108	83.5935
26.192	83.9883
26.276	81.1595
26.36	76.1824
26.444	70.4701
26.528	65.296
26.612	61.4605
26.696	59.2589
26.78	58.5831
26.864	59.1318
26.948	60.5661
27.028	62.4125