Folder: Masteroppgave/Bakgrunnsmateriale/MATLAB/FTIR/ftir_data/subBb/Mapping_121 (part 50)

File: C-4040-8_t116_cm-1.asc
PE IR       SPECTRUM    SPECTRUM    ASCII       PEDS        1.60
  -1
C-4B09~1.ASC
17/03/28
00:17:19.00
17/03/28
00:17:19.00
tln
$C-4040-8_t0116$<tbV0>[0.0,13.0,8.0,0.0,27,1,0]
370
64

2002,4.07
MIRTGS : RIGHTBACK : INTERNAL 2
MIR : ON : INTERNAL 2
OPTKBR

0.200000
8
8.000000
FILLER
RATIO
SPECTRUM
UNLOCKED 256

DOUBLE
64
COMBINED
1
0
0

1.000000
RATIO

1
0
TRUE
51149
0
LEFT NOT FITTED RIGHT NOT FITTED 0
NONE
NONE
15600
12
4.427000
51148
TRUE
1 0 8 72 0 0 0 0

15798

#HDR
-1
-1
#GR
CM-1
%T
2.38419e-05
0.0
5000
-1.000000
4631
8
88.4038
32.7728
#DATA
5000	64.556
4984	65.1882
4968	64.5011
4952	64.5028
4936	64.6247
4920	65.171
4904	64.8791
4888	65.064
4872	64.6154
4856	65.0734
4840	64.3902
4824	64.9235
4808	64.4927
4792	64.6822
4776	64.8815
4760	64.8379
4744	65.2611
4728	64.7083
4712	65.0766
4696	64.7735
4680	65.0249
4664	64.9387
4648	64.7205
4632	64.7911
4616	64.5746
4600	64.8685
4584	64.8113
4568	65.2152
4552	65.0534
4536	64.3893
4520	64.5514
4504	65.1901
4488	64.8321
4472	64.4869
4456	65.6154
4440	64.9432
4424	65.4026
4408	68.0399
4392	54.8989
4376	67.1263
4360	65.6238
4344	65.002
4328	65.1038
4312	64.7268
4296	65.0077
4280	65.2114
4264	64.6959
4248	64.9104
4232	64.984
4216	65.1842
4200	65.3571
4184	64.6373
4168	64.5982
4152	64.8122
4136	64.9277
4120	64.7922
4104	64.7802
4088	64.8615
4072	65.2705
4056	64.8919
4040	65.1155
4024	65.1821
4008	65.005
3992	65.006
3976	64.9981
3960	65.0477
3944	64.9766
3928	65.0885
3912	65.0056
3896	65.1886
3880	64.9932
3864	64.9495
3848	64.9319
3832	64.6854
3816	64.9604
3800	64.9077
3784	65.0851
3768	65.0622
3752	65.2654
3736	65.1936
3720	65.0999
3704	65.0032
3688	65.204
3672	65.2422
3656	65.0245
3640	65.2014
3624	65.1392
3608	65.0661
3592	65.0107
3576	65.1072
3560	65.1191
3544	64.8615
3528	65.045
3512	64.9438
3496	65.184
3480	65.2274
3464	65.3404
3448	64.9927
3432	65.129
3416	64.9447
3400	64.9384
3384	65.1631
3368	65.2085
3352	65.0187
3336	65.2251
3320	64.9535
3304	64.8952
3288	65.0938
3272	64.9913
3256	65.1117
3240	64.9017
3224	64.9534
3208	64.9439
3192	65.0041
3176	65.3087
3160	65.0604
3144	64.9921
3128	64.9363
3112	65.4085
3096	65.0413
3080	65.1335
3064	65.0988
3048	65.0908
3032	65.1367
3016	65.1957
3000	65.3167
2984	65.1265
2968	64.8958
2952	65.0958
2936	64.9008
2920	64.7346
2904	65.0207
2888	64.9703
2872	65.0474
2856	65.0146
2840	65.1031
2824	65.0745
2808	65.1624
2792	65.1477
2776	64.9757
2760	65.2091
2744	65.072
2728	65.1661
2712	65.1781
2696	65.316
2680	65.0908
2664	65.2696
2648	65.1645
2632	65.0906
2616	65.1484
2600	65.1242
2584	65.0936
2568	65.1527
2552	65.2601
2536	65.3051
2520	65.2278
2504	65.0374
2488	65.0187
2472	65.0775
2456	65.1537
2440	65.1579
2424	64.9717
2408	65.4235
2392	65.3315
2376	65.1295
2360	65.1639
2344	65.2621
2328	65.1968
2312	65.1634
2296	65.184
2280	65.0841
2264	65.3781
2248	65.3051
2232	65.0866
2216	65.2803
2200	65.319
2184	65.2009
2168	65.271
2152	65.366
2136	65.3302
2120	65.2379
2104	65.2696
2088	65.2547
2072	65.3897
2056	64.9966
2040	65.2902
2024	65.2377
2008	65.25
1992	65.0515
1976	65.2214
1960	65.2612
1944	65.1702
1928	65.0191
1912	65.3452
1896	65.1881
1880	65.3515
1864	65.0984
1848	65.2092
1832	65.1664
1816	65.1548
1800	65.1303
1784	65.0854
1768	65.1081
1752	65.2369
1736	64.8254
1720	65.2161
1704	65.1149
1688	65.068
1672	65.1479
1656	65.0708
1640	65.0019
1624	65.0277
1608	65.0166
1592	65.0248
1576	64.8395
1560	64.749
1544	64.9565
1528	65.0738
1512	65.0229
1496	65.1806
1480	65.1279
1464	65.0607
1448	64.8156
1432	64.9102
1416	64.9117
1400	64.9212
1384	64.8479
1368	64.8956
1352	64.9395
1336	64.7995
1320	64.9049
1304	64.8995
1288	64.5442
1272	64.9417
1256	64.6785
1240	64.7363
1224	64.9249
1208	64.876
1192	64.7989
1176	64.775
1160	64.6092
1144	64.8453
1128	64.8564
1112	64.9199
1096	64.8667
1080	64.9643
1064	64.7856
1048	64.7627
1032	64.5959
1016	64.8567
1000	64.5184
984	 64.6168
968	 64.5221
952	 64.4663
936	 64.5327
920	 64.3491
904	 64.6693
888	 63.8729
872	 64.0855
856	 63.5486
840	 64.2812
824	 63.4336
808	 63.7675
792	 64.3757
776	 64.3152
760	 63.6094
744	 63.8999
728	 63.1611
712	 63.3142
696	 63.3096
680	 62.6014
664	 62.9249
648	 62.2466
632	 62.6491
616	 62.173
600	 62.1315
584	 61.7339
568	 62.0061
552	 61.5393
536	 61.8047
520	 60.747
504	 59.2149
488	 59.5327
472	 59.9859
456	 59.9634
440	 58.0626
424	 57.8753
408	 64.4169
392	 35.0917
376	 51.7543
370	 68.5313

File: C-4040-8_t117.asc
PE IR       SPECTRUM    SPECTRUM    ASCII       PEDS        1.60
  -1
C-88D8~1.ASC
17/03/28
00:21:56.00
17/03/28
00:22:22.00
tln
$C-4040-8_t0117$<tbV0>[-2.6,13.0,8.0,0.0,27,1,0]
27.028
64

2002,4.07
MIRTGS : RIGHTBACK : INTERNAL 2
MIR : ON : INTERNAL 2
OPTKBR

0.200000
8
8.000000
FILLER
RATIO
SPECTRUM
UNLOCKED 256

DOUBLE
64
COMBINED
1
0
0

0.002000
RATIO

1
0
TRUE
51149
0
LEFT NOT FITTED RIGHT NOT FITTED 0
NONE
NONE
15600
12
4.427000
51148
TRUE
1 0 8 72 0 0 0 0

15798

#HDR
-1
-1
#GR
µM
%T
2.38419e-05
0.0
2.000000
0.002000
12515
8
89.8925
22.7808
#DATA
2.000000	 64.5975
2.084000	 64.7755
2.168000	 64.89
2.252000	 65.9122
2.336000	 64.9786
2.420000	 64.9993
2.504000	 65.231
2.588000	 65.3324
2.672000	 65.0607
2.756000	 65.3008
2.840000	 65.3739
2.924000	 65.2399
3.008000	 65.1263
3.092000	 65.155
3.176000	 65.1065
3.260000	 65.291
3.344000	 65.2544
3.428000	 64.597
3.512000	 65.1237
3.596000	 65.1063
3.680000	 65.2814
3.764000	 65.0996
3.848000	 65.2042
3.932000	 65.2953
4.016000	 65.1308
4.100000	 65.1302
4.184000	 65.4156
4.268000	 65.3312
4.352000	 65.3501
4.436000	 65.3009
4.520000	 65.3447
4.604000	 65.2806
4.688000	 65.2306
4.772000	 65.2941
4.856000	 65.5777
4.940000	 65.2341
5.024000	 65.1597
5.108000	 65.3088
5.192000	 65.1669
5.276000	 65.1652
5.359999	 65.1263
5.444000	 65.128
5.528000	 65.1202
5.612000	 65.2745
5.696000	 65.026
5.780000	 64.9034
5.864000	 64.9464
5.948000	 65.0796
6.032000	 65.1059
6.116000	 65.0037
6.200000	 64.9099
6.284000	 65.0157
6.368000	 64.9637
6.452000	 65.0238
6.536000	 65.2261
6.620000	 65.1038
6.704000	 65.1409
6.788000	 65.0663
6.872000	 65.1236
6.956000	 65.1125
7.040000	 64.7742
7.124000	 64.9587
7.208000	 64.9714
7.292000	 64.8605
7.376000	 64.9425
7.460000	 64.9514
7.544000	 65.023
7.628000	 65.0177
7.712000	 64.8556
7.796000	 64.9005
7.880000	 64.8018
7.964000	 64.8273
8.048000	 64.8084
8.132000	 64.8221
8.216000	 64.8725
8.300000	 64.7407
8.384000	 64.8009
8.468000	 64.8072
8.552000	 64.7841
8.635999	 64.6763
8.719999	 64.6041
8.804000	 64.7917
8.888000	 64.6353
8.972000	 64.7703
9.056000	 65.4612
9.140000	 64.8817
9.224000	 64.8241
9.308000	 64.8071
9.391999	 64.7187
9.475999	 64.6321
9.560000	 64.9402
9.644000	 64.5642
9.728000	 64.2518
9.812000	 64.24
9.896000	 64.8911
9.980000	 64.616
10.064	64.5055
10.148	64.7229
10.232	64.4
10.316	64.1536
10.4	64.5909
10.484	64.5691
10.568	64.487
10.652	64.2946
10.736	64.4882
10.82	64.5119
10.904	64.6433
10.988	64.501
11.072	64.4004
11.156	63.9713
11.24	64.0475
11.324	63.9528
11.408	64.1734
11.492	64.2286
11.576	64.2109
11.66	63.8462
11.744	64.1372
11.828	64.1645
11.912	64.1879
11.996	64.2127
12.08	63.336
12.164	63.3344
12.248	64.5335
12.332	64.7388
12.416	64.5413
12.5	63.7236
12.584	64.1342
12.668	64.0743
12.752	63.7593
12.836	63.8946
12.92	63.8196
13.004	63.8126
13.088	63.6952
13.172	63.5674
13.256	64.0842
13.34	64.5894
13.424	64.338
13.508	63.9065
13.592	63.7299
13.676	63.3354
13.76	63.1294
13.844	63.4327
13.928	63.4063
14.012	63.1485
14.096	63.114
14.18	63.0789
14.264	63.0059
14.348	63.0354
14.432	62.975
14.516	62.9113
14.6	62.9865
14.684	63.0433
14.768	63.0206
14.852	62.9228
14.936	62.8096
15.02	62.6116
15.104	62.3073
15.188	62.1723
15.272	62.278
15.356	62.5316
15.44	62.751
15.524	62.6369
15.608	62.413
15.692	62.5434
15.776	62.8947
15.86	63.0613
15.944	62.9525
16.028	62.7458
16.112	62.5604
16.196	62.3854
16.28	62.2689
16.364	62.2512
16.448	62.2324
16.532	62.1414
16.616	62.0206
16.7	61.9301
16.784	61.9128
16.868	61.9072
16.952	61.7697
17.036	61.4548
17.12	61.1177
17.204	61.0205
17.288	61.2985
17.372	61.797
17.456	62.1698
17.54	62.1815
17.624	61.9015
17.708	61.6003
17.792	61.485
17.876	61.5404
17.96	61.6428
18.044	61.73
18.128	61.7856
18.212	61.7915
18.296	61.7632
18.38	61.7345
18.464	61.6976
18.548	61.5969
18.632	61.4201
18.716	61.2141
18.8	61.0252
18.884	60.8633
18.968	60.724
19.052	60.6252
19.136	60.6413
19.22	60.8523
19.304	61.1921
19.388	61.4015
19.472	61.224
19.556	60.6631
19.64	60.0112
19.724	59.5975
19.808	59.5215
19.892	59.644
19.976	59.7899
20.06	59.9058
20.144	60.027
20.228	60.1522
20.312	60.2051
20.396	60.1261
20.48	59.9575
20.564	59.8007
20.648	59.7045
20.732	59.6177
20.816	59.4793
20.9	59.3229
20.984	59.2642
21.068	59.3841
21.152	59.6309
21.236	59.8596
21.32	59.9574
21.404	59.9371
21.488	59.9065
21.572	59.9445
21.656	60.0093
21.74	59.9664
21.824	59.7096
21.908	59.2673
21.992	58.7722
22.076	58.35
22.16	58.0536
22.244	57.8867
22.328	57.8524
22.412	57.9746
22.496	58.2565
22.58	58.6457
22.664	59.0495
22.748	59.3645
22.832	59.5232
22.916	59.5218
23	59.4181
23.084	59.2932
23.168	59.232
23.252	59.2819
23.336	59.4316
23.42	59.6157
23.504	59.7008
23.588	59.5534
23.672	59.1011
23.756	58.3487
23.84	57.4162
23.924	56.495
24.008	55.8245
24.092	55.6628
24.176	56.1768
24.26	57.3233
24.344	58.8536
24.428	60.4102
24.512	61.5443
24.596	61.9884
24.68	61.668
24.764	60.6425
24.848	59.0791
24.932	57.1193
25.016	54.8022
25.1	52.0781
25.184	48.9438
25.268	45.5075
25.352	41.9507
25.436	38.4174
25.52	34.932
25.604	31.4361
25.688	28.0137
25.772	25.0346
25.856	23.1346
25.94	22.9782
26.024	25.1059
26.108	29.7085
26.192	36.6436
26.276	45.4848
26.36	55.5701
26.444	66.0178
26.528	75.7615
26.612	83.6441
26.696	88.574
26.78	89.8309
26.864	87.2465
26.948	81.3001
27.028	73.6132

File: C-4040-8_t117_cm-1.asc
PE IR       SPECTRUM    SPECTRUM    ASCII       PEDS        1.60
  -1
C-4C09~1.ASC
17/03/28
00:21:56.00
17/03/28
00:21:56.00
tln
$C-4040-8_t0117$<tbV0>[-2.6,13.0,8.0,0.0,27,1,0]
370
64

2002,4.07
MIRTGS : RIGHTBACK : INTERNAL 2
MIR : ON : INTERNAL 2
OPTKBR

0.200000
8
8.000000
FILLER
RATIO
SPECTRUM
UNLOCKED 256

DOUBLE
64
COMBINED
1
0
0

1.000000
RATIO

1
0
TRUE
51149
0
LEFT NOT FITTED RIGHT NOT FITTED 0
NONE
NONE
15600
12
4.427000
51148
TRUE
1 0 8 72 0 0 0 0

15798

#HDR
-1
-1
#GR
CM-1
%T
2.38419e-05
0.0
5000
-1.000000
4631
8
89.6954
22.7828
#DATA
5000	64.5975
4984	65.0164
4968	65.7763
4952	64.1492
4936	65.2261
4920	64.6158
4904	64.7817
4888	64.1768
4872	64.0788
4856	64.8735
4840	64.6087
4824	64.4637
4808	65.0466
4792	64.9798
4776	65.131
4760	64.7006
4744	65.0432
4728	64.7802
4712	65.2864
4696	64.899
4680	65.0107
4664	65.0993
4648	64.8429
4632	64.7338
4616	64.4582
4600	64.9258
4584	65.2003
4568	65.1259
4552	64.8878
4536	64.7408
4520	65.0302
4504	64.8501
4488	65.1682
4472	64.9308
4456	65.3946
4440	65.9116
4424	65.3894
4408	65.2931
4392	60.818
4376	66.1901
4360	66.2238
4344	64.8706
4328	65.1559
4312	64.9361
4296	65.3039
4280	64.9005
4264	65.3723
4248	64.9585
4232	64.7693
4216	65.2594
4200	65.1072
4184	64.3061
4168	65.4016
4152	64.7289
4136	64.8244
4120	64.9849
4104	64.8418
4088	65.232
4072	65.3902
4056	65.2015
4040	64.9638
4024	65.1495
4008	64.819
3992	65.1814
3976	65.2566
3960	65.1894
3944	65.2212
3928	65.1397
3912	65.1926
3896	64.9227
3880	65.1333
3864	65.3321
3848	65.2086
3832	64.7645
3816	64.9063
3800	65.1087
3784	65.4782
3768	65.2962
3752	65.2507
3736	65.1867
3720	65.0879
3704	65.0118
3688	65.2872
3672	65.2487
3656	65.1284
3640	65.1741
3624	65.1722
3608	65.2687
3592	65.204
3576	65.2783
3560	65.0428
3544	65.2452
3528	65.2171
3512	65.1552
3496	65.0853
3480	65.047
3464	65.3929
3448	65.1075
3432	64.9355
3416	65.1872
3400	65.2197
3384	65.263
3368	64.941
3352	65.0046
3336	65.0673
3320	65.0503
3304	65.2469
3288	65.3616
3272	64.9727
3256	65.3989
3240	65.1016
3224	65.0983
3208	65.1474
3192	65.116
3176	65.1404
3160	64.9197
3144	65.1393
3128	65.2049
3112	65.3389
3096	65.3413
3080	65.3372
3064	65.2961
3048	65.1776
3032	65.2696
3016	65.1407
3000	65.3446
2984	65.1607
2968	65.133
2952	65.1778
2936	64.9454
2920	64.6481
2904	65.0472
2888	65.1273
2872	65.138
2856	64.7705
2840	65.2242
2824	65.206
2808	65.1455
2792	65.0946
2776	65.1368
2760	65.258
2744	65.1016
2728	65.1907
2712	65.2668
2696	65.262
2680	65.2285
2664	65.1305
2648	65.1464
2632	65.0521
2616	65.1425
2600	65.1753
2584	65.0767
2568	65.1794
2552	65.3477
2536	65.368
2520	65.4367
2504	65.2365
2488	65.1273
2472	65.2097
2456	65.098
2440	65.1403
2424	64.9994
2408	65.4131
2392	65.3733
2376	65.1786
2360	65.2099
2344	65.3337
2328	65.3604
2312	65.2272
2296	65.3294
2280	65.2493
2264	65.4277
2248	65.3533
2232	65.2819
2216	65.3019
2200	65.3584
2184	65.2354
2168	65.4217
2152	65.1608
2136	65.1829
2120	65.2912
2104	65.2722
2088	65.0772
2072	65.464
2056	65.1747
2040	65.2142
2024	65.234
2008	65.2928
1992	65.1014
1976	65.2795
1960	65.2939
1944	65.2642
1928	65.1583
1912	65.2811
1896	65.1589
1880	65.1847
1864	65.127
1848	65.1793
1832	65.1704
1816	65.0902
1800	65.2718
1784	65.2397
1768	65.1766
1752	65.073
1736	64.8025
1720	65.0486
1704	64.9467
1688	65.0674
1672	65.2391
1656	65.1006
1640	64.9894
1624	64.9527
1608	64.9797
1592	65.0374
1576	64.977
1560	64.9184
1544	64.9204
1528	65.2257
1512	65.0688
1496	65.1422
1480	65.0857
1464	65.0112
1448	64.981
1432	65.3273
1416	64.7957
1400	64.9488
1384	64.9215
1368	64.9261
1352	64.9317
1336	65.0026
1320	65.0115
1304	64.8934
1288	64.879
1272	64.8181
1256	64.8236
1240	64.8231
1224	64.9773
1208	64.7108
1192	64.7977
1176	64.7558
1160	64.7431
1144	64.6605
1128	64.7163
1112	64.909
1096	65.0209
1080	64.7528
1064	64.6909
1048	65.0214
1032	64.5634
1016	64.6465
1000	64.5389
984	 64.6816
968	 64.1934
952	 64.5772
936	 64.3574
920	 64.6214
904	 64.4471
888	 64.014
872	 64.2198
856	 63.8633
840	 64.1666
824	 63.0919
808	 64.7365
792	 64.2593
776	 63.8654
760	 63.5513
744	 64.2354
728	 63.1172
712	 63.1113
696	 63.0348
680	 63.0451
664	 62.4644
648	 62.742
632	 63.0255
616	 62.3204
600	 61.9585
584	 61.1079
568	 61.9749
552	 61.7804
536	 61.3598
520	 60.8922
504	 59.5581
488	 59.9328
472	 59.7358
456	 59.1377
440	 59.2999
424	 59.5641
408	 61.5231
392	 35.3389
376	 82.331
370	 73.6132

File: C-4040-8_t118.asc
PE IR       SPECTRUM    SPECTRUM    ASCII       PEDS        1.60
  -1
C-8CD8~1.ASC
17/03/28
00:26:33.00
17/03/28
00:27:00.00
tln
$C-4040-8_t0118$<tbV0>[-5.2,13.0,8.0,0.0,27,1,0]
27.028
64

2002,4.07
MIRTGS : RIGHTBACK : INTERNAL 2
MIR : ON : INTERNAL 2
OPTKBR

0.200000
8
8.000000
FILLER
RATIO
SPECTRUM
UNLOCKED 256

DOUBLE
64
COMBINED
1
0
0

0.002000
RATIO

1
0
TRUE
51149
0
LEFT NOT FITTED RIGHT NOT FITTED 0
NONE
NONE
15600
12
4.427000
51148
TRUE
1 0 8 72 0 0 0 0

15798

#HDR
-1
-1
#GR
µM
%T
2.38419e-05
0.0
2.000000
0.002000
12515
8
100.891
9.752011
#DATA
2.000000	 64.909
2.084000	 65.0595
2.168000	 64.6478
2.252000	 65.4576
2.336000	 65.1771
2.420000	 64.7631
2.504000	 64.693
2.588000	 65.1083
2.672000	 65.0057
2.756000	 64.8845
2.840000	 65.1487
2.924000	 64.8315
3.008000	 64.9465
3.092000	 64.9163
3.176000	 64.9398
3.260000	 64.9398
3.344000	 65.1307
3.428000	 64.6016
3.512000	 64.7926
3.596000	 64.9669
3.680000	 64.9565
3.764000	 64.8764
3.848000	 64.8994
3.932000	 65.0384
4.016000	 64.6353
4.100000	 65.1613
4.184000	 65.0122
4.268000	 65.1196
4.352000	 64.9955
4.436000	 64.9588
4.520000	 65.0566
4.604000	 64.9162
4.688000	 64.8863
4.772000	 65.0337
4.856000	 65.442
4.940000	 65.0207
5.024000	 64.9454
5.108000	 65.017
5.192000	 65.0179
5.276000	 64.9371
5.359999	 64.835
5.444000	 64.9458
5.528000	 64.7634
5.612000	 64.8326
5.696000	 64.8269
5.780000	 64.5563
5.864000	 64.7712
5.948000	 64.879
6.032000	 64.7222
6.116000	 64.9414
6.200000	 64.8057
6.284000	 64.7731
6.368000	 64.5707
6.452000	 64.7672
6.536000	 64.8694
6.620000	 64.9173
6.704000	 64.6828
6.788000	 64.8052
6.872000	 64.6728
6.956000	 64.5941
7.040000	 64.8688
7.124000	 64.6668
7.208000	 64.7234
7.292000	 64.6801
7.376000	 64.725
7.460000	 64.6088
7.544000	 64.7227
7.628000	 64.7198
7.712000	 64.482
7.796000	 64.4209
7.880000	 64.4908
7.964000	 64.4742
8.048000	 64.5638
8.132000	 64.6218
8.216000	 64.695
8.300000	 64.492
8.384000	 64.4382
8.468000	 64.543
8.552000	 64.3535
8.635999	 64.5002
8.719999	 64.2824
8.804000	 64.4319
8.888000	 64.3073
8.972000	 64.4901
9.056000	 64.8132
9.140000	 64.2854
9.224000	 64.379
9.308000	 64.2811
9.391999	 64.0649
9.475999	 64.1251
9.560000	 64.256
9.644000	 64.3509
9.728000	 64.0009
9.812000	 63.8491
9.896000	 64.1305
9.980000	 64.2196
10.064	64.3776
10.148	64.2507
10.232	64.1167
10.316	64.081
10.4	64.0561
10.484	64.0664
10.568	64.282
10.652	63.907
10.736	64.0622
10.82	64.0601
10.904	64.0024
10.988	64.1339
11.072	64.307
11.156	64.1795
11.24	63.95
11.324	63.3517
11.408	63.3589
11.492	63.608
11.576	63.6663
11.66	63.2265
11.744	63.3635
11.828	63.6464
11.912	64.4673
11.996	63.8689
12.08	62.601
12.164	63.5974
12.248	64.1756
12.332	63.803
12.416	63.7104
12.5	63.3933
12.584	62.9066
12.668	63.1204
12.752	63.7433
12.836	63.8192
12.92	63.5557
13.004	63.2854
13.088	62.9862
13.172	62.6305
13.256	62.8761
13.34	63.2274
13.424	63.2958
13.508	63.2434
13.592	62.8741
13.676	62.471
13.76	62.3585
13.844	62.7426
13.928	62.9489
14.012	62.5367
14.096	62.1514
14.18	62.2478
14.264	62.479
14.348	62.7056
14.432	62.8851
14.516	62.7843
14.6	62.3756
14.684	62.1175
14.768	62.2592
14.852	62.3978
14.936	62.5286
15.02	62.7009
15.104	62.4134
15.188	61.8918
15.272	61.8417
15.356	62.0987
15.44	62.2003
15.524	62.0292
15.608	61.7149
15.692	61.6231
15.776	61.8434
15.86	62.1059
15.944	62.2618
16.028	62.2265
16.112	61.9591
16.196	61.7391
16.28	61.8473
16.364	62.0666
16.448	62.0221
16.532	61.8584
16.616	61.9111
16.7	62.0626
16.784	62.0349
16.868	61.8386
16.952	61.5775
17.036	61.1941
17.12	60.6783
17.204	60.2503
17.288	60.1405
17.372	60.3512
17.456	60.7106
17.54	61.0198
17.624	61.1356
17.708	61.0628
17.792	60.9479
17.876	60.8882
17.96	60.827
18.044	60.7217
18.128	60.6796
18.212	60.837
18.296	61.1579
18.38	61.4271
18.464	61.4556
18.548	61.2369
18.632	60.9003
18.716	60.5613
18.8	60.2811
18.884	60.1242
18.968	60.1683
19.052	60.4021
19.136	60.6613
19.22	60.7363
19.304	60.5578
19.388	60.2324
19.472	59.9069
19.556	59.6393
19.64	59.4204
19.724	59.2583
19.808	59.1767
19.892	59.1417
19.976	59.0652
20.06	58.9005
20.144	58.7113
20.228	58.5853
20.312	58.5075
20.396	58.3681
20.48	58.1234
20.564	57.8918
20.648	57.8456
20.732	58.0208
20.816	58.2687
20.9	58.4192
20.984	58.4867
21.068	58.656
21.152	59.0743
21.236	59.6825
21.32	60.2623
21.404	60.622
21.488	60.7284
21.572	60.6654
21.656	60.5261
21.74	60.3619
21.824	60.1962
21.908	60.0492
21.992	59.9157
22.076	59.7289
22.16	59.3931
22.244	58.8876
22.328	58.3264
22.412	57.9118
22.496	57.7817
22.58	57.8906
22.664	58.0304
22.748	57.963
22.832	57.6174
22.916	57.0962
23	56.6716
23.084	56.5728
23.168	56.8569
23.252	57.4009
23.336	58.0051
23.42	58.4852
23.504	58.7548
23.588	58.8231
23.672	58.7203
23.756	58.4389
23.84	57.9552
23.924	57.2787
24.008	56.4397
24.092	55.4358
24.176	54.2205
24.26	52.5672
24.344	50.1865
24.428	46.9816
24.512	43.1679
24.596	39.3172
24.68	36.3648
24.764	35.3484
24.848	36.8082
24.932	40.5643
25.016	45.644
25.1	50.5838
25.184	53.8972
25.268	54.7541
25.352	53.2142
25.436	50.1017
25.52	46.633
25.604	43.9431
25.688	43.0707
25.772	44.7806
25.856	49.4563
25.94	57.0695
26.024	67.0301
26.108	78.1225
26.192	88.6947
26.276	96.8348
26.36	100.742
26.444	99.0794
26.528	91.3974
26.612	78.2305
26.696	61.2518
26.78	43.0887
26.864	26.8119
26.948	15.1227
27.028	9.752011

File: C-4040-8_t118_cm-1.asc
PE IR       SPECTRUM    SPECTRUM    ASCII       PEDS        1.60
  -1
C-4D09~1.ASC
17/03/28
00:26:33.00
17/03/28
00:26:33.00
tln
$C-4040-8_t0118$<tbV0>[-5.2,13.0,8.0,0.0,27,1,0]
370
64

2002,4.07
MIRTGS : RIGHTBACK : INTERNAL 2
MIR : ON : INTERNAL 2
OPTKBR

0.200000
8
8.000000
FILLER
RATIO
SPECTRUM
UNLOCKED 256

DOUBLE
64
COMBINED
1
0
0

1.000000
RATIO

1
0
TRUE
51149
0
LEFT NOT FITTED RIGHT NOT FITTED 0
NONE
NONE
15600
12
4.427000
51148
TRUE
1 0 8 72 0 0 0 0

15798

#HDR
-1
-1
#GR
CM-1
%T
2.38419e-05
0.0
5000
-1.000000
4631
8
100.869
9.752011
#DATA
5000	64.909
4984	64.8893
4968	65.792
4952	64.1928
4936	64.3583
4920	64.5712
4904	64.6362
4888	64.6864
4872	63.9433
4856	65.1219
4840	64.7633
4824	64.5894
4808	64.4368
4792	65.145
4776	64.5727
4760	64.2192
4744	65.0731
4728	64.4413
4712	64.8786
4696	64.4744
4680	64.7245
4664	65.0852
4648	64.8683
4632	64.3529
4616	64.5036
4600	64.9403
4584	65.2113
4568	65.3453
4552	65.7044
4536	65.516
4520	65.8281
4504	65.2374
4488	65.4292
4472	65.1267
4456	66.0699
4440	65.4601
4424	65.8753
4408	60.5262
4392	46.8682
4376	66.8121
4360	66.635
4344	65.4899
4328	65.3113
4312	65.7079
4296	65.2094
4280	65.1245
4264	65.0827
4248	64.8447
4232	65.072
4216	65.1958
4200	65.3017
4184	65.1904
4168	64.6508
4152	64.4535
4136	64.5374
4120	64.8112
4104	64.6563
4088	64.7465
4072	64.9499
4056	64.7147
4040	64.7423
4024	64.4784
4008	64.7419
3992	64.6831
3976	65.2384
3960	64.7342
3944	64.902
3928	65.0936
3912	64.6812
3896	65.1299
3880	64.9089
3864	65.1078
3848	64.8688
3832	65.0971
3816	65.2225
3800	64.9118
3784	65.3534
3768	64.7632
3752	64.9794
3736	64.9612
3720	65.0553
3704	64.937
3688	64.8924
3672	64.9367
3656	64.6397
3640	64.985
3624	64.9074
3608	65.0096
3592	65.1988
3576	64.9529
3560	65.0633
3544	64.8854
3528	64.7006
3512	64.8515
3496	64.9057
3480	64.8114
3464	65.2661
3448	65.0473
3432	64.9183
3416	64.7243
3400	64.8618
3384	65.0219
3368	65.0207
3352	64.9634
3336	64.7803
3320	64.8983
3304	64.5632
3288	65.0842
3272	64.8185
3256	65.0565
3240	64.8332
3224	64.9492
3208	65.0134
3192	64.8791
3176	64.9808
3160	65.2024
3144	64.8692
3128	65.1345
3112	65.5532
3096	65.0141
3080	65.3061
3064	64.9714
3048	64.8958
3032	65.0689
3016	64.9846
3000	64.9339
2984	64.9942
2968	64.9459
2952	64.9057
2936	64.8736
2920	64.6716
2904	64.9159
2888	64.7516
2872	64.8781
2856	64.4646
2840	64.5529
2824	64.9307
2808	64.9996
2792	64.8775
2776	64.8879
2760	64.9223
2744	64.9229
2728	64.8995
2712	64.9888
2696	64.9031
2680	64.9085
2664	64.9488
2648	64.9459
2632	64.9429
2616	64.8461
2600	64.9062
2584	64.8459
2568	65.0203
2552	65.0298
2536	64.9718
2520	65.0071
2504	64.6166
2488	64.7607
2472	65.003
2456	65.043
2440	65.1563
2424	65.0889
2408	65.2836
2392	64.9609
2376	64.8748
2360	64.9539
2344	65.118
2328	65.0966
2312	64.9499
2296	64.9931
2280	64.7968
2264	65.0325
2248	64.9395
2232	64.9081
2216	65.0092
2200	65.1027
2184	65.109
2168	64.8929
2152	64.8525
2136	64.8513
2120	65.0716
2104	65.0421
2088	64.9573
2072	65.6703
2056	65.0807
2040	64.9341
2024	65.022
2008	64.9695
1992	64.9313
1976	65.1238
1960	64.9893
1944	64.9822
1928	64.9488
1912	65.0883
1896	64.9356
1880	65.0444
1864	64.8045
1848	64.912
1832	64.8826
1816	64.8521
1800	65.0065
1784	64.8023
1768	64.9124
1752	64.8962
1736	64.6345
1720	64.851
1704	64.8074
1688	64.8587
1672	64.9172
1656	64.7483
1640	64.859
1624	64.7791
1608	64.8603
1592	64.7794
1576	64.579
1560	64.7822
1544	64.8451
1528	64.8458
1512	64.9014
1496	64.7594
1480	64.7933
1464	64.6594
1448	64.8051
1432	64.8946
1416	64.7062
1400	64.6667
1384	64.659
1368	64.6322
1352	64.6827
1336	64.6022
1320	64.6874
1304	64.5876
1288	64.275
1272	64.4887
1256	64.4808
1240	64.5437
1224	64.7774
1208	64.5116
1192	64.4345
1176	64.3712
1160	64.538
1144	64.2816
1128	64.367
1112	64.5858
1096	64.3961
1080	64.2277
1064	64.0224
1048	64.2378
1032	64.2615
1016	63.9267
1000	64.2238
984	 64.2201
968	 64.0719
952	 64.1128
936	 63.943
920	 64.0428
904	 64.3069
888	 63.7653
872	 63.5106
856	 63.2017
840	 64.4076
824	 63.1078
808	 63.7484
792	 62.8908
776	 63.6802
760	 62.6589
744	 63.3026
728	 62.337
712	 62.3347
696	 62.7598
680	 62.1271
664	 62.6373
648	 62.2023
632	 61.9993
616	 61.7471
600	 62.0131
584	 60.6581
568	 61.1296
552	 60.6753
536	 60.7973
520	 60.7269
504	 59.1617
488	 58.0862
472	 59.3117
456	 60.0146
440	 58.0058
424	 58.8237
408	 43.27
392	 47.0119
376	 81.1301
370	 9.752011