Folder: Masteroppgave/Bakgrunnsmateriale/MATLAB/FTIR/ftir_data/subBb/Mapping_121 (part 36)

File: C-4040-8_t81_cm-1.asc
PE IR       SPECTRUM    SPECTRUM    ASCII       PEDS        1.60
  -1
C-9DE4~1.ASC
17/03/27
21:08:01.00
17/03/27
21:08:01.00
tln
$C-4040-8_t0081$<tbV0>[5.2,5.2,8.0,0.0,27,1,0]
370
64

2002,4.07
MIRTGS : RIGHTBACK : INTERNAL 2
MIR : ON : INTERNAL 2
OPTKBR

0.200000
8
8.000000
FILLER
RATIO
SPECTRUM
UNLOCKED 256

DOUBLE
64
COMBINED
1
0
0

1.000000
RATIO

1
0
TRUE
51149
0
LEFT NOT FITTED RIGHT NOT FITTED 0
NONE
NONE
15600
12
4.427000
51148
TRUE
1 0 8 72 0 0 0 0

15798

#HDR
-1
-1
#GR
CM-1
%T
2.38419e-05
0.0
5000
-1.000000
4631
8
110.557
55.7271
#DATA
5000	65.3626
4984	64.6784
4968	64.5818
4952	66.0656
4936	64.5394
4920	64.8378
4904	65.0467
4888	64.5076
4872	64.8824
4856	65.1977
4840	64.7654
4824	65.2992
4808	65.5747
4792	65.0693
4776	65.2361
4760	64.7874
4744	64.9738
4728	65.3111
4712	65.4018
4696	65.1622
4680	65.1263
4664	65.1176
4648	65.6625
4632	65.2868
4616	65.291
4600	64.8214
4584	65.2886
4568	65.1441
4552	64.9316
4536	64.6738
4520	65.073
4504	64.3773
4488	65.0262
4472	64.374
4456	65.194
4440	64.9239
4424	64.4377
4408	63.6888
4392	60.2962
4376	90.2703
4360	63.3341
4344	65.2141
4328	64.89
4312	65.2908
4296	65.0682
4280	64.5437
4264	64.9667
4248	64.7408
4232	64.7578
4216	64.8403
4200	65.2541
4184	66.4332
4168	64.7167
4152	65.372
4136	65.1887
4120	65.1333
4104	65.1811
4088	65.0508
4072	65.0812
4056	65.1593
4040	65.397
4024	65.4214
4008	65.2823
3992	65.5548
3976	65.0513
3960	65.2515
3944	65.1975
3928	65.4375
3912	65.1846
3896	65.4296
3880	65.0353
3864	65.3248
3848	65.0388
3832	65.3487
3816	65.2368
3800	65.0714
3784	65.2491
3768	65.2013
3752	65.1652
3736	65.1078
3720	65.1937
3704	65.0909
3688	64.9829
3672	65.2958
3656	65.1898
3640	65.5201
3624	65.2464
3608	65.2501
3592	65.2839
3576	65.1493
3560	65.2846
3544	65.307
3528	65.2842
3512	65.126
3496	65.4307
3480	65.3757
3464	65.0702
3448	65.2562
3432	65.4424
3416	65.2623
3400	65.0416
3384	65.39
3368	65.2219
3352	65.1006
3336	65.1925
3320	65.4226
3304	65.3209
3288	65.0777
3272	65.1889
3256	65.3483
3240	65.1613
3224	65.148
3208	65.3244
3192	65.4277
3176	65.1289
3160	65.1366
3144	65.442
3128	65.1218
3112	64.841
3096	65.2659
3080	65.2088
3064	65.3888
3048	65.2767
3032	65.2668
3016	65.03
3000	65.1919
2984	65.1095
2968	65.1
2952	64.9757
2936	64.9971
2920	64.8996
2904	65.2307
2888	65.1991
2872	65.335
2856	65.1687
2840	64.9804
2824	65.3636
2808	65.2116
2792	65.2299
2776	65.3988
2760	65.3942
2744	65.4231
2728	65.4048
2712	65.374
2696	65.4321
2680	65.3389
2664	65.3522
2648	65.2411
2632	65.3636
2616	65.3116
2600	65.3531
2584	65.184
2568	65.2003
2552	65.3314
2536	65.3852
2520	65.4207
2504	65.268
2488	65.1882
2472	65.4073
2456	65.447
2440	65.3737
2424	64.8826
2408	65.3049
2392	65.2993
2376	65.3051
2360	65.3126
2344	65.269
2328	65.2986
2312	65.316
2296	65.3445
2280	65.3027
2264	65.3214
2248	65.2983
2232	65.3984
2216	65.36
2200	65.261
2184	65.2365
2168	65.3749
2152	65.3081
2136	65.0985
2120	65.2264
2104	65.4995
2088	65.3813
2072	65.6512
2056	65.3608
2040	65.4653
2024	65.5194
2008	65.2835
1992	65.289
1976	65.2874
1960	65.3255
1944	65.3864
1928	65.3145
1912	65.4324
1896	65.2866
1880	65.3035
1864	65.3038
1848	65.1953
1832	65.4075
1816	65.396
1800	65.3381
1784	65.3834
1768	65.3733
1752	65.363
1736	65.1121
1720	65.4382
1704	65.2163
1688	65.5044
1672	65.3301
1656	65.3533
1640	65.1716
1624	65.1796
1608	65.3636
1592	65.1704
1576	65.2593
1560	65.1772
1544	65.0475
1528	65.0012
1512	65.1305
1496	65.2236
1480	65.1918
1464	64.9827
1448	65.035
1432	65.3133
1416	65.2282
1400	65.1999
1384	65.0926
1368	65.0462
1352	64.9355
1336	65.2829
1320	65.2163
1304	65.098
1288	65.0264
1272	65.0935
1256	64.9692
1240	64.8611
1224	64.955
1208	65.102
1192	64.989
1176	64.9317
1160	64.8957
1144	64.763
1128	64.9979
1112	64.8295
1096	64.8888
1080	65.0383
1064	64.6349
1048	64.6136
1032	64.7857
1016	64.8505
1000	64.4486
984	 64.7445
968	 64.5162
952	 64.7786
936	 64.9937
920	 65.359
904	 65.0043
888	 64.6194
872	 64.0772
856	 64.3608
840	 64.7018
824	 64.5744
808	 64.3248
792	 64.0194
776	 64.0893
760	 64.337
744	 64.2429
728	 64.4536
712	 63.771
696	 63.457
680	 63.3626
664	 63.0995
648	 63.2206
632	 62.6261
616	 62.738
600	 63.497
584	 62.893
568	 62.9604
552	 62.67
536	 62.8205
520	 62.3267
504	 61.7631
488	 60.3959
472	 60.6832
456	 59.9588
440	 59.3678
424	 56.5596
408	 62.8774
392	 76.0647
376	 60.96
370	 110.557

File: C-4040-8_t82.asc
PE IR       SPECTRUM    SPECTRUM    ASCII       PEDS        1.60
  -1
C-A542~1.ASC
17/03/27
21:12:38.00
17/03/27
21:13:04.00
tln
$C-4040-8_t0082$<tbV0>[2.6,5.2,8.0,0.0,27,1,0]
27.028
64

2002,4.07
MIRTGS : RIGHTBACK : INTERNAL 2
MIR : ON : INTERNAL 2
OPTKBR

0.200000
8
8.000000
FILLER
RATIO
SPECTRUM
UNLOCKED 256

DOUBLE
64
COMBINED
1
0
0

0.002000
RATIO

1
0
TRUE
51149
0
LEFT NOT FITTED RIGHT NOT FITTED 0
NONE
NONE
15600
12
4.427000
51148
TRUE
1 0 8 72 0 0 0 0

15798

#HDR
-1
-1
#GR
µM
%T
2.38419e-05
0.0
2.000000
0.002000
12515
8
91.2511
51.0507
#DATA
2.000000	 64.9535
2.084000	 65.0658
2.168000	 65.1138
2.252000	 64.5315
2.336000	 64.8564
2.420000	 65.0535
2.504000	 65.2477
2.588000	 65.2797
2.672000	 65.3791
2.756000	 65.1327
2.840000	 65.1705
2.924000	 65.2969
3.008000	 65.1121
3.092000	 65.24
3.176000	 65.2853
3.260000	 65.4578
3.344000	 65.1955
3.428000	 64.7103
3.512000	 64.9915
3.596000	 65.2559
3.680000	 65.4558
3.764000	 65.3298
3.848000	 65.2303
3.932000	 65.2428
4.016000	 65.3542
4.100000	 65.4927
4.184000	 65.3257
4.268000	 65.3693
4.352000	 65.306
4.436000	 65.2705
4.520000	 65.429
4.604000	 65.3946
4.688000	 65.2401
4.772000	 65.4433
4.856000	 65.4655
4.940000	 65.3138
5.024000	 65.2453
5.108000	 65.4263
5.192000	 65.4484
5.276000	 65.4185
5.359999	 65.4789
5.444000	 65.3649
5.528000	 65.3873
5.612000	 65.3461
5.696000	 65.3116
5.780000	 65.1761
5.864000	 65.3001
5.948000	 65.3291
6.032000	 65.4402
6.116000	 65.1408
6.200000	 65.2895
6.284000	 65.1648
6.368000	 65.1513
6.452000	 65.1211
6.536000	 65.1469
6.620000	 65.1295
6.704000	 65.1821
6.788000	 65.2378
6.872000	 64.9304
6.956000	 65.4258
7.040000	 65.2814
7.124000	 65.0709
7.208000	 65.078
7.292000	 65.1295
7.376000	 65.1066
7.460000	 65.259
7.544000	 65.2022
7.628000	 65.0291
7.712000	 65.2212
7.796000	 65.2231
7.880000	 65.0649
7.964000	 65.1044
8.048000	 65.0847
8.132000	 65.0517
8.216000	 64.9709
8.300000	 65.1809
8.384000	 64.9942
8.468000	 64.9977
8.552000	 64.7176
8.635999	 65.079
8.719999	 65.0357
8.804000	 64.9465
8.888000	 65.1695
8.972000	 64.8544
9.056000	 64.9472
9.140000	 64.7603
9.224000	 64.7322
9.308000	 64.9633
9.391999	 64.6795
9.475999	 64.6216
9.560000	 64.8431
9.644000	 64.9167
9.728000	 64.5898
9.812000	 64.3111
9.896000	 64.7934
9.980000	 64.7115
10.064	64.5872
10.148	64.8427
10.232	64.793
10.316	64.8395
10.4	64.6546
10.484	65.2265
10.568	64.7025
10.652	65.2342
10.736	64.9473
10.82	65.0153
10.904	64.7262
10.988	64.44
11.072	64.9503
11.156	64.8889
11.24	64.8081
11.324	64.8224
11.408	64.5595
11.492	64.7203
11.576	64.5442
11.66	64.4329
11.744	64.5908
11.828	64.7258
11.912	64.7961
11.996	64.6978
12.08	64.5662
12.164	64.4772
12.248	64.5603
12.332	64.5732
12.416	64.6427
12.5	64.4988
12.584	64.1175
12.668	64.1831
12.752	64.2812
12.836	64.2643
12.92	64.4404
13.004	64.455
13.088	64.3516
13.172	64.4415
13.256	64.6113
13.34	64.3799
13.424	63.9069
13.508	63.5156
13.592	63.4769
13.676	63.6799
13.76	63.7347
13.844	63.9172
13.928	64.2557
14.012	64.233
14.096	63.7992
14.18	63.4323
14.264	63.5642
14.348	63.8559
14.432	63.8365
14.516	63.5629
14.6	63.3423
14.684	63.4533
14.768	63.6021
14.852	63.6
14.936	63.7565
15.02	63.8021
15.104	63.4203
15.188	63.0854
15.272	63.1497
15.356	63.409
15.44	63.4777
15.524	63.1929
15.608	62.8068
15.692	62.625
15.776	62.7419
15.86	63.0359
15.944	63.1775
16.028	62.9764
16.112	62.6237
16.196	62.4033
16.28	62.4268
16.364	62.5781
16.448	62.6242
16.532	62.5575
16.616	62.6003
16.7	62.7735
16.784	62.8833
16.868	62.9249
16.952	63.0577
17.036	63.2511
17.12	63.291
17.204	63.0926
17.288	62.849
17.372	62.826
17.456	63.0532
17.54	63.2823
17.624	63.2587
17.708	62.9872
17.792	62.6836
17.876	62.5525
17.96	62.6333
18.044	62.819
18.128	62.9375
18.212	62.8581
18.296	62.5763
18.38	62.225
18.464	61.9813
18.548	61.9262
18.632	61.9934
18.716	62.0768
18.8	62.1568
18.884	62.2735
18.968	62.3991
19.052	62.4166
19.136	62.2566
19.22	61.9958
19.304	61.7876
19.388	61.7212
19.472	61.7882
19.556	61.9246
19.64	62.0566
19.724	62.1214
19.808	62.0899
19.892	61.9975
19.976	61.9338
20.06	61.9826
20.144	62.1326
20.228	62.2667
20.312	62.2513
20.396	62.053
20.48	61.7749
20.564	61.5792
20.648	61.5572
20.732	61.6783
20.816	61.8176
20.9	61.8466
20.984	61.6936
21.068	61.3565
21.152	60.8995
21.236	60.4248
21.32	60.0398
21.404	59.8068
21.488	59.7142
21.572	59.6884
21.656	59.6781
21.74	59.7044
21.824	59.872
21.908	60.2983
21.992	60.9899
22.076	61.8018
22.16	62.4778
22.244	62.7631
22.328	62.5513
22.412	61.9083
22.496	61.0478
22.58	60.2218
22.664	59.6152
22.748	59.2583
22.832	59.0296
22.916	58.7211
23	58.1187
23.084	57.1314
23.168	55.8591
23.252	54.5595
23.336	53.5682
23.42	53.1588
23.504	53.4609
23.588	54.4134
23.672	55.8202
23.756	57.3935
23.84	58.756
23.924	59.5238
24.008	59.4068
24.092	58.3158
24.176	56.4785
24.26	54.4224
24.344	52.8334
24.428	52.2441
24.512	52.9528
24.596	54.841
24.68	57.3552
24.764	59.6682
24.848	61.0417
24.932	61.1042
25.016	60.0794
25.1	58.6638
25.184	57.779
25.268	58.1641
25.352	60.1613
25.436	63.8049
25.52	68.8375
25.604	74.7952
25.688	80.9992
25.772	86.5125
25.856	90.2433
25.94	91.1724
26.024	88.698
26.108	83.0187
26.192	75.0733
26.276	66.3377
26.36	58.6005
26.444	53.2918
26.528	51.0973
26.612	52.0663
26.696	55.5276
26.78	60.266
26.864	64.8903
26.948	68.337
27.028	70.2437

File: C-4040-8_t82_cm-1.asc
PE IR       SPECTRUM    SPECTRUM    ASCII       PEDS        1.60
  -1
C-9D64~1.ASC
17/03/27
21:12:38.00
17/03/27
21:12:38.00
tln
$C-4040-8_t0082$<tbV0>[2.6,5.2,8.0,0.0,27,1,0]
370
64

2002,4.07
MIRTGS : RIGHTBACK : INTERNAL 2
MIR : ON : INTERNAL 2
OPTKBR

0.200000
8
8.000000
FILLER
RATIO
SPECTRUM
UNLOCKED 256

DOUBLE
64
COMBINED
1
0
0

1.000000
RATIO

1
0
TRUE
51149
0
LEFT NOT FITTED RIGHT NOT FITTED 0
NONE
NONE
15600
12
4.427000
51148
TRUE
1 0 8 72 0 0 0 0

15798

#HDR
-1
-1
#GR
CM-1
%T
2.38419e-05
0.0
5000
-1.000000
4631
8
91.2029
51.1184
#DATA
5000	64.9535
4984	65.0192
4968	64.6444
4952	65.9827
4936	64.8584
4920	64.9187
4904	64.8287
4888	64.8638
4872	65.6
4856	65.4937
4840	64.716
4824	65.3477
4808	65.0259
4792	65.05
4776	65.0225
4760	65.4002
4744	65.5726
4728	64.9465
4712	65.8216
4696	64.909
4680	65.2659
4664	65.361
4648	65.1599
4632	65.1873
4616	64.9536
4600	64.8098
4584	64.6784
4568	64.7429
4552	64.8581
4536	64.9146
4520	64.2039
4504	64.8158
4488	64.7656
4472	64.6558
4456	64.487
4440	64.5492
4424	65.0047
4408	64.221
4392	62.6417
4376	73.3693
4360	64.4209
4344	64.8647
4328	64.6752
4312	65.0739
4296	65.1275
4280	64.8303
4264	64.7011
4248	64.6926
4232	65.1424
4216	65.2059
4200	65.1347
4184	64.9493
4168	64.9611
4152	65.3488
4136	65.0199
4120	65.1803
4104	65.166
4088	65.2317
4072	65.1419
4056	65.2704
4040	65.1538
4024	65.0836
4008	65.3113
3992	65.1912
3976	65.2714
3960	65.1977
3944	65.1391
3928	65.101
3912	65.4287
3896	65.3075
3880	65.1233
3864	65.28
3848	64.9089
3832	65.0866
3816	65.2075
3800	65.0928
3784	65.0573
3768	65.2086
3752	65.4125
3736	65.1839
3720	65.3129
3704	65.0698
3688	65.0852
3672	65.3543
3656	65.302
3640	65.328
3624	65.2714
3608	65.1682
3592	65.4747
3576	65.0229
3560	65.3445
3544	65.0134
3528	65.1051
3512	65.1137
3496	65.4018
3480	65.3219
3464	65.2688
3448	65.281
3432	65.0509
3416	65.3057
3400	64.7772
3384	65.3648
3368	65.3198
3352	65.0961
3336	65.2507
3320	65.1274
3304	65.2797
3288	65.2184
3272	65.3808
3256	65.294
3240	65.1462
3224	65.0784
3208	65.3967
3192	65.4025
3176	65.1009
3160	65.2511
3144	65.4464
3128	65.4804
3112	65.2472
3096	65.3143
3080	65.2267
3064	65.3792
3048	65.2501
3032	65.2259
3016	65.0747
3000	65.0295
2984	65.2328
2968	65.1285
2952	65.0936
2936	65.0957
2920	64.7284
2904	65.1082
2888	65.2262
2872	65.0353
2856	65.2809
2840	65.1684
2824	65.1924
2808	65.3645
2792	65.3032
2776	65.323
2760	65.4014
2744	65.3985
2728	65.3434
2712	65.5149
2696	65.2024
2680	65.4083
2664	65.2657
2648	65.2503
2632	65.3354
2616	65.369
2600	65.2213
2584	65.3109
2568	65.2432
2552	65.3281
2536	65.2051
2520	65.4312
2504	65.3696
2488	65.3915
2472	65.2888
2456	65.3336
2440	65.489
2424	65.382
2408	65.3762
2392	65.3149
2376	65.295
2360	65.2651
2344	65.3644
2328	65.363
2312	65.3579
2296	65.2994
2280	65.4026
2264	65.3414
2248	65.3592
2232	65.4581
2216	65.4208
2200	65.2689
2184	65.2932
2168	65.3634
2152	65.2998
2136	65.1894
2120	65.3864
2104	65.4916
2088	65.4252
2072	65.4851
2056	65.6963
2040	65.4532
2024	65.3141
2008	65.5082
1992	65.2762
1976	65.3394
1960	65.3992
1944	65.358
1928	65.402
1912	65.3704
1896	65.4069
1880	65.2907
1864	65.4679
1848	65.3358
1832	65.3662
1816	65.6049
1800	65.329
1784	65.2909
1768	65.3694
1752	65.3241
1736	65.2104
1720	65.1411
1704	65.2533
1688	65.379
1672	65.3573
1656	65.4644
1640	65.159
1624	65.1213
1608	65.1851
1592	65.1532
1576	65.0666
1560	65.0903
1544	65.0982
1528	65.1565
1512	65.1432
1496	65.1865
1480	65.2059
1464	65.2454
1448	64.9113
1432	65.4062
1416	65.3564
1400	65.0551
1384	65.0796
1368	65.0535
1352	65.0174
1336	65.3764
1320	65.149
1304	65.1834
1288	65.2791
1272	65.0791
1256	65.1099
1240	65.0806
1224	64.9872
1208	65.2236
1192	64.9887
1176	64.9535
1160	65.0159
1144	64.9688
1128	65.1554
1112	64.8182
1096	64.8444
1080	64.8978
1064	64.6818
1048	64.7799
1032	64.8221
1016	64.4537
1000	64.6257
984	 64.8928
968	 64.8548
952	 65.0865
936	 65.161
920	 64.8992
904	 64.9035
888	 64.8411
872	 64.6655
856	 64.4655
840	 64.7944
824	 64.4984
808	 64.601
792	 64.0906
776	 64.3667
760	 64.4085
744	 63.8147
728	 63.7276
712	 64.0933
696	 63.8841
680	 63.5091
664	 63.6559
648	 63.4872
632	 62.9025
616	 62.3852
600	 62.7021
584	 63.2873
568	 63.29
552	 62.9308
536	 62.0194
520	 61.9634
504	 62.0565
488	 61.7393
472	 60.7003
456	 60.4552
440	 59.3278
424	 54.3694
408	 52.9184
392	 68.1951
376	 51.6585
370	 70.2437

File: C-4040-8_t83.asc
PE IR       SPECTRUM    SPECTRUM    ASCII       PEDS        1.60
  -1
C-A546~1.ASC
17/03/27
21:17:15.00
17/03/27
21:17:41.00
tln
$C-4040-8_t0083$<tbV0>[0.0,5.2,8.0,0.0,27,1,0]
27.028
64

2002,4.07
MIRTGS : RIGHTBACK : INTERNAL 2
MIR : ON : INTERNAL 2
OPTKBR

0.200000
8
8.000000
FILLER
RATIO
SPECTRUM
UNLOCKED 256

DOUBLE
64
COMBINED
1
0
0

0.002000
RATIO

1
0
TRUE
51149
0
LEFT NOT FITTED RIGHT NOT FITTED 0
NONE
NONE
15600
12
4.427000
51148
TRUE
1 0 8 72 0 0 0 0

15798

#HDR
-1
-1
#GR
µM
%T
2.38419e-05
0.0
2.000000
0.002000
12515
8
98.9237
39.404
#DATA
2.000000	 65.1747
2.084000	 64.7765
2.168000	 64.9806
2.252000	 64.591
2.336000	 64.8979
2.420000	 65.041
2.504000	 65.3037
2.588000	 65.5555
2.672000	 65.2325
2.756000	 65.3277
2.840000	 65.2092
2.924000	 65.3689
3.008000	 65.2035
3.092000	 65.3869
3.176000	 65.363
3.260000	 65.3042
3.344000	 65.1222
3.428000	 64.9007
3.512000	 65.1764
3.596000	 65.4592
3.680000	 65.5003
3.764000	 65.2251
3.848000	 65.2739
3.932000	 65.2146
4.016000	 65.5147
4.100000	 65.1908
4.184000	 65.4772
4.268000	 65.3765
4.352000	 65.4382
4.436000	 65.3542
4.520000	 65.3583
4.604000	 65.3549
4.688000	 65.3067
4.772000	 65.5423
4.856000	 65.2855
4.940000	 65.5279
5.024000	 65.4132
5.108000	 65.2652
5.192000	 65.4557
5.276000	 65.2836
5.359999	 65.4274
5.444000	 65.3518
5.528000	 65.3917
5.612000	 65.3904
5.696000	 65.3582
5.780000	 65.1917
5.864000	 65.0339
5.948000	 65.3239
6.032000	 65.4198
6.116000	 65.2621
6.200000	 65.1468
6.284000	 65.1912
6.368000	 65.0536
6.452000	 65.1124
6.536000	 65.2132
6.620000	 65.2176
6.704000	 65.0906
6.788000	 65.186
6.872000	 65.3297
6.956000	 65.3723
7.040000	 65.2477
7.124000	 65.1721
7.208000	 65.1808
7.292000	 65.2404
7.376000	 65.0494
7.460000	 65.2235
7.544000	 65.0206
7.628000	 65.0658
7.712000	 65.102
7.796000	 65.2807
7.880000	 65.0635
7.964000	 64.9415
8.048000	 64.9875
8.132000	 65.0493
8.216000	 65.0338
8.300000	 65.1739
8.384000	 65.1216
8.468000	 64.9446
8.552000	 64.945
8.635999	 65.0908
8.719999	 64.8017
8.804000	 64.8313
8.888000	 65.0503
8.972000	 64.853
9.056000	 64.8001
9.140000	 64.851
9.224000	 64.9526
9.308000	 64.7151
9.391999	 64.7163
9.475999	 64.7873
9.560000	 64.785
9.644000	 65.0954
9.728000	 64.876
9.812000	 64.6895
9.896000	 64.6358
9.980000	 64.6129
10.064	64.8695
10.148	64.7458
10.232	64.8455
10.316	64.9724
10.4	64.5174
10.484	64.8459
10.568	65.3916
10.652	65.3374
10.736	64.7708
10.82	64.7107
10.904	65.0096
10.988	64.4988
11.072	64.7849
11.156	64.6636
11.24	64.3303
11.324	64.5972
11.408	64.5497
11.492	64.323
11.576	64.4075
11.66	64.412
11.744	64.4528
11.828	64.9175
11.912	65.0374
11.996	64.699
12.08	64.66
12.164	64.6026
12.248	64.6079
12.332	64.6135
12.416	64.1511
12.5	64.0767
12.584	64.0229
12.668	64.2455
12.752	64.6202
12.836	64.5403
12.92	64.2097
13.004	64.158
13.088	64.1339
13.172	63.9942
13.256	63.8578
13.34	63.9343
13.424	64.1415
13.508	64.014
13.592	63.8803
13.676	64.027
13.76	64.1626
13.844	64.0743
13.928	63.7809
14.012	63.5805
14.096	63.4495
14.18	63.4109
14.264	63.6301
14.348	63.8913
14.432	63.7821
14.516	63.5049
14.6	63.5073
14.684	63.5365
14.768	63.4474
14.852	63.4331
14.936	63.5093
15.02	63.5991
15.104	63.5622
15.188	63.3778
15.272	63.2714
15.356	63.3241
15.44	63.3703
15.524	63.3382
15.608	63.2533
15.692	63.1315
15.776	63.0496
15.86	63.033
15.944	63.0267
16.028	63.0555
16.112	63.0663
16.196	62.9599
16.28	62.8704
16.364	62.9262
16.448	63.0605
16.532	63.2596
16.616	63.4405
16.7	63.374
16.784	63.1397
16.868	63.0649
16.952	63.1942
17.036	63.3162
17.12	63.3461
17.204	63.3258
17.288	63.2645
17.372	63.1815
17.456	63.1396
17.54	63.1396
17.624	63.0602
17.708	62.7815
17.792	62.3552
17.876	62.0077
17.96	61.8995
18.044	61.9631
18.128	62.0481
18.212	62.123
18.296	62.227
18.38	62.3208
18.464	62.3125
18.548	62.1732
18.632	61.9348
18.716	61.6588
18.8	61.4472
18.884	61.3963
18.968	61.5007
19.052	61.649
19.136	61.7495
19.22	61.7948
19.304	61.7911
19.388	61.7053
19.472	61.5428
19.556	61.398
19.64	61.3675
19.724	61.4376
19.808	61.4851
19.892	61.3936
19.976	61.1528
20.06	60.8514
20.144	60.5899
20.228	60.4172
20.312	60.353
20.396	60.4314
20.48	60.707
20.564	61.1881
20.648	61.7481
20.732	62.1552
20.816	62.2027
20.9	61.8504
20.984	61.2401
21.068	60.5919
21.152	60.0694
21.236	59.7097
21.32	59.4364
21.404	59.1327
21.488	58.7336
21.572	58.2752
21.656	57.9062
21.74	57.8152
21.824	58.1124
21.908	58.7247
21.992	59.4179
22.076	59.9238
22.16	60.0678
22.244	59.8602
22.328	59.4609
22.412	59.072
22.496	58.8402
22.58	58.7767
22.664	58.7782
22.748	58.6861
22.832	58.3899
22.916	57.8885
23	57.2876
23.084	56.7418
23.168	56.3664
23.252	56.1466
23.336	55.9573
23.42	55.716
23.504	55.4138
23.588	55.1663
23.672	55.1553
23.756	55.5139
23.84	56.2186
23.924	57.0729
24.008	57.7973
24.092	58.1615
24.176	58.1149
24.26	57.8118
24.344	57.5685
24.428	57.7165
24.512	58.5171
24.596	60.024
24.68	61.8442
24.764	63.1041
24.848	62.8623
24.932	60.4657
25.016	56.0049
25.1	50.3526
25.184	44.919
25.268	41.03
25.352	39.4314
25.436	40.2118
25.52	42.8605
25.604	46.6219
25.688	50.627
25.772	54.0988
25.856	56.4884
25.94	57.5145
26.024	57.1692
26.108	55.706
26.192	53.7935
26.276	52.4298
26.36	52.7325
26.444	55.5955
26.528	61.2933
26.612	69.0613
26.696	77.5047
26.78	85.1506
26.864	90.7167
26.948	93.3861
27.028	92.7982

File: C-4040-8_t83_cm-1.asc
PE IR       SPECTRUM    SPECTRUM    ASCII       PEDS        1.60
  -1
C-9DE1~1.ASC
17/03/27
21:17:15.00
17/03/27
21:17:15.00
tln
$C-4040-8_t0083$<tbV0>[0.0,5.2,8.0,0.0,27,1,0]
370
64

2002,4.07
MIRTGS : RIGHTBACK : INTERNAL 2
MIR : ON : INTERNAL 2
OPTKBR

0.200000
8
8.000000
FILLER
RATIO
SPECTRUM
UNLOCKED 256

DOUBLE
64
COMBINED
1
0
0

1.000000
RATIO

1
0
TRUE
51149
0
LEFT NOT FITTED RIGHT NOT FITTED 0
NONE
NONE
15600
12
4.427000
51148
TRUE
1 0 8 72 0 0 0 0

15798

#HDR
-1
-1
#GR
CM-1
%T
2.38419e-05
0.0
5000
-1.000000
4631
8
99.1874
39.4419
#DATA
5000	65.1747
4984	65.2862
4968	64.1862
4952	65.752
4936	64.852
4920	64.4023
4904	65.2305
4888	65.1092
4872	65.7249
4856	64.9838
4840	65.2313
4824	65.3964
4808	65.075
4792	64.7058
4776	65.3436
4760	65.3097
4744	65.5097
4728	64.7701
4712	65.6377
4696	65.3685
4680	65.3904
4664	65.1975
4648	65.2469
4632	65.6396
4616	65.1108
4600	64.853
4584	65.5681
4568	65.1451
4552	65.1795
4536	65.0764
4520	64.965
4504	64.5271
4488	64.9976
4472	64.7092
4456	64.1761
4440	64.6387
4424	64.3634
4408	64.3603
4392	63.649
4376	78.4196
4360	63.9618
4344	64.9049
4328	65.0748
4312	64.8608
4296	64.8772
4280	64.8852
4264	65.0289
4248	64.739
4232	64.7123
4216	64.8932
4200	64.9239
4184	65.3061
4168	65.3051
4152	64.9734
4136	65.2347
4120	65.1258
4104	65.1083
4088	65.2067
4072	65.1499
4056	65.2921
4040	65.3611
4024	65.2562
4008	65.2633
3992	65.2452
3976	65.3243
3960	65.0531
3944	65.2485
3928	65.0575
3912	65.4645
3896	65.4142
3880	64.9633
3864	65.5555
3848	65.2326
3832	65.1173
3816	65.3149
3800	65.2467
3784	65.2451
3768	65.1207
3752	65.2794
3736	65.0632
3720	65.2365
3704	65.2674
3688	65.3231
3672	65.2267
3656	65.4506
3640	65.3714
3624	65.409
3608	65.1609
3592	65.4218
3576	65.1534
3560	65.2896
3544	65.147
3528	65.3426
3512	65.2858
3496	65.3144
3480	65.3652
3464	65.0348
3448	65.4499
3432	65.3309
3416	65.5195
3400	65.1174
3384	65.4574
3368	65.0811
3352	65.2216
3336	65.3452
3320	65.2433
3304	65.3465
3288	65.3519
3272	65.2338
3256	65.3586
3240	65.2495
3224	65.3923
3208	65.3962
3192	65.2945
3176	65.091
3160	65.3065
3144	65.4305
3128	65.2989
3112	65.2825
3096	65.3786
3080	65.0968
3064	65.232
3048	65.2524
3032	65.3307
3016	65.2815
3000	65.1055
2984	65.2122
2968	65.1195
2952	65.1777
2936	65.0433
2920	64.9382
2904	65.2112
2888	65.2717
2872	65.1664
2856	65.1337
2840	65.2401
2824	65.2987
2808	65.2707
2792	65.2602
2776	65.4486
2760	65.3559
2744	65.3528
2728	65.2995
2712	65.3904
2696	65.2578
2680	65.3481
2664	65.3505
2648	65.3957
2632	65.3164
2616	65.2526
2600	65.2917
2584	65.2895
2568	65.2456
2552	65.3873
2536	65.3093
2520	65.3274
2504	65.2489
2488	65.5409
2472	65.4284
2456	65.5081
2440	65.2243
2424	65.5903
2408	65.2876
2392	65.5287
2376	65.4587
2360	65.3484
2344	65.3824
2328	65.2841
2312	65.4357
2296	65.4474
2280	65.4348
2264	65.3025
2248	65.4001
2232	65.461
2216	65.4001
2200	65.4239
2184	65.3639
2168	65.1975
2152	65.3902
2136	65.177
2120	65.4627
2104	65.3492
2088	65.4588
2072	65.4939
2056	65.14
2040	65.3999
2024	65.5267
2008	65.3306
1992	65.4203
1976	65.2468
1960	65.2152
1944	65.3197
1928	65.4377
1912	65.3075
1896	65.2789
1880	65.4227
1864	65.4312
1848	65.3479
1832	65.3823
1816	65.4833
1800	65.4525
1784	65.3738
1768	65.3044
1752	65.2981
1736	65.1402
1720	65.1132
1704	65.1381
1688	65.3322
1672	65.3487
1656	65.4032
1640	65.2392
1624	65.2593
1608	65.0144
1592	65.1889
1576	65.0563
1560	65.0933
1544	65.1051
1528	65.2371
1512	65.1619
1496	65.0651
1480	65.189
1464	65.1392
1448	65.0516
1432	65.3055
1416	65.2923
1400	65.1564
1384	65.1845
1368	65.1261
1352	64.9795
1336	65.2112
1320	65.0807
1304	65.0908
1288	65.1649
1272	65.0976
1256	64.9409
1240	64.94
1224	64.9104
1208	65.1727
1192	65.1408
1176	64.8565
1160	65.1199
1144	64.7216
1128	65.1038
1112	64.7057
1096	64.9002
1080	64.8433
1064	64.7171
1048	64.6782
1032	64.9215
1016	64.6702
1000	64.6855
984	 64.7088
968	 64.9076
952	 65.0018
936	 65.1582
920	 65.0206
904	 64.7509
888	 64.3646
872	 64.3868
856	 64.3756
840	 65.0548
824	 64.6511
808	 64.3707
792	 64.0725
776	 64.3234
760	 64.0205
744	 64.1467
728	 64.1405
712	 63.5288
696	 63.9067
680	 63.5169
664	 63.6056
648	 63.3696
632	 63.0366
616	 62.9044
600	 63.4358
584	 63.346
568	 63.0922
552	 62.0374
536	 61.8538
520	 61.7975
504	 61.4692
488	 60.7632
472	 59.9048
456	 58.9083
440	 58.7255
424	 55.1719
408	 58.4869
392	 42.4829
376	 67.4737
370	 92.7982