Folder: Masteroppgave/Bakgrunnsmateriale/MATLAB/FTIR/ftir_data/subBb/Mapping_36

File: C-4040-8_e37.asc
PE IR       SPECTRUM    SPECTRUM    ASCII       PEDS        1.60
  -1
C-4040~2.ASC
17/05/02
10:48:50.00
17/05/02
10:49:17.00
tln
$C-4040-8_e0037$<ebV0>[-23.3,12.1,10.0,0.0,22,1,0]
27.028
64

2002,4.07
MIRTGS : RIGHTBACK : INTERNAL 2
MIR : ON : INTERNAL 2
OPTKBR

0.200000
8
8.000000
FILLER
SINGLE
SPECTRUM
UNLOCKED 256

DOUBLE

COMBINED
1
0
0

0.002000
BACKG

1
0
TRUE
51149
0
LEFT NOT FITTED RIGHT NOT FITTED 0
NONE
NONE
15600
12
4.427000
51148
TRUE
1 0 8 72 0 0 0 0

15798

#HDR
-1
-1
#GR
µM
EGY
2.38419e-05
0.0
1.282000
0.002000
12874
8
2.447628
0.006937
#DATA
1.282000	 0.034904
1.368000	 0.104510
1.454000	 0.167507
1.540000	 0.217805
1.626000	 0.308670
1.712000	 0.394140
1.798000	 0.459708
1.884000	 0.578850
1.970000	 0.720456
2.056000	 0.828776
2.142000	 0.907036
2.228000	 1.003948
2.314000	 1.097580
2.400000	 1.208921
2.486000	 1.363915
2.572000	 1.440432
2.658000	 1.551011
2.744000	 1.576480
2.830000	 1.622439
2.916000	 1.581553
3.002000	 1.671598
3.088000	 1.775963
3.174000	 1.805422
3.260000	 1.923262
3.346000	 2.024755
3.432000	 1.878001
3.518000	 2.049604
3.604000	 2.219768
3.690000	 2.249065
3.776000	 2.222767
3.862000	 2.233711
3.948000	 2.301473
4.034000	 2.319443
4.120000	 2.275744
4.206000	 2.244866
4.292000	 2.278619
4.378000	 2.353262
4.464000	 2.374046
4.550000	 2.354680
4.636000	 2.329103
4.722000	 2.333184
4.808000	 2.341800
4.894000	 2.408833
4.980000	 2.444605
5.066000	 2.436187
5.152000	 2.408001
5.238000	 2.375693
5.324000	 2.368305
5.410000	 2.384443
5.496000	 2.409191
5.582000	 2.416308
5.668000	 2.401471
5.754000	 2.325537
5.840000	 2.290103
5.926000	 2.240579
6.012000	 2.204871
6.098000	 2.145127
6.184000	 2.039065
6.270000	 2.003672
6.356000	 1.973020
6.442000	 1.939750
6.528000	 2.075202
6.614000	 2.081017
6.700000	 1.670779
6.786000	 1.968336
6.872000	 1.785425
6.958000	 1.857419
7.044000	 1.847834
7.130000	 1.719516
7.216000	 1.779270
7.302000	 1.810089
7.388000	 1.810054
7.474000	 1.811392
7.560000	 1.844686
7.646000	 1.848674
7.732000	 1.848258
7.818000	 1.838511
7.904000	 1.724831
7.990000	 1.794920
8.076000	 1.827905
8.161999	 1.812947
8.248000	 1.756685
8.334000	 1.738007
8.420000	 1.726820
8.506000	 1.693021
8.592000	 1.642271
8.678000	 1.607613
8.763999	 1.586509
8.850000	 1.545657
8.936000	 1.489870
9.022000	 1.437337
9.108000	 1.420215
9.193999	 1.421600
9.280000	 1.420593
9.366000	 1.431738
9.452000	 1.395413
9.538000	 1.297814
9.624000	 1.375788
9.710000	 1.367317
9.795999	 1.354862
9.882000	 1.370713
9.968000	 1.390758
10.054	1.390025
10.14	1.381354
10.226	1.366259
10.312	1.344632
10.398	1.315914
10.484	1.288785
10.57	1.266682
10.656	1.251509
10.742	1.234622
10.828	1.219206
10.914	1.197436
11	1.170144
11.086	1.151598
11.172	1.143154
11.258	1.119648
11.344	1.060273
11.43	1.022418
11.516	1.054683
11.602	1.087827
11.688	1.090894
11.774	1.078066
11.86	1.069818
11.946	1.031972
12.032	0.942426
12.118	0.852574
12.204	0.875380
12.29	0.932910
12.376	0.946148
12.462	0.938838
12.548	0.942113
12.634	0.956577
12.72	0.970553
12.806	0.976581
12.892	0.973327
12.978	0.967378
13.064	0.962675
13.15	0.958661
13.236	0.953048
13.322	0.946897
13.408	0.939226
13.494	0.930700
13.58	0.921234
13.666	0.909692
13.752	0.896644
13.838	0.882660
13.924	0.868982
14.01	0.856258
14.096	0.843875
14.182	0.831294
14.268	0.814979
14.354	0.791470
14.44	0.760460
14.526	0.734564
14.612	0.728391
14.698	0.731667
14.784	0.729718
14.87	0.721953
14.956	0.712738
15.042	0.703986
15.128	0.695218
15.214	0.686200
15.3	0.677059
15.386	0.667290
15.472	0.657238
15.558	0.648472
15.644	0.640218
15.73	0.630359
15.816	0.619936
15.902	0.610989
15.988	0.602945
16.074	0.594205
16.16	0.583572
16.246	0.570383
16.332	0.554614
16.418	0.538035
16.504	0.525294
16.59	0.520007
16.676	0.519734
16.762	0.519231
16.848	0.516358
16.934	0.512181
17.02	0.508219
17.106	0.505080
17.192	0.502941
17.278	0.501012
17.364	0.498409
17.45	0.495200
17.536	0.492043
17.622	0.488794
17.708	0.484914
17.794	0.480343
17.88	0.475541
17.966	0.470614
18.052	0.465767
18.138	0.461338
18.224	0.457467
18.31	0.453828
18.396	0.449925
18.482	0.445422
18.568	0.440399
18.654	0.435367
18.74	0.430409
18.826	0.425349
18.912	0.419766
18.998	0.413780
19.084	0.407645
19.17	0.401716
19.256	0.396115
19.342	0.390861
19.428	0.385819
19.514	0.380810
19.6	0.375631
19.686	0.370250
19.772	0.364550
19.858	0.358217
19.944	0.351088
20.03	0.343341
20.116	0.335475
20.202	0.327994
20.288	0.321072
20.374	0.314377
20.46	0.307667
20.546	0.300661
20.632	0.293282
20.718	0.285791
20.804	0.278506
20.89	0.271630
20.976	0.265178
21.062	0.259140
21.148	0.253409
21.234	0.247934
21.32	0.242454
21.406	0.236836
21.492	0.230869
21.578	0.224443
21.664	0.217646
21.75	0.210576
21.836	0.203425
21.922	0.196409
22.008	0.189819
22.094	0.183781
22.18	0.178317
22.266	0.173446
22.352	0.168983
22.438	0.164748
22.524	0.160501
22.61	0.156146
22.696	0.151650
22.782	0.147014
22.868	0.142246
22.954	0.137329
23.04	0.132267
23.126	0.127076
23.212	0.121779
23.298	0.116509
23.384	0.111283
23.47	0.106173
23.556	0.101218
23.642	0.096414
23.728	0.091757
23.814	0.087241
23.9	0.082750
23.986	0.078317
24.072	0.073958
24.158	0.069742
24.244	0.065856
24.33	0.062380
24.416	0.059335
24.502	0.056644
24.588	0.054133
24.674	0.051657
24.76	0.049046
24.846	0.046268
24.932	0.043349
25.018	0.040327
25.104	0.037349
25.19	0.034512
25.276	0.031870
25.362	0.029459
25.448	0.027306
25.534	0.025381
25.62	0.023677
25.706	0.022188
25.792	0.020802
25.878	0.019440
25.964	0.018045
26.05	0.016618
26.136	0.015086
26.222	0.013493
26.308	0.011934
26.394	0.010578
26.48	0.009490
26.566	0.008681
26.652	0.008170
26.738	0.007843
26.824	0.007615
26.91	0.007374
26.996	0.007042
27.028	0.006937

File: C-4040-8_e37_cm-1.asc
PE IR       SPECTRUM    SPECTRUM    ASCII       PEDS        1.60
  -1
C-4040~1.ASC
17/05/02
10:48:50.00
17/05/02
10:48:50.00
tln
$C-4040-8_e0037$<ebV0>[-23.3,12.1,10.0,0.0,22,1,0]
370
64

2002,4.07
MIRTGS : RIGHTBACK : INTERNAL 2
MIR : ON : INTERNAL 2
OPTKBR

0.200000
8
8.000000
FILLER
SINGLE
SPECTRUM
UNLOCKED 256

DOUBLE

COMBINED
1
0
0

1.000000
BACKG

1
0
TRUE
51149
0
LEFT NOT FITTED RIGHT NOT FITTED 0
NONE
NONE
15600
12
4.427000
51148
TRUE
1 0 8 72 0 0 0 0

15798

#HDR
-1
-1
#GR
CM-1
EGY
2.38419e-05
0.0
7800
-1.000000
7431
8
2.447628
0.006937
#DATA
7800	0.034904
7775	0.040721
7750	0.044703
7725	0.051283
7700	0.054240
7675	0.056719
7650	0.060701
7625	0.064873
7600	0.071883
7575	0.071048
7550	0.074386
7525	0.082087
7500	0.085258
7475	0.087642
7450	0.087594
7425	0.089788
7400	0.092244
7375	0.099778
7350	0.102233
7325	0.104212
7300	0.110530
7275	0.110173
7250	0.113701
7225	0.115895
7200	0.120687
7175	0.125527
7150	0.130915
7125	0.132489
7100	0.131940
7075	0.137853
7050	0.141024
7025	0.145697
7000	0.148010
6975	0.151467
6950	0.159049
6925	0.159740
6900	0.164151
6875	0.168061
6850	0.170207
6825	0.174927
6800	0.179409
6775	0.182604
6750	0.185227
6725	0.186419
6700	0.187969
6675	0.195407
6650	0.196146
6625	0.199294
6600	0.200414
6575	0.203418
6550	0.209403
6525	0.213527
6500	0.217843
6475	0.222492
6450	0.225663
6425	0.233912
6400	0.240015
6375	0.245547
6350	0.252294
6325	0.259375
6300	0.269389
6275	0.272774
6250	0.281095
6225	0.286483
6200	0.295758
6175	0.301814
6150	0.308704
6125	0.316548
6100	0.322341
6075	0.332331
6050	0.340819
6025	0.347185
6000	0.357055
5975	0.362610
5950	0.371241
5925	0.377750
5900	0.380468
5875	0.384759
5850	0.391745
5825	0.399160
5800	0.402307
5775	0.412535
5750	0.418663
5725	0.425124
5700	0.430440
5675	0.428390
5650	0.434088
5625	0.443100
5600	0.445890
5575	0.455760
5550	0.464677
5525	0.476956
5500	0.483131
5475	0.495839
5450	0.505661
5425	0.518083
5400	0.530195
5375	0.537467
5350	0.549197
5325	0.564980
5300	0.582122
5275	0.595688
5250	0.614905
5225	0.646162
5200	0.641560
5175	0.647234
5150	0.678944
5125	0.688147
5100	0.704097
5075	0.721287
5050	0.736522
5025	0.754618
5000	0.767540
4975	0.780987
4950	0.790286
4925	0.801205
4900	0.810790
4875	0.821781
4850	0.838899
4825	0.850009
4800	0.865340
4775	0.878429
4750	0.888776
4725	0.897383
4700	0.898647
4675	0.906443
4650	0.913524
4625	0.922322
4600	0.935387
4575	0.953102
4550	0.967860
4525	0.989341
4500	0.996828
4475	1.007175
4450	1.004409
4425	1.007199
4400	0.907611
4375	1.063442
4350	1.067423
4325	1.093864
4300	1.119637
4275	1.143717
4250	1.165604
4225	1.182413
4200	1.196765
4175	1.205420
4150	1.222872
4125	1.239538
4100	1.263475
4075	1.292419
4050	1.328921
4025	1.361012
4000	1.387572
3975	1.404166
3950	1.416540
3925	1.428484
3900	1.432490
3875	1.445174
3850	1.462173
3825	1.490259
3800	1.511597
3775	1.546573
3750	1.542019
3725	1.569008
3700	1.577830
3675	1.564884
3650	1.569366
3625	1.582598
3600	1.593422
3575	1.605653
3550	1.620173
3525	1.621985
3500	1.618957
3475	1.608252
3450	1.593685
3425	1.581668
3400	1.594972
3375	1.611614
3350	1.646208
3325	1.684737
3300	1.716208
3275	1.747369
3250	1.766681
3225	1.783585
3200	1.785063
3175	1.792383
3150	1.805853
3125	1.834535
3100	1.870441
3075	1.915693
3050	1.954293
3025	1.959395
3000	2.017760
2975	1.996207
2950	1.914834
2925	1.764941
2900	1.962041
2875	1.998186
2850	1.982116
2825	2.122044
2800	2.175116
2775	2.219223
2750	2.248024
2725	2.252674
2700	2.243328
2675	2.234768
2650	2.222847
2625	2.221465
2600	2.226352
2575	2.253460
2550	2.283740
2525	2.308964
2500	2.321195
2475	2.317237
2450	2.299761
2425	2.274441
2400	2.254414
2375	2.242255
2350	2.258729
2325	2.287149
2300	2.332806
2275	2.361869
2250	2.375912
2225	2.371788
2200	2.356648
2175	2.337074
2150	2.331686
2125	2.332115
2100	2.332901
2075	2.346992
2050	2.394914
2025	2.434563
2000	2.447628
1975	2.437019
1950	2.415728
1925	2.390456
1900	2.365779
1875	2.367758
1850	2.384710
1825	2.401423
1800	2.419257
1775	2.406573
1750	2.371835
1725	2.315568
1700	2.246236
1675	2.225375
1650	2.154541
1625	2.102684
1600	1.985144
1575	1.973938
1550	1.946878
1525	2.102184
1500	1.844358
1475	1.968574
1450	1.759576
1425	1.862549
1400	1.725983
1375	1.804423
1350	1.807641
1325	1.842451
1300	1.847410
1275	1.821208
1250	1.805639
1225	1.812481
1200	1.737976
1175	1.690888
1150	1.603603
1125	1.520776
1100	1.421976
1075	1.421594
1050	1.294779
1025	1.357746
1000	1.392793
975	 1.359653
950	 1.277446
925	 1.222634
900	 1.148891
875	 1.022410
850	 1.079320
825	 0.851130
800	 0.938105
775	 0.972580
750	 0.946021
725	 0.890040
700	 0.810790
675	 0.727367
650	 0.667452
625	 0.601792
600	 0.519704
575	 0.497436
550	 0.459289
525	 0.410246
500	 0.346088
475	 0.259780
450	 0.175857
425	 0.102734
400	 0.040960
375	 0.008106
370	 0.006937

File: C-4040-8_e38.asc
PE IR       SPECTRUM    SPECTRUM    ASCII       PEDS        1.60
  -1
C-A13C~1.ASC
17/05/02
11:52:50.00
17/05/02
11:53:17.00
tln
$C-4040-8_e0038$<ebV0>[-23.3,12.1,10.0,0.0,22,1,0]
27.028
64

2002,4.07
MIRTGS : RIGHTBACK : INTERNAL 2
MIR : ON : INTERNAL 2
OPTKBR

0.200000
8
8.000000
FILLER
SINGLE
SPECTRUM
UNLOCKED 256

DOUBLE

COMBINED
1
0
0

0.002000
BACKG

1
0
TRUE
51149
0
LEFT NOT FITTED RIGHT NOT FITTED 0
NONE
NONE
15600
12
4.427000
51148
TRUE
1 0 8 72 0 0 0 0

15798

#HDR
-1
-1
#GR
µM
EGY
2.38419e-05
0.0
1.282000
0.002000
12874
8
2.449655
0.008630
#DATA
1.282000	 0.033617
1.368000	 0.108919
1.454000	 0.166357
1.540000	 0.218011
1.626000	 0.306624
1.712000	 0.393112
1.798000	 0.462558
1.884000	 0.582071
1.970000	 0.719484
2.056000	 0.832013
2.142000	 0.907891
2.228000	 1.012069
2.314000	 1.102577
2.400000	 1.213917
2.486000	 1.361847
2.572000	 1.438823
2.658000	 1.555240
2.744000	 1.577007
2.830000	 1.622063
2.916000	 1.583084
3.002000	 1.674294
3.088000	 1.774082
3.174000	 1.809233
3.260000	 1.924487
3.346000	 2.025475
3.432000	 1.878547
3.518000	 2.052548
3.604000	 2.222211
3.690000	 2.250328
3.776000	 2.221565
3.862000	 2.232446
3.948000	 2.303417
4.034000	 2.320610
4.120000	 2.275918
4.206000	 2.245314
4.292000	 2.279927
4.378000	 2.354630
4.464000	 2.374323
4.550000	 2.353027
4.636000	 2.328465
4.722000	 2.332132
4.808000	 2.340507
4.894000	 2.410051
4.980000	 2.445850
5.066000	 2.435666
5.152000	 2.406713
5.238000	 2.375959
5.324000	 2.366350
5.410000	 2.383922
5.496000	 2.410737
5.582000	 2.416112
5.668000	 2.402412
5.754000	 2.325446
5.840000	 2.292767
5.926000	 2.242768
6.012000	 2.206177
6.098000	 2.147403
6.184000	 2.039227
6.270000	 2.002207
6.356000	 1.973195
6.442000	 1.941723
6.528000	 2.073382
6.614000	 2.081958
6.700000	 1.669925
6.786000	 1.968469
6.872000	 1.787035
6.958000	 1.857805
7.044000	 1.851148
7.130000	 1.718784
7.216000	 1.779119
7.302000	 1.809490
7.388000	 1.807816
7.474000	 1.813580
7.560000	 1.844205
7.646000	 1.845383
7.732000	 1.847465
7.818000	 1.835491
7.904000	 1.723678
7.990000	 1.795078
8.076000	 1.825980
8.161999	 1.809142
8.248000	 1.755320
8.334000	 1.740665
8.420000	 1.726375
8.506000	 1.691504
8.592000	 1.640511
8.678000	 1.606927
8.763999	 1.585970
8.850000	 1.545607
8.936000	 1.490264
9.022000	 1.438071
9.108000	 1.420851
9.193999	 1.422099
9.280000	 1.422884
9.366000	 1.430461
9.452000	 1.392249
9.538000	 1.296986
9.624000	 1.374644
9.710000	 1.366936
9.795999	 1.353670
9.882000	 1.371117
9.968000	 1.390395
10.054	1.390518
10.14	1.378669
10.226	1.365137
10.312	1.341506
10.398	1.312701
10.484	1.286472
10.57	1.262588
10.656	1.251609
10.742	1.236861
10.828	1.219614
10.914	1.195989
11	1.167452
11.086	1.152449
11.172	1.144423
11.258	1.119316
11.344	1.057104
11.43	1.022365
11.516	1.048604
11.602	1.080280
11.688	1.090699
11.774	1.080680
11.86	1.068369
11.946	1.037028
12.032	0.943524
12.118	0.848519
12.204	0.876937
12.29	0.933267
12.376	0.946997
12.462	0.942604
12.548	0.943910
12.634	0.955708
12.72	0.968126
12.806	0.973252
12.892	0.971704
12.978	0.967330
13.064	0.962404
13.15	0.960007
13.236	0.955927
13.322	0.948782
13.408	0.940749
13.494	0.930540
13.58	0.919584
13.666	0.907374
13.752	0.894530
13.838	0.882308
13.924	0.869708
14.01	0.857507
14.096	0.845112
14.182	0.830464
14.268	0.813771
14.354	0.791388
14.44	0.759948
14.526	0.733539
14.612	0.728297
14.698	0.732601
14.784	0.730787
14.87	0.723159
14.956	0.713951
15.042	0.705399
15.128	0.697242
15.214	0.688403
15.3	0.678584
15.386	0.668069
15.472	0.657889
15.558	0.648622
15.644	0.639483
15.73	0.630050
15.816	0.620804
15.902	0.611461
15.988	0.601891
16.074	0.592862
16.16	0.583965
16.246	0.572834
16.332	0.557478
16.418	0.540010
16.504	0.527069
16.59	0.522514
16.676	0.522558
16.762	0.521343
16.848	0.517693
16.934	0.513702
17.02	0.510665
17.106	0.508046
17.192	0.504967
17.278	0.501659
17.364	0.498783
17.45	0.496351
17.536	0.493471
17.622	0.489708
17.708	0.485000
17.794	0.479864
17.88	0.474845
17.966	0.470118
18.052	0.465603
18.138	0.461170
18.224	0.456919
18.31	0.452875
18.396	0.448653
18.482	0.444015
18.568	0.439168
18.654	0.434267
18.74	0.429256
18.826	0.423956
18.912	0.418307
18.998	0.412384
19.084	0.406453
19.17	0.400481
19.256	0.394495
19.342	0.388646
19.428	0.383078
19.514	0.377759
19.6	0.372426
19.686	0.366959
19.772	0.361246
19.858	0.355207
19.944	0.348821
20.03	0.342145
20.116	0.335264
20.202	0.328256
20.288	0.321198
20.374	0.313994
20.46	0.306665
20.546	0.299186
20.632	0.291727
20.718	0.284560
20.804	0.277600
20.89	0.270991
20.976	0.264584
21.062	0.258450
21.148	0.252535
21.234	0.246906
21.32	0.241381
21.406	0.235826
21.492	0.229948
21.578	0.223700
21.664	0.216950
21.75	0.209906
21.836	0.202659
21.922	0.195520
22.008	0.188744
22.094	0.182669
22.18	0.177411
22.266	0.172914
22.352	0.168971
22.438	0.165180
22.524	0.161267
22.61	0.157037
22.696	0.152571
22.782	0.148021
22.868	0.143571
22.954	0.139128
23.04	0.134549
23.126	0.129639
23.212	0.124250
23.298	0.118503
23.384	0.112608
23.47	0.106822
23.556	0.101440
23.642	0.096583
23.728	0.092186
23.814	0.088180
23.9	0.084464
23.986	0.080921
24.072	0.077410
24.158	0.073837
24.244	0.070139
24.33	0.066132
24.416	0.061947
24.502	0.057655
24.588	0.053427
24.674	0.049537
24.76	0.046088
24.846	0.043090
24.932	0.040458
25.018	0.038000
25.104	0.035618
25.19	0.033278
25.276	0.031026
25.362	0.028898
25.448	0.027004
25.534	0.025371
25.62	0.023982
25.706	0.022805
25.792	0.021703
25.878	0.020625
25.964	0.019473
26.05	0.018256
26.136	0.016880
26.222	0.015468
26.308	0.014090
26.394	0.012850
26.48	0.011782
26.566	0.010958
26.652	0.010397
26.738	0.010013
26.824	0.009696
26.91	0.009336
26.996	0.008806
27.028	0.008630

File: C-4040-8_e38_cm-1.asc
PE IR       SPECTRUM    SPECTRUM    ASCII       PEDS        1.60
  -1
C-1BA1~1.ASC
17/05/02
11:52:50.00
17/05/02
11:52:50.00
tln
$C-4040-8_e0038$<ebV0>[-23.3,12.1,10.0,0.0,22,1,0]
370
64

2002,4.07
MIRTGS : RIGHTBACK : INTERNAL 2
MIR : ON : INTERNAL 2
OPTKBR

0.200000
8
8.000000
FILLER
SINGLE
SPECTRUM
UNLOCKED 256

DOUBLE

COMBINED
1
0
0

1.000000
BACKG

1
0
TRUE
51149
0
LEFT NOT FITTED RIGHT NOT FITTED 0
NONE
NONE
15600
12
4.427000
51148
TRUE
1 0 8 72 0 0 0 0

15798

#HDR
-1
-1
#GR
CM-1
EGY
2.38419e-05
0.0
7800
-1.000000
7431
8
2.449655
0.008630
#DATA
7800	0.033617
7775	0.039982
7750	0.045895
7725	0.048899
7700	0.052285
7675	0.057840
7650	0.062417
7625	0.065732
7600	0.068950
7575	0.073266
7550	0.077867
7525	0.078582
7500	0.081896
7475	0.087118
7450	0.087809
7425	0.090718
7400	0.094652
7375	0.097417
7350	0.099706
7325	0.100660
7300	0.106263
7275	0.112104
7250	0.114393
7225	0.119185
7200	0.123810
7175	0.123929
7150	0.129032
7125	0.131440
7100	0.136542
7075	0.141096
7050	0.146555
7025	0.148224
7000	0.152492
6975	0.155377
6950	0.158882
6925	0.160241
6900	0.164914
6875	0.167036
6850	0.174665
6825	0.174546
6800	0.177550
6775	0.187015
6750	0.187087
6725	0.190448
6700	0.191998
6675	0.195884
6650	0.199532
6625	0.196552
6600	0.202536
6575	0.206160
6550	0.207662
6525	0.214576
6500	0.216150
6475	0.223040
6450	0.229501
6425	0.237369
6400	0.236368
6375	0.246644
6350	0.251364
6325	0.259542
6300	0.265574
6275	0.277733
6250	0.282716
6225	0.287890
6200	0.293874
6175	0.300908
6150	0.306606
6125	0.313448
6100	0.325250
6075	0.331592
6050	0.338387
6025	0.348162
6000	0.353074
5975	0.362062
5950	0.368762
5925	0.374650
5900	0.379085
5875	0.385570
5850	0.391030
5825	0.398087
5800	0.406384
5775	0.414347
5750	0.417757
5725	0.422000
5700	0.427746
5675	0.433945
5650	0.436472
5625	0.436949
5600	0.446844
5575	0.457119
5550	0.468134
5525	0.475597
5500	0.486946
5475	0.496053
5450	0.506806
5425	0.517249
5400	0.526475
5375	0.536298
5350	0.553584
5325	0.570297
5300	0.586843
5275	0.613641
5250	0.593304
5225	0.629878
5200	0.646996
5175	0.659465
5150	0.673866
5125	0.686788
5100	0.703096
5075	0.720143
5050	0.738644
5025	0.755810
5000	0.767374
4975	0.781679
4950	0.792884
4925	0.804066
4900	0.811100
4875	0.824141
4850	0.837326
4825	0.850844
4800	0.868082
4775	0.877308
4750	0.890183
4725	0.896930
4700	0.901007
4675	0.907611
4650	0.911045
4625	0.922179
4600	0.936722
4575	0.955748
4550	0.973749
4525	0.993847
4500	1.004123
4475	1.013016
4450	1.016473
4425	1.021790
4400	1.031780
4375	1.080393
4350	1.068925
4325	1.098585
4300	1.123809
4275	1.146793
4250	1.169466
4225	1.185250
4200	1.199293
4175	1.208019
4150	1.222229
4125	1.243162
4100	1.262021
4075	1.298284
4050	1.327753
4025	1.359367
4000	1.386594
3975	1.404500
3950	1.419663
3925	1.426696
3900	1.436686
3875	1.449918
3850	1.462221
3825	1.491975
3800	1.518273
3775	1.547241
3750	1.541376
3725	1.572012
3700	1.577854
3675	1.566910
3650	1.572775
3625	1.580905
3600	1.595354
3575	1.605558
3550	1.617527
3525	1.624727
3500	1.624441
3475	1.609468
3450	1.594066
3425	1.585173
3400	1.597642
3375	1.615166
3350	1.646733
3325	1.683402
3300	1.718449
3275	1.747298
3250	1.769495
3225	1.782822
3200	1.787686
3175	1.793670
3150	1.809763
3125	1.831984
3100	1.869988
3075	1.916670
3050	1.954078
3025	1.961112
3000	2.020597
2975	1.996994
2950	1.916503
2925	1.766228
2900	1.962494
2875	1.997280
2850	1.986956
2825	2.121376
2800	2.176403
2775	2.221775
2750	2.248334
2725	2.253699
2700	2.245831
2675	2.236485
2650	2.221965
2625	2.221870
2600	2.226352
2575	2.253270
2550	2.283477
2525	2.310371
2500	2.322530
2475	2.319264
2450	2.299666
2425	2.274489
2400	2.258086
2375	2.242398
2350	2.258181
2325	2.290105
2300	2.333950
2275	2.361440
2250	2.373790
2225	2.372598
2200	2.355337
2175	2.337670
2150	2.331256
2125	2.332425
2100	2.335143
2075	2.346587
2050	2.396154
2025	2.433252
2000	2.448964
1975	2.436494
1950	2.415490
1925	2.392339
1900	2.366828
1875	2.367186
1850	2.383542
1825	2.403497
1800	2.421164
1775	2.406907
1750	2.371907
1725	2.315974
1700	2.252602
1675	2.227234
1650	2.154731
1625	2.102208
1600	1.984000
1575	1.974129
1550	1.948070
1525	2.101826
1500	1.841783
1475	1.968669
1450	1.760315
1425	1.860547
1400	1.725602
1375	1.804375
1350	1.806592
1325	1.842427
1300	1.846599
1275	1.819467
1250	1.805949
1225	1.808595
1200	1.740646
1175	1.689195
1150	1.603507
1125	1.520800
1100	1.421904
1075	1.424765
1050	1.294231
1025	1.356458
1000	1.392793
975	 1.357507
950	 1.273512
925	 1.223349
900	 1.149868
875	 1.022362
850	 1.082205
825	 0.847196
800	 0.941610
775	 0.971245
750	 0.947809
725	 0.888657
700	 0.809860
675	 0.728487
650	 0.668239
625	 0.600576
600	 0.522541
575	 0.498032
550	 0.458979
525	 0.408959
500	 0.344514
475	 0.259113
450	 0.175118
425	 0.103044
400	 0.038504
375	 0.010323
370	 0.008630