Folder: Masteroppgave/Bakgrunnsmateriale/MATLAB/FTIR/ftir_data/subBb/Mapping_121 (part 48)

File: C-4040-8_t111_cm-1.asc
PE IR       SPECTRUM    SPECTRUM    ASCII       PEDS        1.60
  -1
C-4609~1.ASC
17/03/27
23:39:47.00
17/03/27
23:39:47.00
tln
$C-4040-8_t0111$<tbV0>[13.0,13.0,8.0,0.0,27,1,0]
370
64

2002,4.07
MIRTGS : RIGHTBACK : INTERNAL 2
MIR : ON : INTERNAL 2
OPTKBR

0.200000
8
8.000000
FILLER
RATIO
SPECTRUM
UNLOCKED 256

DOUBLE
64
COMBINED
1
0
0

1.000000
RATIO

1
0
TRUE
51149
0
LEFT NOT FITTED RIGHT NOT FITTED 0
NONE
NONE
15600
12
4.427000
51148
TRUE
1 0 8 72 0 0 0 0

15798

#HDR
-1
-1
#GR
CM-1
%T
2.38419e-05
0.0
5000
-1.000000
4631
8
117.435
51.9626
#DATA
5000	62.6936
4984	63.4952
4968	62.0356
4952	62.2104
4936	62.6548
4920	63.1037
4904	62.7302
4888	63.1828
4872	62.3909
4856	62.8062
4840	62.6883
4824	62.4289
4808	62.8327
4792	63.0404
4776	63.2499
4760	62.8193
4744	62.8804
4728	62.966
4712	63.0967
4696	63.1729
4680	63.2152
4664	63.0729
4648	63.0595
4632	62.5955
4616	62.9788
4600	63.2273
4584	63.1207
4568	63.0115
4552	62.7649
4536	63.2942
4520	62.0774
4504	62.4052
4488	62.6569
4472	62.4444
4456	62.8097
4440	62.3721
4424	62.4503
4408	69.8113
4392	61.4632
4376	63.8644
4360	63.3997
4344	63.0663
4328	63.253
4312	63.089
4296	62.8623
4280	63.1795
4264	62.4274
4248	62.9658
4232	62.6008
4216	63.0266
4200	62.9745
4184	61.6005
4168	63.0265
4152	63.1963
4136	63.006
4120	63.3262
4104	62.9682
4088	63.3441
4072	63.2557
4056	63.1858
4040	62.9367
4024	62.8715
4008	63.0509
3992	62.8771
3976	63.036
3960	63.1817
3944	62.9051
3928	62.9045
3912	63.0214
3896	62.9161
3880	63.1551
3864	62.9688
3848	63.2636
3832	62.8716
3816	63.3646
3800	63.0275
3784	63.178
3768	63.0471
3752	63.0149
3736	63.0965
3720	62.9649
3704	63.1331
3688	63.1364
3672	63.1922
3656	63.063
3640	63.2062
3624	63.0856
3608	63.0924
3592	63.1906
3576	62.8374
3560	63.2093
3544	63.1593
3528	63.1125
3512	63.0934
3496	63.1401
3480	63.1176
3464	63.2056
3448	63.0545
3432	63.0312
3416	62.8536
3400	63.1537
3384	63.2771
3368	63.1528
3352	63.1771
3336	63.3214
3320	63.2788
3304	63.0574
3288	63.1134
3272	63.0954
3256	63.3583
3240	62.937
3224	62.9417
3208	63.0539
3192	63.1084
3176	63.2217
3160	63.4216
3144	63.2943
3128	63.4953
3112	63.287
3096	63.3577
3080	63.2861
3064	63.44
3048	63.0847
3032	63.1137
3016	63.14
3000	63.1066
2984	62.9694
2968	62.91
2952	63.0327
2936	62.9544
2920	62.7621
2904	62.9417
2888	63.0147
2872	63.191
2856	62.879
2840	63.1971
2824	63.1838
2808	63.2636
2792	63.2588
2776	63.2123
2760	63.1508
2744	63.1515
2728	63.1088
2712	63.1217
2696	63.1635
2680	63.2722
2664	63.2736
2648	63.2565
2632	63.205
2616	63.314
2600	63.4803
2584	63.4247
2568	63.2915
2552	63.5212
2536	63.3456
2520	63.47
2504	63.1652
2488	63.3334
2472	63.2871
2456	63.439
2440	63.2726
2424	63.0444
2408	63.3195
2392	63.4129
2376	63.5092
2360	63.4987
2344	63.4679
2328	63.382
2312	63.4019
2296	63.4891
2280	63.2428
2264	63.326
2248	63.2217
2232	63.0813
2216	63.1967
2200	63.3669
2184	63.3072
2168	63.3304
2152	63.3748
2136	63.4838
2120	63.3643
2104	63.6545
2088	63.3923
2072	63.892
2056	63.2092
2040	63.3325
2024	63.3337
2008	63.2747
1992	63.3144
1976	63.3517
1960	63.2782
1944	63.2464
1928	63.3304
1912	63.4602
1896	63.4109
1880	63.4925
1864	63.3116
1848	63.4319
1832	63.4354
1816	63.3066
1800	63.4474
1784	63.3494
1768	63.387
1752	63.2571
1736	62.9726
1720	62.9137
1704	63.4156
1688	63.3653
1672	63.2082
1656	63.1647
1640	63.161
1624	63.3764
1608	63.3465
1592	63.2497
1576	63.2214
1560	63.228
1544	63.2499
1528	63.3786
1512	63.1941
1496	63.2657
1480	63.1127
1464	63.075
1448	62.9
1432	63.3637
1416	63.1618
1400	63.4006
1384	63.2116
1368	63.332
1352	63.4678
1336	63.2292
1320	63.2533
1304	63.107
1288	63.032
1272	62.9652
1256	62.9799
1240	62.5372
1224	62.7318
1208	62.7493
1192	62.8671
1176	62.7872
1160	62.6575
1144	62.8695
1128	62.7674
1112	62.964
1096	62.5063
1080	62.5767
1064	62.5148
1048	62.5199
1032	62.3795
1016	62.4835
1000	62.5317
984	 62.7012
968	 62.5125
952	 62.4654
936	 62.3612
920	 62.3698
904	 62.4274
888	 61.8781
872	 62.3924
856	 61.7614
840	 62.8732
824	 62.1088
808	 62.0934
792	 61.9691
776	 62.0717
760	 61.8379
744	 62.4262
728	 61.724
712	 61.448
696	 61.6872
680	 60.9407
664	 61.5651
648	 61.2627
632	 61.0746
616	 61.2159
600	 61.2791
584	 60.8324
568	 61.4611
552	 60.7985
536	 60.7683
520	 60.8885
504	 59.8547
488	 60.404
472	 59.9049
456	 61.3956
440	 58.182
424	 59.8605
408	 70.9728
392	 71.0401
376	 101.244
370	 102.047

File: C-4040-8_t112.asc
PE IR       SPECTRUM    SPECTRUM    ASCII       PEDS        1.60
  -1
C-84C8~1.ASC
17/03/27
23:44:24.00
17/03/27
23:44:50.00
tln
$C-4040-8_t0112$<tbV0>[10.4,13.0,8.0,0.0,27,1,0]
27.028
64

2002,4.07
MIRTGS : RIGHTBACK : INTERNAL 2
MIR : ON : INTERNAL 2
OPTKBR

0.200000
8
8.000000
FILLER
RATIO
SPECTRUM
UNLOCKED 256

DOUBLE
64
COMBINED
1
0
0

0.002000
RATIO

1
0
TRUE
51149
0
LEFT NOT FITTED RIGHT NOT FITTED 0
NONE
NONE
15600
12
4.427000
51148
TRUE
1 0 8 72 0 0 0 0

15798

#HDR
-1
-1
#GR
µM
%T
2.38419e-05
0.0
2.000000
0.002000
12515
8
68.0955
22.5007
#DATA
2.000000	 64.68
2.084000	 64.5448
2.168000	 64.447
2.252000	 65.1421
2.336000	 65.3233
2.420000	 64.9649
2.504000	 64.9425
2.588000	 64.8559
2.672000	 65.0517
2.756000	 65.0539
2.840000	 65.131
2.924000	 64.9215
3.008000	 65.1664
3.092000	 64.9217
3.176000	 64.9012
3.260000	 65.0434
3.344000	 65.1804
3.428000	 64.5325
3.512000	 64.9393
3.596000	 65.0493
3.680000	 65.0805
3.764000	 64.9169
3.848000	 65.0858
3.932000	 65.0527
4.016000	 64.8719
4.100000	 65.1254
4.184000	 65.0482
4.268000	 65.2039
4.352000	 65.1418
4.436000	 65.0245
4.520000	 65.0903
4.604000	 65.0278
4.688000	 65.0698
4.772000	 65.1764
4.856000	 65.3165
4.940000	 65.0725
5.024000	 65.0218
5.108000	 65.0651
5.192000	 65.161
5.276000	 64.9957
5.359999	 65.0155
5.444000	 65.0709
5.528000	 64.9689
5.612000	 65.0332
5.696000	 65.0376
5.780000	 64.7118
5.864000	 65.0546
5.948000	 64.976
6.032000	 64.7242
6.116000	 65.0441
6.200000	 64.7835
6.284000	 64.9495
6.368000	 64.7545
6.452000	 64.8049
6.536000	 64.9644
6.620000	 64.8097
6.704000	 64.7513
6.788000	 64.9648
6.872000	 64.8182
6.956000	 64.6554
7.040000	 64.9519
7.124000	 64.9329
7.208000	 64.6762
7.292000	 64.7688
7.376000	 64.8689
7.460000	 64.8185
7.544000	 64.8394
7.628000	 64.8366
7.712000	 64.7682
7.796000	 64.6989
7.880000	 64.615
7.964000	 64.6887
8.048000	 64.6093
8.132000	 64.7096
8.216000	 64.7778
8.300000	 64.8709
8.384000	 64.6963
8.468000	 64.5843
8.552000	 64.6924
8.635999	 64.7619
8.719999	 64.624
8.804000	 64.7415
8.888000	 64.6245
8.972000	 64.627
9.056000	 64.8668
9.140000	 64.5058
9.224000	 64.8344
9.308000	 64.8451
9.391999	 64.4508
9.475999	 64.395
9.560000	 65.0601
9.644000	 64.8273
9.728000	 64.3087
9.812000	 64.5711
9.896000	 64.6334
9.980000	 64.4383
10.064	64.5921
10.148	64.79
10.232	64.8655
10.316	64.7811
10.4	64.7375
10.484	64.5394
10.568	64.5788
10.652	64.5257
10.736	64.6111
10.82	64.7072
10.904	64.7305
10.988	64.7528
11.072	64.7193
11.156	64.4854
11.24	64.751
11.324	64.4035
11.408	64.5133
11.492	64.5692
11.576	64.5554
11.66	63.9553
11.744	64.3043
11.828	64.4703
11.912	64.6301
11.996	64.2281
12.08	64.1918
12.164	64.8504
12.248	65.0203
12.332	64.6706
12.416	64.4944
12.5	64.2552
12.584	64.0889
12.668	64.1376
12.752	64.1356
12.836	63.9168
12.92	63.9136
13.004	63.7812
13.088	63.3983
13.172	63.3615
13.256	63.4914
13.34	63.8511
13.424	64.328
13.508	64.2988
13.592	63.8651
13.676	63.6073
13.76	63.6017
13.844	63.8089
13.928	63.8252
14.012	63.7359
14.096	63.8833
14.18	63.7547
14.264	63.4286
14.348	63.4049
14.432	63.4584
14.516	63.4122
14.6	63.2489
14.684	62.9676
14.768	62.8722
14.852	63.0743
14.936	63.3255
15.02	63.3814
15.104	63.3213
15.188	63.3318
15.272	63.3693
15.356	63.3503
15.44	63.2421
15.524	63.0581
15.608	63.0391
15.692	63.3685
15.776	63.6973
15.86	63.6145
15.944	63.3329
16.028	63.2718
16.112	63.3576
16.196	63.2442
16.28	62.9246
16.364	62.7521
16.448	62.9016
16.532	63.0896
16.616	63.0364
16.7	62.8835
16.784	62.8759
16.868	62.9741
16.952	62.9964
17.036	62.8949
17.12	62.7456
17.204	62.622
17.288	62.5691
17.372	62.638
17.456	62.8223
17.54	62.9859
17.624	62.969
17.708	62.7889
17.792	62.6156
17.876	62.5695
17.96	62.641
18.044	62.7623
18.128	62.8441
18.212	62.8473
18.296	62.861
18.38	62.9968
18.464	63.1802
18.548	63.1732
18.632	62.8618
18.716	62.3915
18.8	61.9937
18.884	61.7793
18.968	61.7211
19.052	61.7451
19.136	61.821
19.22	61.9747
19.304	62.2138
19.388	62.4385
19.472	62.4601
19.556	62.1672
19.64	61.6601
19.724	61.1736
19.808	60.8747
19.892	60.7729
19.976	60.789
20.06	60.865
20.144	61.0039
20.228	61.2231
20.312	61.5015
20.396	61.7726
20.48	61.9504
20.564	61.9635
20.648	61.8019
20.732	61.5134
20.816	61.1754
20.9	60.8665
20.984	60.6773
21.068	60.7038
21.152	60.9966
21.236	61.5176
21.32	62.1601
21.404	62.8055
21.488	63.3604
21.572	63.7454
21.656	63.8666
21.74	63.6313
21.824	63.011
21.908	62.108
21.992	61.1313
22.076	60.2997
22.16	59.7523
22.244	59.507
22.328	59.4898
22.412	59.5935
22.496	59.7288
22.58	59.8581
22.664	59.9838
22.748	60.1186
22.832	60.2459
22.916	60.3093
23	60.2751
23.084	60.1369
23.168	59.9627
23.252	59.8694
23.336	59.9416
23.42	60.1417
23.504	60.3557
23.588	60.4322
23.672	60.2689
23.756	59.8983
23.84	59.4798
23.924	59.2134
24.008	59.2546
24.092	59.6461
24.176	60.2416
24.26	60.8113
24.344	61.0702
24.428	60.724
24.512	59.4127
24.596	56.9386
24.68	53.466
24.764	49.6232
24.848	46.3295
24.932	44.6301
25.016	45.2088
25.1	48.0666
25.184	52.4779
25.268	57.2435
25.352	61.1481
25.436	63.1914
25.52	62.861
25.604	60.1032
25.688	55.1338
25.772	48.407
25.856	40.629
25.94	32.8195
26.024	26.3805
26.108	22.8187
26.192	23.3345
26.276	28.3123
26.36	36.9934
26.444	47.4488
26.528	57.1323
26.612	63.5944
26.696	65.2641
26.78	61.9729
26.864	55.0735
26.948	46.8572
27.028	40.0154

File: C-4040-8_t112_cm-1.asc
PE IR       SPECTRUM    SPECTRUM    ASCII       PEDS        1.60
  -1
C-4709~1.ASC
17/03/27
23:44:24.00
17/03/27
23:44:24.00
tln
$C-4040-8_t0112$<tbV0>[10.4,13.0,8.0,0.0,27,1,0]
370
64

2002,4.07
MIRTGS : RIGHTBACK : INTERNAL 2
MIR : ON : INTERNAL 2
OPTKBR

0.200000
8
8.000000
FILLER
RATIO
SPECTRUM
UNLOCKED 256

DOUBLE
64
COMBINED
1
0
0

1.000000
RATIO

1
0
TRUE
51149
0
LEFT NOT FITTED RIGHT NOT FITTED 0
NONE
NONE
15600
12
4.427000
51148
TRUE
1 0 8 72 0 0 0 0

15798

#HDR
-1
-1
#GR
CM-1
%T
2.38419e-05
0.0
5000
-1.000000
4631
8
68.9909
22.7882
#DATA
5000	64.68
4984	64.7288
4968	63.9961
4952	65.2394
4936	64.3481
4920	64.9758
4904	65.0544
4888	63.9021
4872	64.5643
4856	65.2681
4840	64.613
4824	64.5521
4808	64.8544
4792	64.6227
4776	64.8515
4760	64.5199
4744	64.8969
4728	64.277
4712	64.6951
4696	64.7429
4680	64.4371
4664	64.7282
4648	65.1468
4632	64.7125
4616	64.5233
4600	64.6826
4584	64.8233
4568	64.9162
4552	65.3366
4536	65.8227
4520	65.0326
4504	65.2131
4488	64.9494
4472	65.4037
4456	64.9713
4440	65.1782
4424	66.6303
4408	61.0657
4392	54.1129
4376	67.9607
4360	65.7164
4344	65.5658
4328	65.0171
4312	65.1135
4296	65.2115
4280	65.3222
4264	64.688
4248	65.2898
4232	64.8915
4216	65.1056
4200	64.9403
4184	63.9345
4168	64.1508
4152	64.5541
4136	65.115
4120	64.7393
4104	64.5201
4088	64.7288
4072	64.9546
4056	64.9512
4040	64.5326
4024	64.8297
4008	64.724
3992	64.9523
3976	65.2892
3960	65.059
3944	65.0597
3928	65.0223
3912	64.8948
3896	65.0342
3880	64.9766
3864	64.8561
3848	65.0395
3832	65.013
3816	65.2251
3800	65.004
3784	65.1881
3768	65.198
3752	64.8517
3736	64.9397
3720	64.9785
3704	64.9636
3688	64.8946
3672	64.9579
3656	64.9032
3640	64.9875
3624	65.048
3608	64.9711
3592	65.0987
3576	64.886
3560	65.1242
3544	64.7591
3528	64.983
3512	64.9615
3496	65.0822
3480	65.1572
3464	65.2719
3448	64.8314
3432	64.9588
3416	64.8419
3400	64.7568
3384	65.0813
3368	65.1481
3352	64.9163
3336	64.901
3320	65.0113
3304	64.7654
3288	65.099
3272	64.9756
3256	65.0167
3240	64.8866
3224	64.7383
3208	64.7388
3192	65.1149
3176	64.9239
3160	65.0178
3144	64.9076
3128	64.9355
3112	64.6749
3096	64.9677
3080	65.0615
3064	65.0517
3048	65.0219
3032	65.1515
3016	64.9708
3000	65.2199
2984	64.9669
2968	65.0745
2952	65.0024
2936	64.9994
2920	64.6018
2904	64.7164
2888	64.8994
2872	65.1436
2856	64.8953
2840	64.7648
2824	65.0171
2808	64.9477
2792	64.9594
2776	64.9176
2760	65.052
2744	64.8549
2728	65.0206
2712	65.0388
2696	65.0482
2680	65.158
2664	65.0713
2648	65.098
2632	64.9729
2616	65.1422
2600	65.0923
2584	64.9234
2568	64.9227
2552	65.2197
2536	65.1222
2520	65.0601
2504	65.1344
2488	64.9187
2472	65.1274
2456	65.1041
2440	65.1145
2424	65.1325
2408	65.1743
2392	65.0093
2376	65.0791
2360	65.0183
2344	65.1856
2328	65.1776
2312	65.0727
2296	65.0988
2280	65.0943
2264	65.2102
2248	65.0846
2232	65.0508
2216	65.0737
2200	65.2169
2184	65.0917
2168	65.0211
2152	65.0532
2136	65.0918
2120	65.0936
2104	65.1453
2088	64.9236
2072	64.7973
2056	65.1185
2040	64.9828
2024	65.0695
2008	65.0926
1992	65.0109
1976	65.1167
1960	65.0769
1944	65.027
1928	65.1159
1912	65.2458
1896	65.0089
1880	65.09
1864	64.9781
1848	65.1022
1832	65.1562
1816	65.057
1800	65.0234
1784	65.0245
1768	64.9819
1752	65.0457
1736	64.7146
1720	65.2096
1704	65.0314
1688	64.9192
1672	64.9391
1656	64.7524
1640	64.9194
1624	64.8396
1608	64.7763
1592	64.9503
1576	64.8828
1560	64.8813
1544	64.8213
1528	64.9693
1512	64.7807
1496	64.7967
1480	64.9336
1464	64.9002
1448	64.6193
1432	64.8125
1416	64.7656
1400	64.9067
1384	64.6241
1368	64.7609
1352	64.8238
1336	64.8637
1320	64.8666
1304	64.7026
1288	64.5778
1272	64.7004
1256	64.6874
1240	64.6087
1224	64.726
1208	64.845
1192	64.6846
1176	64.6094
1160	64.7775
1144	64.5783
1128	64.6662
1112	64.5878
1096	64.6152
1080	64.8142
1064	64.4076
1048	64.9729
1032	64.5723
1016	64.6516
1000	64.3645
984	 64.8025
968	 64.769
952	 64.5356
936	 64.4885
920	 64.7107
904	 64.7632
888	 64.6969
872	 64.5557
856	 63.9673
840	 64.63
824	 64.6243
808	 64.5695
792	 64.0785
776	 63.9048
760	 63.3406
744	 64.373
728	 63.5785
712	 63.7838
696	 63.4254
680	 62.9124
664	 63.3516
648	 63.2569
632	 63.7036
616	 63.1085
600	 62.9357
584	 62.7399
568	 62.9909
552	 62.8376
536	 62.7286
520	 62.0012
504	 60.8145
488	 61.9633
472	 61.1878
456	 61.8517
440	 60.0844
424	 60.4335
408	 59.4618
392	 63.0263
376	 62.7045
370	 40.0154

File: C-4040-8_t113.asc
PE IR       SPECTRUM    SPECTRUM    ASCII       PEDS        1.60
  -1
C-88C8~1.ASC
17/03/27
23:49:01.00
17/03/27
23:49:27.00
tln
$C-4040-8_t0113$<tbV0>[7.8,13.0,8.0,0.0,27,1,0]
27.028
64

2002,4.07
MIRTGS : RIGHTBACK : INTERNAL 2
MIR : ON : INTERNAL 2
OPTKBR

0.200000
8
8.000000
FILLER
RATIO
SPECTRUM
UNLOCKED 256

DOUBLE
64
COMBINED
1
0
0

0.002000
RATIO

1
0
TRUE
51149
0
LEFT NOT FITTED RIGHT NOT FITTED 0
NONE
NONE
15600
12
4.427000
51148
TRUE
1 0 8 72 0 0 0 0

15798

#HDR
-1
-1
#GR
µM
%T
2.38419e-05
0.0
2.000000
0.002000
12515
8
67.9397
11.1832
#DATA
2.000000	 64.2686
2.084000	 64.7954
2.168000	 64.4385
2.252000	 66.2948
2.336000	 65.6285
2.420000	 64.863
2.504000	 64.8658
2.588000	 65.1138
2.672000	 65.2479
2.756000	 65.2525
2.840000	 65.4357
2.924000	 65.2366
3.008000	 65.1218
3.092000	 65.0488
3.176000	 65.0895
3.260000	 65.2378
3.344000	 65.3455
3.428000	 64.9989
3.512000	 65.1478
3.596000	 65.1678
3.680000	 65.2521
3.764000	 65.2774
3.848000	 65.3181
3.932000	 65.3415
4.016000	 64.9875
4.100000	 65.5715
4.184000	 65.5722
4.268000	 65.334
4.352000	 65.355
4.436000	 65.2997
4.520000	 65.3522
4.604000	 65.3028
4.688000	 65.3285
4.772000	 65.429
4.856000	 65.4958
4.940000	 65.5049
5.024000	 65.2314
5.108000	 65.2675
5.192000	 65.2861
5.276000	 65.3611
5.359999	 65.2011
5.444000	 65.1441
5.528000	 65.1101
5.612000	 65.2369
5.696000	 65.0027
5.780000	 65.079
5.864000	 65.3247
5.948000	 65.176
6.032000	 65.1447
6.116000	 65.2569
6.200000	 65.2061
6.284000	 64.9775
6.368000	 65.1059
6.452000	 65.241
6.536000	 65.1632
6.620000	 65.1657
6.704000	 65.0113
6.788000	 65.0689
6.872000	 65.2036
6.956000	 65.0528
7.040000	 65.1598
7.124000	 64.9932
7.208000	 65.2122
7.292000	 65.0868
7.376000	 65.1192
7.460000	 64.9522
7.544000	 64.9709
7.628000	 65.0431
7.712000	 64.9199
7.796000	 64.9433
7.880000	 65.0068
7.964000	 64.9336
8.048000	 64.8981
8.132000	 64.9308
8.216000	 65.1957
8.300000	 65.0278
8.384000	 65.0338
8.468000	 65.0159
8.552000	 64.9031
8.635999	 64.7695
8.719999	 64.9235
8.804000	 64.9978
8.888000	 64.9109
8.972000	 65.0145
9.056000	 65.2787
9.140000	 64.8694
9.224000	 64.941
9.308000	 64.8866
9.391999	 64.8624
9.475999	 64.574
9.560000	 64.7966
9.644000	 64.9719
9.728000	 64.7261
9.812000	 64.9383
9.896000	 64.8519
9.980000	 64.8918
10.064	64.865
10.148	64.9116
10.232	64.7057
10.316	64.6364
10.4	64.7319
10.484	64.6524
10.568	64.7429
10.652	64.5778
10.736	64.6595
10.82	64.804
10.904	64.639
10.988	64.8781
11.072	65.0198
11.156	64.8373
11.24	64.4409
11.324	64.2067
11.408	64.5211
11.492	64.6332
11.576	64.7355
11.66	64.183
11.744	64.4673
11.828	64.4513
11.912	64.1796
11.996	64.0949
12.08	64.7692
12.164	64.8237
12.248	64.3116
12.332	64.3283
12.416	64.2127
12.5	64.1661
12.584	64.3848
12.668	64.2221
12.752	63.9935
12.836	63.9102
12.92	63.8944
13.004	64.0971
13.088	63.9195
13.172	63.9236
13.256	64.3254
13.34	64.5467
13.424	64.4073
13.508	64.3668
13.592	64.3722
13.676	63.8802
13.76	63.5587
13.844	63.7908
13.928	63.9383
14.012	63.8601
14.096	63.6567
14.18	63.5788
14.264	63.7555
14.348	63.8509
14.432	63.5876
14.516	63.3968
14.6	63.403
14.684	63.328
14.768	63.291
14.852	63.3201
14.936	63.3725
15.02	63.3883
15.104	63.3287
15.188	63.362
15.272	63.5038
15.356	63.6336
15.44	63.7272
15.524	63.6694
15.608	63.3947
15.692	63.1491
15.776	63.1493
15.86	63.2956
15.944	63.3543
16.028	63.3178
16.112	63.3655
16.196	63.408
16.28	63.1908
16.364	62.8696
16.448	62.789
16.532	62.866
16.616	62.8312
16.7	62.7626
16.784	62.8455
16.868	62.9343
16.952	62.7929
17.036	62.4948
17.12	62.3149
17.204	62.3732
17.288	62.5388
17.372	62.6831
17.456	62.8364
17.54	62.9952
17.624	62.9891
17.708	62.7596
17.792	62.5252
17.876	62.4639
17.96	62.4888
18.044	62.4882
18.128	62.5073
18.212	62.6397
18.296	62.8872
18.38	63.1621
18.464	63.3339
18.548	63.2799
18.632	62.9879
18.716	62.5951
18.8	62.2916
18.884	62.1761
18.968	62.2036
19.052	62.2403
19.136	62.1919
19.22	62.0709
19.304	61.9374
19.388	61.793
19.472	61.5789
19.556	61.2964
19.64	61.0691
19.724	61.0222
19.808	61.1306
19.892	61.239
19.976	61.2317
20.06	61.1402
20.144	61.0887
20.228	61.1505
20.312	61.2696
20.396	61.3182
20.48	61.2176
20.564	60.9956
20.648	60.7546
20.732	60.5944
20.816	60.5632
20.9	60.6548
20.984	60.8275
21.068	61.0213
21.152	61.1781
21.236	61.2698
21.32	61.3142
21.404	61.3621
21.488	61.4357
21.572	61.4938
21.656	61.4524
21.74	61.2496
21.824	60.9128
21.908	60.5543
21.992	60.287
22.076	60.1524
22.16	60.101
22.244	60.0483
22.328	59.9668
22.412	59.9045
22.496	59.9603
22.58	60.1995
22.664	60.6145
22.748	61.1129
22.832	61.5593
22.916	61.8275
23	61.8384
23.084	61.5674
23.168	61.0454
23.252	60.3489
23.336	59.5963
23.42	58.9386
23.504	58.5362
23.588	58.504
23.672	58.873
23.756	59.5799
23.84	60.5017
23.924	61.4825
24.008	62.4194
24.092	63.2957
24.176	64.1039
24.26	64.8744
24.344	65.5913
24.428	66.153
24.512	66.437
24.596	66.331
24.68	65.7753
24.764	64.8157
24.848	63.5683
24.932	62.2507
25.016	61.1505
25.1	60.6044
25.184	60.7944
25.268	61.6489
25.352	62.9207
25.436	64.1894
25.52	64.9565
25.604	64.7433
25.688	63.0844
25.772	59.6096
25.856	54.157
25.94	46.9951
26.024	38.8833
26.108	30.9173
26.192	24.0827
26.276	18.9662
26.36	15.6034
26.444	13.5493
26.528	12.2589
26.612	11.4136
26.696	11.2131
26.78	12.2666
26.864	15.4615
26.948	21.5249
27.028	30.0553

File: C-4040-8_t113_cm-1.asc
PE IR       SPECTRUM    SPECTRUM    ASCII       PEDS        1.60
  -1
C-4809~1.ASC
17/03/27
23:49:01.00
17/03/27
23:49:01.00
tln
$C-4040-8_t0113$<tbV0>[7.8,13.0,8.0,0.0,27,1,0]
370
64

2002,4.07
MIRTGS : RIGHTBACK : INTERNAL 2
MIR : ON : INTERNAL 2
OPTKBR

0.200000
8
8.000000
FILLER
RATIO
SPECTRUM
UNLOCKED 256

DOUBLE
64
COMBINED
1
0
0

1.000000
RATIO

1
0
TRUE
51149
0
LEFT NOT FITTED RIGHT NOT FITTED 0
NONE
NONE
15600
12
4.427000
51148
TRUE
1 0 8 72 0 0 0 0

15798

#HDR
-1
-1
#GR
CM-1
%T
2.38419e-05
0.0
5000
-1.000000
4631
8
67.937
11.1833
#DATA
5000	64.2686
4984	65.3123
4968	65.4597
4952	64.8931
4936	65.1729
4920	65.1258
4904	64.858
4888	65.3811
4872	64.9895
4856	65.3506
4840	64.9848
4824	65.0026
4808	64.827
4792	64.8568
4776	64.7851
4760	64.613
4744	64.9235
4728	64.5712
4712	65.1336
4696	64.6237
4680	64.5066
4664	65.0585
4648	65.0526
4632	64.6316
4616	64.4505
4600	65.0047
4584	65.3816
4568	65.2807
4552	65.366
4536	65.4461
4520	64.7908
4504	65.4677
4488	66.0421
4472	65.6979
4456	66.2536
4440	66.3421
4424	67.6979
4408	64.2086
4392	48.1509
4376	67.8402
4360	65.9297
4344	65.8646
4328	66.3179
4312	65.3664
4296	65.0963
4280	65.6263
4264	65.4628
4248	65.2011
4232	65.3268
4216	65.6446
4200	65.4567
4184	64.8823
4168	65.1833
4152	64.9427
4136	64.7488
4120	65.1991
4104	64.8595
4088	64.8608
4072	65.1994
4056	64.8672
4040	64.8621
4024	64.8185
4008	65.0246
3992	64.8717
3976	65.2706
3960	65.3577
3944	65.1422
3928	65.2005
3912	65.2337
3896	65.1385
3880	65.3388
3864	65.1141
3848	65.1083
3832	65.3077
3816	65.4112
3800	65.2612
3784	65.5154
3768	65.2531
3752	65.199
3736	65.1915
3720	65.2871
3704	65.3271
3688	65.2454
3672	65.2277
3656	65.2574
3640	65.2804
3624	65.1927
3608	65.282
3592	65.2164
3576	65.1273
3560	65.4256
3544	65.1396
3528	65.2617
3512	65.1307
3496	65.4495
3480	65.3065
3464	65.4413
3448	65.0772
3432	65.2112
3416	65.016
3400	65.1929
3384	65.2464
3368	65.1052
3352	65.1488
3336	65.2478
3320	65.0794
3304	65.0943
3288	65.2066
3272	65.0974
3256	65.3228
3240	64.8568
3224	65.0182
3208	65.3613
3192	64.8954
3176	65.2861
3160	65.235
3144	64.9467
3128	65.284
3112	65.3805
3096	65.1613
3080	65.2584
3064	65.2674
3048	65.3797
3032	65.4272
3016	65.2208
3000	65.3009
2984	65.1839
2968	65.0349
2952	65.1702
2936	64.9743
2920	65.0183
2904	65.1142
2888	65.0479
2872	65.281
2856	65.0907
2840	65.0436
2824	65.0769
2808	65.1887
2792	65.0831
2776	65.1277
2760	65.2185
2744	65.1121
2728	65.2163
2712	65.1864
2696	65.1323
2680	65.2016
2664	65.212
2648	65.2503
2632	65.1854
2616	65.2646
2600	65.3315
2584	65.2071
2568	65.2954
2552	65.4769
2536	65.3072
2520	65.1981
2504	65.4554
2488	64.9354
2472	65.3592
2456	65.395
2440	65.5566
2424	65.2516
2408	65.7767
2392	65.5103
2376	65.3101
2360	65.2754
2344	65.3346
2328	65.3105
2312	65.1916
2296	65.3277
2280	65.215
2264	65.3159
2248	65.3296
2232	65.2537
2216	65.2955
2200	65.3846
2184	65.3872
2168	65.2336
2152	65.2376
2136	65.3625
2120	65.2712
2104	65.4393
2088	65.2992
2072	65.2658
2056	65.27
2040	65.2529
2024	65.5001
2008	65.3335
1992	65.2046
1976	65.4629
1960	65.2579
1944	65.224
1928	65.2899
1912	65.3922
1896	65.3684
1880	65.397
1864	65.1839
1848	65.3094
1832	65.2431
1816	65.1599
1800	65.3687
1784	65.2365
1768	65.2967
1752	65.0924
1736	65.0037
1720	65.0676
1704	65.3175
1688	65.1724
1672	65.3189
1656	65.1371
1640	65.1579
1624	65.111
1608	65.1473
1592	64.9978
1576	64.9694
1560	64.934
1544	65.0237
1528	65.178
1512	65.1343
1496	65.1378
1480	65.2458
1464	65.1372
1448	65.1021
1432	65.1813
1416	65.0549
1400	64.8509
1384	65.048
1368	65.0941
1352	65.1131
1336	64.9615
1320	65.0809
1304	64.9178
1288	64.9471
1272	65.0842
1256	64.928
1240	64.8723
1224	65.0235
1208	65.0439
1192	65.0327
1176	64.942
1160	64.799
1144	64.9164
1128	64.9166
1112	65.0514
1096	65.0068
1080	64.9531
1064	64.8367
1048	64.6707
1032	64.7723
1016	64.9676
1000	64.779
984	 64.8666
968	 64.6403
952	 64.6321
936	 64.5179
920	 64.7406
904	 65.0377
888	 64.2846
872	 64.5676
856	 64.176
840	 64.197
824	 64.986
808	 64.2877
792	 64.3743
776	 63.8555
760	 63.8822
744	 64.3743
728	 63.5786
712	 63.7858
696	 63.8148
680	 63.3086
664	 63.3611
648	 63.722
632	 63.2292
616	 63.346
600	 62.7768
584	 62.3129
568	 63.0125
552	 62.499
536	 62.8738
520	 62.0536
504	 61.183
488	 61.192
472	 61.2236
456	 60.4724
440	 60.9896
424	 58.498
408	 66.4344
392	 64.9112
376	 11.5364
370	 30.0553