Folder: Masteroppgave/Bakgrunnsmateriale/MATLAB/FTIR/ftir_data/subBb/Mapping_36 (part 15)

File: C-4040-8_t32_cm-1.asc
PE IR       SPECTRUM    SPECTRUM    ASCII       PEDS        1.60
  -1
C-1B64~1.ASC
17/05/02
13:35:22.00
17/05/02
13:35:22.00
tln
$C-4040-8_t0032$<tbV0>[7.5,12.0,8.0,0.0,22,1,0]
370
64

2002,4.07
MIRTGS : RIGHTBACK : INTERNAL 2
MIR : ON : INTERNAL 2
OPTKBR

0.200000
8
8.000000
FILLER
RATIO
SPECTRUM
UNLOCKED 256

DOUBLE
64
COMBINED
1
0
0

1.000000
RATIO

1
0
TRUE
51149
0
LEFT NOT FITTED RIGHT NOT FITTED 0
NONE
NONE
15600
12
4.427000
51148
TRUE
1 0 8 72 0 0 0 0

15798

#HDR
-1
-1
#GR
CM-1
%T
2.38419e-05
0.0
7800
-1.000000
7431
8
92.847
50.8463
#DATA
7800	79.0763
7775	59.8751
7750	71.0968
7725	70.5893
7700	71.2863
7675	70.0742
7650	67.4645
7625	60.2048
7600	65.2724
7575	68.8821
7550	67.9622
7525	67.9766
7500	64.496
7475	66.2743
7450	63.7933
7425	67.9403
7400	66.5524
7375	61.8614
7350	66.416
7325	67.4709
7300	62.9761
7275	66.9095
7250	63.4438
7225	65.261
7200	66.7135
7175	64.3934
7150	65.4536
7125	62.4901
7100	64.2777
7075	65.5456
7050	65.5261
7025	63.8484
7000	64.3665
6975	62.6317
6950	64.3934
6925	64.8335
6900	65.04
6875	64.1102
6850	64.2232
6825	64.0771
6800	65.014
6775	63.5501
6750	64.3387
6725	61.2734
6700	65.4209
6675	64.7934
6650	64.9878
6625	65.2327
6600	65.5903
6575	65.1203
6550	64.9919
6525	63.5987
6500	65.3296
6475	63.9477
6450	65.788
6425	65.3194
6400	65.4056
6375	64.276
6350	66.0394
6325	65.6011
6300	65.316
6275	64.249
6250	64.6729
6225	65.0261
6200	64.5791
6175	64.4921
6150	65.2099
6125	64.8906
6100	65.4144
6075	64.1224
6050	65.6725
6025	64.4819
6000	65.2927
5975	65.4139
5950	63.7913
5925	65.4687
5900	65.2486
5875	64.5139
5850	64.6516
5825	65.4194
5800	64.2203
5775	64.2403
5750	64.7901
5725	64.749
5700	64.9708
5675	64.9803
5650	64.9489
5625	64.7462
5600	64.8537
5575	65.4919
5550	65.0249
5525	64.7735
5500	64.9358
5475	65.3625
5450	65.1739
5425	64.9452
5400	65.0104
5375	65.1344
5350	65.53
5325	63.5193
5300	63.2591
5275	65.4048
5250	65.0481
5225	64.6776
5200	64.5137
5175	64.5212
5150	64.6652
5125	64.9959
5100	64.914
5075	65.2451
5050	64.9758
5025	64.471
5000	64.7871
4975	64.795
4950	64.682
4925	65.106
4900	64.7508
4875	64.624
4850	64.9505
4825	65.0023
4800	65.1448
4775	65.2625
4750	65.3272
4725	64.8143
4700	64.9096
4675	65.1486
4650	64.9556
4625	64.7516
4600	64.8935
4575	64.6675
4550	63.9801
4525	64.4928
4500	64.2322
4475	64.2528
4450	64.0857
4425	63.641
4400	64.1158
4375	63.2055
4350	64.3777
4325	64.0509
4300	64.4847
4275	64.3777
4250	64.4709
4225	64.5909
4200	64.9354
4175	64.8725
4150	65.1513
4125	65.142
4100	65.3259
4075	64.9624
4050	65.5043
4025	65.0307
4000	65.1824
3975	65.0389
3950	65.2014
3925	65.0019
3900	64.9897
3875	65.0087
3850	64.9277
3825	64.989
3800	65.1629
3775	65.0136
3750	65.1705
3725	65.1904
3700	65.2506
3675	65.3575
3650	65.3666
3625	65.1546
3600	65.0225
3575	65.2168
3550	65.1686
3525	65.1917
3500	64.9727
3475	64.8721
3450	64.9859
3425	65.0864
3400	65.1668
3375	65.1583
3350	65.1269
3325	65.0373
3300	65.1321
3275	65.1732
3250	65.1499
3225	65.0924
3200	65.1457
3175	65.1646
3150	65.2863
3125	65.016
3100	65.1521
3075	65.0785
3050	65.0439
3025	65.2128
3000	65.1256
2975	65.1151
2950	64.9642
2925	64.7021
2900	65.0044
2875	64.9861
2850	64.9162
2825	65.2122
2800	65.2356
2775	65.2841
2750	65.1041
2725	65.2568
2700	65.1882
2675	65.1869
2650	65.0449
2625	65.3362
2600	65.2124
2575	65.1797
2550	65.3374
2525	65.2658
2500	65.2029
2475	65.2633
2450	65.2325
2425	65.2323
2400	65.2135
2375	65.3981
2350	65.1658
2325	65.1035
2300	65.4218
2275	65.2675
2250	65.3103
2225	65.2142
2200	65.2994
2175	65.3329
2150	65.213
2125	65.2765
2100	65.3027
2075	65.1586
2050	65.2079
2025	65.2448
2000	65.2843
1975	65.2862
1950	65.4082
1925	65.2442
1900	65.2804
1875	65.2982
1850	65.314
1825	65.3204
1800	65.3353
1775	65.2872
1750	65.1756
1725	65.0583
1700	65.1886
1675	65.2614
1650	65.2115
1625	65.2986
1600	65.0703
1575	65.129
1550	65.1529
1525	65.1606
1500	65.1244
1475	65.0316
1450	65.1682
1425	65.1461
1400	65.0986
1375	65.0448
1350	64.9795
1325	64.9989
1300	65.1042
1275	64.9301
1250	64.8971
1225	65.019
1200	64.9268
1175	64.9256
1150	64.9801
1125	64.9133
1100	65.0201
1075	64.8191
1050	65.0899
1025	64.7664
1000	64.819
975	 64.9925
950	 64.9036
925	 64.8666
900	 63.8297
875	 64.7492
850	 64.8103
825	 64.7837
800	 64.4242
775	 64.2865
750	 63.7441
725	 63.6701
700	 63.4855
675	 63.7024
650	 63.2257
625	 63.3093
600	 63.1344
575	 62.965
550	 62.5101
525	 61.9247
500	 61.6004
475	 60.8267
450	 59.9554
425	 59.6004
400	 52.7081
375	 84.4292
370	 91.3933

File: C-4040-8_t33.asc
PE IR       SPECTRUM    SPECTRUM    ASCII       PEDS        1.60
  -1
C-A136~1.ASC
17/05/02
13:40:03.00
17/05/02
13:40:29.00
tln
$C-4040-8_t0033$<tbV0>[2.5,12.0,8.0,0.0,22,1,0]
27.028
64

2002,4.07
MIRTGS : RIGHTBACK : INTERNAL 2
MIR : ON : INTERNAL 2
OPTKBR

0.200000
8
8.000000
FILLER
RATIO
SPECTRUM
UNLOCKED 256

DOUBLE
64
COMBINED
1
0
0

0.002000
RATIO

1
0
TRUE
51149
0
LEFT NOT FITTED RIGHT NOT FITTED 0
NONE
NONE
15600
12
4.427000
51148
TRUE
1 0 8 72 0 0 0 0

15798

#HDR
-1
-1
#GR
µM
%T
2.38419e-05
0.0
1.282000
0.002000
12874
8
90.5434
58.04
#DATA
1.282000	 71.7353
1.368000	 66.1781
1.454000	 65.5173
1.540000	 64.4488
1.626000	 65.1415
1.712000	 64.3144
1.798000	 63.8241
1.884000	 64.4543
1.970000	 64.6592
2.056000	 64.2302
2.142000	 64.3752
2.228000	 63.9022
2.314000	 64.0499
2.400000	 64.4762
2.486000	 64.4278
2.572000	 64.7688
2.658000	 64.5947
2.744000	 64.4964
2.830000	 64.6776
2.916000	 64.8093
3.002000	 64.487
3.088000	 64.5226
3.174000	 64.5691
3.260000	 64.6584
3.346000	 64.6137
3.432000	 64.3157
3.518000	 64.4834
3.604000	 64.7738
3.690000	 64.7373
3.776000	 64.6645
3.862000	 64.8069
3.948000	 64.7121
4.034000	 64.721
4.120000	 64.8914
4.206000	 64.868
4.292000	 64.7905
4.378000	 64.7896
4.464000	 64.7935
4.550000	 64.755
4.636000	 64.7542
4.722000	 64.5491
4.808000	 64.7398
4.894000	 64.6374
4.980000	 64.634
5.066000	 64.7076
5.152000	 64.6005
5.238000	 64.4706
5.324000	 64.4812
5.410000	 64.4629
5.496000	 64.4306
5.582000	 64.4322
5.668000	 64.3737
5.754000	 64.2491
5.840000	 64.2651
5.926000	 64.2493
6.012000	 64.2699
6.098000	 64.2026
6.184000	 64.2911
6.270000	 64.1305
6.356000	 64.0113
6.442000	 64.1754
6.528000	 64.1453
6.614000	 64.1486
6.700000	 64.2495
6.786000	 64.169
6.872000	 64.1909
6.958000	 64.2154
7.044000	 64.1409
7.130000	 64.0955
7.216000	 64.1273
7.302000	 64.294
7.388000	 64.1258
7.474000	 64.1177
7.560000	 64.0718
7.646000	 64.0067
7.732000	 64.0525
7.818000	 63.963
7.904000	 64.0979
7.990000	 64.0415
8.076000	 64.0307
8.161999	 64.1106
8.248000	 64.1211
8.334000	 64.1346
8.420000	 64.2366
8.506000	 64.2667
8.592000	 64.188
8.678000	 64.0458
8.763999	 64.1537
8.850000	 64.3181
8.936000	 64.2033
9.022000	 64.1203
9.108000	 64.2937
9.193999	 64.2929
9.280000	 64.3132
9.366000	 64.195
9.452000	 64.0136
9.538000	 64.1492
9.624000	 63.9821
9.710000	 63.9726
9.795999	 64.0921
9.882000	 63.9944
9.968000	 64.1111
10.054	64.3386
10.14	63.7577
10.226	64.0142
10.312	63.7841
10.398	63.924
10.484	63.9321
10.57	63.6183
10.656	63.8913
10.742	63.8873
10.828	63.8195
10.914	63.6839
11	63.672
11.086	63.0475
11.172	63.2963
11.258	63.5893
11.344	63.9897
11.43	63.796
11.516	63.4003
11.602	63.3197
11.688	63.3812
11.774	63.5423
11.86	63.5703
11.946	63.5912
12.032	63.6478
12.118	63.6343
12.204	63.4865
12.29	63.4607
12.376	63.6371
12.462	63.6588
12.548	63.4381
12.634	63.3525
12.72	63.308
12.806	63.3059
12.892	63.4203
12.978	63.318
13.064	63.2858
13.15	63.3145
13.236	63.131
13.322	62.9474
13.408	62.9429
13.494	63.0115
13.58	63.0824
13.666	63.0621
13.752	63.123
13.838	63.1938
13.924	63.0841
14.01	62.9333
14.096	62.9135
14.182	62.8834
14.268	62.6004
14.354	62.4935
14.44	62.696
14.526	62.7471
14.612	62.5596
14.698	62.4785
14.784	62.5486
14.87	62.5335
14.956	62.4443
15.042	62.3859
15.128	62.3645
15.214	62.3587
15.3	62.4222
15.386	62.5124
15.472	62.4638
15.558	62.352
15.644	62.3874
15.73	62.4948
15.816	62.4331
15.902	62.24
15.988	62.1916
16.074	62.3339
16.16	62.4535
16.246	62.4588
16.332	62.432
16.418	62.37
16.504	62.1845
16.59	61.9402
16.676	61.8225
16.762	61.8828
16.848	62.0082
16.934	62.1068
17.02	62.1256
17.106	62.0166
17.192	61.8548
17.278	61.7749
17.364	61.7497
17.45	61.661
17.536	61.5154
17.622	61.3666
17.708	61.2052
17.794	61.0595
17.88	61.0033
17.966	61.0161
18.052	61.0208
18.138	61.0367
18.224	61.1502
18.31	61.3667
18.396	61.6013
18.482	61.7614
18.568	61.7789
18.654	61.6388
18.74	61.4215
18.826	61.2601
18.912	61.206
18.998	61.187
19.084	61.1208
19.17	61.0208
19.256	60.953
19.342	60.935
19.428	60.9079
19.514	60.808
19.6	60.6416
19.686	60.4777
19.772	60.3888
19.858	60.4051
19.944	60.5029
20.03	60.6154
20.116	60.665
20.202	60.6126
20.288	60.4915
20.374	60.3845
20.46	60.356
20.546	60.3973
20.632	60.4435
20.718	60.4375
20.804	60.3694
20.89	60.2672
20.976	60.1604
21.062	60.0624
21.148	59.9746
21.234	59.9051
21.32	59.8697
21.406	59.8696
21.492	59.8681
21.578	59.7968
21.664	59.5983
21.75	59.2817
21.836	58.9428
21.922	58.724
22.008	58.719
22.094	58.9054
22.18	59.1694
22.266	59.3858
22.352	59.4979
22.438	59.533
22.524	59.5492
22.61	59.5768
22.696	59.5997
22.782	59.5859
22.868	59.5244
22.954	59.4399
23.04	59.3689
23.126	59.342
23.212	59.3844
23.298	59.5183
23.384	59.7607
23.47	60.1043
23.556	60.4996
23.642	60.8596
23.728	61.0959
23.814	61.1694
23.9	61.1128
23.986	61.0157
24.072	60.9615
24.158	61.0035
24.244	61.1364
24.33	61.3152
24.416	61.5015
24.502	61.6538
24.588	61.7315
24.674	61.7015
24.76	61.5361
24.846	61.2492
24.932	60.8808
25.018	60.4898
25.104	60.1812
25.19	60.0164
25.276	59.9837
25.362	60.0258
25.448	60.0917
25.534	60.1822
25.62	60.365
25.706	60.762
25.792	61.5101
25.878	62.7247
25.964	64.4638
26.05	66.6757
26.136	69.1749
26.222	71.6517
26.308	73.6752
26.394	74.8826
26.48	75.2344
26.566	75.0953
26.652	75.1396
26.738	76.1548
26.824	78.7047
26.91	82.9252
26.996	88.7638
27.028	90.5434

File: C-4040-8_t33_cm-1.asc
PE IR       SPECTRUM    SPECTRUM    ASCII       PEDS        1.60
  -1
C-1BE1~1.ASC
17/05/02
13:40:03.00
17/05/02
13:40:03.00
tln
$C-4040-8_t0033$<tbV0>[2.5,12.0,8.0,0.0,22,1,0]
370
64

2002,4.07
MIRTGS : RIGHTBACK : INTERNAL 2
MIR : ON : INTERNAL 2
OPTKBR

0.200000
8
8.000000
FILLER
RATIO
SPECTRUM
UNLOCKED 256

DOUBLE
64
COMBINED
1
0
0

1.000000
RATIO

1
0
TRUE
51149
0
LEFT NOT FITTED RIGHT NOT FITTED 0
NONE
NONE
15600
12
4.427000
51148
TRUE
1 0 8 72 0 0 0 0

15798

#HDR
-1
-1
#GR
CM-1
%T
2.38419e-05
0.0
7800
-1.000000
7431
8
90.5434
57.8012
#DATA
7800	71.7353
7775	65.6389
7750	75.1538
7725	71.4268
7700	66.7189
7675	67.2738
7650	71.4589
7625	64.9007
7600	64.1826
7575	68.4498
7550	65.2972
7525	69.6266
7500	63.7493
7475	65.0556
7450	63.8281
7425	64.5082
7400	63.2329
7375	61.4314
7350	63.9123
7325	65.0453
7300	62.6417
7275	65.5592
7250	67.5799
7225	66.3168
7200	65.5249
7175	64.045
7150	61.5829
7125	63.0807
7100	63.6771
7075	63.0896
7050	63.0098
7025	64.3421
7000	61.8032
6975	63.0334
6950	66.539
6925	62.4939
6900	64.3928
6875	65.972
6850	65.7253
6825	64.2091
6800	66.4041
6775	65.3657
6750	64.5343
6725	62.8012
6700	64.6076
6675	62.5916
6650	66.2538
6625	62.8781
6600	65.3265
6575	65.6595
6550	64.7834
6525	63.6888
6500	64.5076
6475	65.1213
6450	64.2925
6425	64.5237
6400	65.0894
6375	63.7196
6350	64.5332
6325	63.7009
6300	64.4859
6275	64.516
6250	64.141
6225	64.4037
6200	65.1846
6175	64.4423
6150	65.1377
6125	64.6482
6100	65.0387
6075	63.3628
6050	65.3736
6025	63.6674
6000	64.9461
5975	64.356
5950	64.2226
5925	64.3085
5900	64.6233
5875	64.2526
5850	64.3887
5825	65.1515
5800	64.1944
5775	64.4833
5750	64.9513
5725	64.1153
5700	64.401
5675	65.1001
5650	64.8387
5625	64.9019
5600	65.4813
5575	64.3087
5550	64.8061
5525	63.9695
5500	64.7373
5475	63.8066
5450	64.7631
5425	65.1584
5400	64.6341
5375	64.8929
5350	64.1466
5325	65.0627
5300	60.9454
5275	63.2775
5250	64.5551
5225	64.3481
5200	64.7642
5175	64.1366
5150	64.3866
5125	64.6957
5100	64.5456
5075	64.6395
5050	64.5303
5025	65.0947
5000	64.7001
4975	64.9317
4950	63.8488
4925	64.3699
4900	63.976
4875	64.3274
4850	64.5692
4825	64.4385
4800	64.5267
4775	64.7099
4750	64.4507
4725	64.511
4700	64.3876
4675	64.6081
4650	64.828
4625	64.3609
4600	64.3634
4575	64.8669
4550	64.1506
4525	64.203
4500	64.0791
4475	64.0773
4450	63.7153
4425	64.5644
4400	63.4807
4375	63.0687
4350	64.8424
4325	64.0685
4300	64.4099
4275	64.3687
4250	64.4552
4225	64.2695
4200	64.4417
4175	64.3484
4150	64.5947
4125	64.8215
4100	64.836
4075	64.6255
4050	64.7809
4025	64.4798
4000	64.7813
3975	64.3999
3950	64.5518
3925	64.5519
3900	64.4683
3875	64.4832
3850	64.4019
3825	64.5699
3800	64.6305
3775	64.4402
3750	64.6806
3725	64.763
3700	64.5402
3675	64.7946
3650	64.6782
3625	64.5608
3600	64.5306
3575	64.5305
3550	64.7513
3525	64.5226
3500	64.7424
3475	64.2593
3450	64.6567
3425	64.7647
3400	64.4993
3375	64.6224
3350	64.6175
3325	64.5988
3300	64.3838
3275	64.5271
3250	64.4891
3225	64.4947
3200	64.5956
3175	64.5871
3150	64.5778
3125	64.4382
3100	64.4086
3075	64.5705
3050	64.6806
3025	64.5211
3000	64.7494
2975	64.5417
2950	64.403
2925	64.3379
2900	64.3376
2875	64.5039
2850	64.3698
2825	64.7017
2800	64.7888
2775	64.7783
2750	64.7895
2725	64.7666
2700	64.7621
2675	64.722
2650	64.6622
2625	64.8576
2600	64.7774
2575	64.9101
2550	64.852
2525	64.7873
2500	64.781
2475	64.8006
2450	64.7615
2425	64.8863
2400	64.8342
2375	64.8693
2350	64.655
2325	64.7153
2300	64.843
2275	64.7461
2250	64.7756
2225	64.7168
2200	64.7753
2175	64.8085
2150	64.7714
2125	64.6257
2100	64.797
2075	64.6379
2050	64.5525
2025	64.5712
2000	64.6733
1975	64.7157
1950	64.6837
1925	64.5341
1900	64.5762
1875	64.4647
1850	64.4703
1825	64.4341
1800	64.4815
1775	64.3878
1750	64.2351
1725	64.2174
1700	64.3216
1675	64.2628
1650	64.2273
1625	64.3501
1600	64.1133
1575	64.0144
1550	64.155
1525	64.1098
1500	64.1881
1475	64.1588
1450	64.148
1425	64.2668
1400	64.0879
1375	64.2297
1350	64.0995
1325	64.0347
1300	64.0566
1275	63.9898
1250	64.0132
1225	64.1076
1200	64.1348
1175	64.2481
1150	64.0403
1125	64.2988
1100	64.3305
1075	64.394
1050	64.1349
1025	64.0952
1000	64.3029
975	 63.9929
950	 63.8021
925	 63.9098
900	 63.0817
875	 63.8026
850	 63.5293
825	 63.6312
800	 63.5649
775	 63.4226
750	 62.937
725	 63.1755
700	 62.5456
675	 62.5589
650	 62.5118
625	 62.2037
600	 61.8256
575	 61.7316
550	 61.0791
525	 61.156
500	 60.5795
475	 60.0726
450	 59.2875
425	 60.3766
400	 60.5676
375	 75.2295
370	 90.5434

File: C-4040-8_t34.asc
PE IR       SPECTRUM    SPECTRUM    ASCII       PEDS        1.60
  -1
C-B13A~1.ASC
17/05/02
13:44:44.00
17/05/02
13:45:11.00
tln
$C-4040-8_t0034$<tbV0>[-2.5,12.0,8.0,0.0,22,1,0]
27.028
64

2002,4.07
MIRTGS : RIGHTBACK : INTERNAL 2
MIR : ON : INTERNAL 2
OPTKBR

0.200000
8
8.000000
FILLER
RATIO
SPECTRUM
UNLOCKED 256

DOUBLE
64
COMBINED
1
0
0

0.002000
RATIO

1
0
TRUE
51149
0
LEFT NOT FITTED RIGHT NOT FITTED 0
NONE
NONE
15600
12
4.427000
51148
TRUE
1 0 8 72 0 0 0 0

15798

#HDR
-1
-1
#GR
µM
%T
2.38419e-05
0.0
1.282000
0.002000
12874
8
87.1398
56.5554
#DATA
1.282000	 68.2395
1.368000	 60.8694
1.454000	 67.0528
1.540000	 64.0125
1.626000	 64.3293
1.712000	 64.908
1.798000	 65.2479
1.884000	 65.8247
1.970000	 65.0301
2.056000	 64.6325
2.142000	 65.2189
2.228000	 64.0699
2.314000	 64.24
2.400000	 65.107
2.486000	 65.2469
2.572000	 65.1801
2.658000	 65.1292
2.744000	 65.229
2.830000	 64.9965
2.916000	 65.1181
3.002000	 65.143
3.088000	 65.2862
3.174000	 65.1293
3.260000	 65.0802
3.346000	 65.0326
3.432000	 64.6276
3.518000	 64.8459
3.604000	 65.2955
3.690000	 65.287
3.776000	 65.2419
3.862000	 65.141
3.948000	 65.1679
4.034000	 65.1176
4.120000	 65.1991
4.206000	 65.2032
4.292000	 65.0933
4.378000	 65.2363
4.464000	 65.2607
4.550000	 65.1748
4.636000	 65.2256
4.722000	 65.2448
4.808000	 65.2733
4.894000	 65.3127
4.980000	 65.3166
5.066000	 65.3088
5.152000	 65.3313
5.238000	 65.2512
5.324000	 65.1
5.410000	 65.296
5.496000	 65.2106
5.582000	 65.2318
5.668000	 65.1266
5.754000	 65.0701
5.840000	 65.0847
5.926000	 64.9072
6.012000	 65.2108
6.098000	 65.0463
6.184000	 65.0425
6.270000	 65.004
6.356000	 64.9846
6.442000	 65.0365
6.528000	 64.9974
6.614000	 65.0519
6.700000	 65.1504
6.786000	 65.0558
6.872000	 64.9745
6.958000	 64.9901
7.044000	 64.9866
7.130000	 64.9338
7.216000	 64.9957
7.302000	 64.9337
7.388000	 64.9669
7.474000	 64.9393
7.560000	 64.8834
7.646000	 64.9197
7.732000	 64.961
7.818000	 64.7976
7.904000	 64.951
7.990000	 64.8275
8.076000	 64.8191
8.161999	 64.9585
8.248000	 64.8504
8.334000	 64.7934
8.420000	 64.7769
8.506000	 64.6928
8.592000	 64.716
8.678000	 64.7968
8.763999	 64.7966
8.850000	 64.821
8.936000	 64.8766
9.022000	 64.6458
9.108000	 64.8332
9.193999	 64.6641
9.280000	 64.628
9.366000	 64.6521
9.452000	 64.7202
9.538000	 64.5846
9.624000	 64.6495
9.710000	 64.6104
9.795999	 64.8047
9.882000	 64.7937
9.968000	 64.6226
10.054	64.5314
10.14	64.4897
10.226	64.9445
10.312	64.5779
10.398	64.2472
10.484	64.4675
10.57	64.4677
10.656	64.6612
10.742	64.4157
10.828	64.4693
10.914	64.5931
11	64.4404
11.086	64.0176
11.172	63.72
11.258	64.0149
11.344	64.4429
11.43	64.7075
11.516	64.2985
11.602	64.2768
11.688	64.4768
11.774	64.4715
11.86	64.4376
11.946	64.452
12.032	64.3702
12.118	64.4587
12.204	64.0766
12.29	63.8508
12.376	63.9951
12.462	64.0369
12.548	63.9658
12.634	63.8054
12.72	63.8032
12.806	63.948
12.892	63.9144
12.978	63.6687
13.064	63.5794
13.15	63.7345
13.236	63.7559
13.322	63.6064
13.408	63.4736
13.494	63.3518
13.58	63.3965
13.666	63.5132
13.752	63.5336
13.838	63.5648
13.924	63.6203
14.01	63.5289
14.096	63.3454
14.182	63.1964
14.268	62.9476
14.354	62.802
14.44	62.9342
14.526	63.0311
14.612	62.8806
14.698	62.8111
14.784	62.8903
14.87	62.9111
14.956	62.8965
15.042	62.9263
15.128	62.8988
15.214	62.7661
15.3	62.6369
15.386	62.5594
15.472	62.4712
15.558	62.366
15.644	62.3922
15.73	62.5445
15.816	62.5777
15.902	62.438
15.988	62.2912
16.074	62.2236
16.16	62.208
16.246	62.1792
16.332	62.1547
16.418	62.2264
16.504	62.3806
16.59	62.494
16.676	62.4647
16.762	62.3136
16.848	62.1816
16.934	62.1898
17.02	62.2624
17.106	62.2119
17.192	62.0308
17.278	61.9003
17.364	61.9146
17.45	61.9916
17.536	62.0326
17.622	62.0004
17.708	61.8901
17.794	61.7374
17.88	61.608
17.966	61.5327
18.052	61.4887
18.138	61.4469
18.224	61.4008
18.31	61.3685
18.396	61.3957
18.482	61.5033
18.568	61.6225
18.654	61.6417
18.74	61.5315
18.826	61.3917
18.912	61.3335
18.998	61.3365
19.084	61.2579
19.17	60.9942
19.256	60.5983
19.342	60.2282
19.428	59.9993
19.514	59.9025
19.6	59.8481
19.686	59.7996
19.772	59.8343
19.858	60.0247
19.944	60.3041
20.03	60.5073
20.116	60.5254
20.202	60.3804
20.288	60.186
20.374	60.0702
20.46	60.0929
20.546	60.2067
20.632	60.2943
20.718	60.2599
20.804	60.1006
20.89	59.9023
20.976	59.775
21.062	59.771
21.148	59.8407
21.234	59.8713
21.32	59.7889
21.406	59.613
21.492	59.4354
21.578	59.3399
21.664	59.3617
21.75	59.4838
21.836	59.6469
21.922	59.7695
22.008	59.7835
22.094	59.6769
22.18	59.5049
22.266	59.3571
22.352	59.301
22.438	59.3183
22.524	59.3231
22.61	59.2114
22.696	58.926
22.782	58.4829
22.868	57.9517
22.954	57.4226
23.04	56.9734
23.126	56.668
23.212	56.5555
23.298	56.6616
23.384	56.9767
23.47	57.4619
23.556	58.062
23.642	58.7169
23.728	59.3776
23.814	59.9882
23.9	60.4726
23.986	60.7359
24.072	60.7068
24.158	60.3851
24.244	59.8667
24.33	59.3269
24.416	58.9401
24.502	58.7695
24.588	58.756
24.674	58.7699
24.76	58.6767
24.846	58.4827
24.932	58.3521
25.018	58.5259
25.104	59.2008
25.19	60.4167
25.276	61.9953
25.362	63.5893
25.448	64.8144
25.534	65.4004
25.62	65.2489
25.706	64.4824
25.792	63.3645
25.878	62.2055
25.964	61.2998
26.05	60.8504
26.136	60.9857
26.222	61.8462
26.308	63.5155
26.394	65.9812
26.48	69.157
26.566	72.8453
26.652	76.7239
26.738	80.4178
26.824	83.5535
26.91	85.809
26.996	86.9725
27.028	87.1398

File: C-4040-8_t34_cm-1.asc
PE IR       SPECTRUM    SPECTRUM    ASCII       PEDS        1.60
  -1
C-1B6F~1.ASC
17/05/02
13:44:44.00
17/05/02
13:44:44.00
tln
$C-4040-8_t0034$<tbV0>[-2.5,12.0,8.0,0.0,22,1,0]
370
64

2002,4.07
MIRTGS : RIGHTBACK : INTERNAL 2
MIR : ON : INTERNAL 2
OPTKBR

0.200000
8
8.000000
FILLER
RATIO
SPECTRUM
UNLOCKED 256

DOUBLE
64
COMBINED
1
0
0

1.000000
RATIO

1
0
TRUE
51149
0
LEFT NOT FITTED RIGHT NOT FITTED 0
NONE
NONE
15600
12
4.427000
51148
TRUE
1 0 8 72 0 0 0 0

15798

#HDR
-1
-1
#GR
CM-1
%T
2.38419e-05
0.0
7800
-1.000000
7431
8
87.1398
56.5576
#DATA
7800	68.2395
7775	60.876
7750	73.8188
7725	72.4199
7700	71.3941
7675	72.7881
7650	71.4202
7625	68.4948
7600	72.1853
7575	70.7193
7550	68.8319
7525	67.9027
7500	68.6668
7475	64.0492
7450	67.1379
7425	65.8321
7400	62.5887
7375	61.5969
7350	68.991
7325	65.4895
7300	63.8396
7275	66.155
7250	67.0339
7225	67.1977
7200	65.0504
7175	64.1057
7150	64.0569
7125	66.2845
7100	63.352
7075	64.3535
7050	67.444
7025	65.5849
7000	64.862
6975	64.7024
6950	64.2151
6925	63.2149
6900	65.2797
6875	66.4137
6850	65.5345
6825	64.1068
6800	65.2769
6775	65.9369
6750	64.2153
6725	62.5509
6700	65.9459
6675	65.9986
6650	64.2786
6625	65.091
6600	64.2807
6575	64.5621
6550	63.3188
6525	64.9802
6500	64.3917
6475	64.6025
6450	63.538
6425	64.4992
6400	64.8715
6375	64.8067
6350	65.0739
6325	65.9198
6300	63.9611
6275	65.7582
6250	64.9888
6225	63.5615
6200	64.6212
6175	64.1198
6150	64.3341
6125	64.9738
6100	65.2639
6075	63.9066
6050	65.0244
6025	64.5611
6000	65.0912
5975	64.8891
5950	65.0137
5925	64.9161
5900	65.6288
5875	64.2264
5850	64.7474
5825	65.539
5800	64.685
5775	64.4467
5750	64.7069
5725	64.7114
5700	64.4626
5675	64.2848
5650	65.1197
5625	65.517
5600	65.8525
5575	65.7449
5550	65.2575
5525	64.5172
5500	64.4203
5475	64.2818
5450	65.1714
5425	66.1032
5400	64.6288
5375	65.4019
5350	64.4702
5325	64.0596
5300	64.7656
5275	63.1071
5250	64.907
5225	64.7728
5200	65.3427
5175	64.5602
5150	64.8684
5125	65.2234
5100	65.242
5075	65.0509
5050	64.966
5025	65.0835
5000	64.9745
4975	64.7513
4950	64.7504
4925	64.7154
4900	64.6533
4875	64.849
4850	64.9459
4825	64.9809
4800	64.7749
4775	64.993
4750	65.1822
4725	65.3088
4700	65.1248
4675	65.2107
4650	65.1064
4625	65.2507
4600	65.1007
4575	65.1473
4550	64.2973
4525	64.9212
4500	63.9266
4475	64.2472
4450	64.2017
4425	64.2212
4400	63.5271
4375	76.2797
4350	64.256
4325	64.2249
4300	64.5727
4275	64.7053
4250	64.549
4225	64.7849
4200	64.7521
4175	65.077
4150	65.3283
4125	65.4124
4100	65.2768
4075	65.0815
4050	65.3531
4025	65.2385
4000	65.0353
3975	65.0493
3950	65.1686
3925	65.0663
3900	65.0361
3875	64.949
3850	64.8576
3825	65.0001
3800	65.0759
3775	65.0962
3750	65.1247
3725	65.2176
3700	65.3029
3675	65.136
3650	65.2554
3625	65.175
3600	65.0753
3575	65.1476
3550	65.2752
3525	65.0948
3500	65.0396
3475	64.8097
3450	65.0019
3425	65.1103
3400	65.2673
3375	64.985
3350	65.1115
3325	65.0813
3300	65.0872
3275	65.1783
3250	65.1918
3225	65.1134
3200	65.0951
3175	65.2577
3150	65.1324
3125	65.0448
3100	65.1283
3075	65.0895
3050	65.1688
3025	65.1042
3000	65.234
2975	65.0519
2950	64.8503
2925	64.6731
2900	64.883
2875	64.8636
2850	64.8564
2825	65.2469
2800	65.2371
2775	65.2933
2750	65.2045
2725	65.3367
2700	65.2232
2675	65.0352
2650	65.2284
2625	65.2732
2600	65.1963
2575	65.1687
2550	65.2629
2525	65.1443
2500	65.3276
2475	65.0979
2450	65.0985
2425	65.1888
2400	65.2005
2375	65.1859
2350	65.2617
2325	65.1458
2300	65.2828
2275	65.1936
2250	65.2269
2225	65.2549
2200	65.1695
2175	65.2751
2150	65.2557
2125	65.2715
2100	65.2097
2075	65.212
2050	65.2367
2025	65.2183
2000	65.256
1975	65.2909
1950	65.3125
1925	65.2682
1900	65.2957
1875	65.1491
1850	65.2625
1825	65.2066
1800	65.2839
1775	65.2424
1750	65.1085
1725	64.9784
1700	65.1295
1675	65.2093
1650	65.119
1625	65.2056
1600	65.0082
1575	65.0216
1550	65.0053
1525	65.0255
1500	65.1691
1475	65.0679
1450	64.9671
1425	64.9467
1400	64.9316
1375	64.9346
1350	64.9405
1325	64.8859
1300	64.9461
1275	64.8173
1250	64.8054
1225	64.9582
1200	64.7926
1175	64.6875
1150	64.7527
1125	64.9088
1100	64.8148
1075	64.6541
1050	64.6194
1025	64.6269
1000	64.6257
975	 64.8521
950	 64.4558
925	 64.4558
900	 63.836
875	 64.7119
850	 64.4862
825	 64.4527
800	 64.0223
775	 63.8882
750	 63.587
725	 63.5424
700	 62.8977
675	 62.9087
650	 62.5606
625	 62.2768
600	 62.4754
575	 61.9382
550	 61.4236
525	 61.3106
500	 60.4544
475	 59.7663
450	 59.4234
425	 57.868
400	 58.4517
375	 77.374
370	 87.1398