Folder: Masteroppgave/Bakgrunnsmateriale/MATLAB/FTIR/ftir_data/subBb/Mapping_121 (part 28)

File: C-4040-8_t61_cm-1.asc
PE IR       SPECTRUM    SPECTRUM    ASCII       PEDS        1.60
  -1
C-9CE4~1.ASC
17/03/27
19:28:22.00
17/03/27
19:28:22.00
tln
$C-4040-8_t0061$<tbV0>[0.0,0.0,8.0,0.0,27,1,0]
370
64

2002,4.07
MIRTGS : RIGHTBACK : INTERNAL 2
MIR : ON : INTERNAL 2
OPTKBR

0.200000
8
8.000000
FILLER
RATIO
SPECTRUM
UNLOCKED 256

DOUBLE
64
COMBINED
1
0
0

1.000000
RATIO

1
0
TRUE
51149
0
LEFT NOT FITTED RIGHT NOT FITTED 0
NONE
NONE
15600
12
4.427000
51148
TRUE
1 0 8 72 0 0 0 0

15798

#HDR
-1
-1
#GR
CM-1
%T
2.38419e-05
0.0
5000
-1.000000
4631
8
122.199
38.6222
#DATA
5000	64.952
4984	65.7723
4968	65.7294
4952	64.6852
4936	65.0363
4920	65.1817
4904	65.387
4888	64.9324
4872	65.169
4856	64.7465
4840	64.9551
4824	65.0796
4808	64.8273
4792	65.0154
4776	65.0597
4760	65.1204
4744	64.3755
4728	64.4175
4712	64.779
4696	64.5375
4680	64.7601
4664	64.3115
4648	64.5163
4632	64.6137
4616	64.3141
4600	64.4684
4584	64.9949
4568	65.0403
4552	64.66
4536	65.1099
4520	65.4514
4504	65.7612
4488	65.7243
4472	65.7349
4456	65.9956
4440	66.1978
4424	66.4073
4408	67.1139
4392	65.8769
4376	63.7249
4360	39.9808
4344	66.9038
4328	66.2838
4312	65.8137
4296	66.4136
4280	66.6177
4264	65.7278
4248	65.5149
4232	65.8442
4216	65.5977
4200	65.3997
4184	65.9535
4168	64.8059
4152	65.2933
4136	64.939
4120	64.6959
4104	64.9988
4088	64.796
4072	64.8483
4056	64.9384
4040	64.7595
4024	64.8336
4008	64.9419
3992	64.7952
3976	64.9267
3960	64.9078
3944	64.9392
3928	64.8576
3912	65.0946
3896	65.1934
3880	65.2612
3864	64.9327
3848	65.5619
3832	64.9988
3816	65.3272
3800	65.3579
3784	65.2555
3768	65.3584
3752	65.4737
3736	65.1067
3720	65.119
3704	65.0564
3688	65.293
3672	65.0283
3656	65.1624
3640	65.1475
3624	65.0725
3608	64.9931
3592	64.9355
3576	65.2559
3560	65.0138
3544	65.1125
3528	65.2493
3512	64.998
3496	65.0896
3480	65.0907
3464	65.1088
3448	65.0878
3432	65.5999
3416	65.2307
3400	65.151
3384	65.379
3368	65.4045
3352	65.112
3336	65.2491
3320	65.1344
3304	65.2383
3288	65.1367
3272	65.1273
3256	65.4508
3240	65.034
3224	64.9306
3208	64.9461
3192	64.8194
3176	65.3331
3160	65.1589
3144	64.9042
3128	65.5536
3112	65.019
3096	65.5267
3080	65.1478
3064	65.2672
3048	65.3129
3032	65.1005
3016	65.2678
3000	65.1935
2984	65.2769
2968	65.1527
2952	65.2112
2936	65.123
2920	64.8743
2904	65.2084
2888	65.0561
2872	65.3458
2856	65.1095
2840	65.1552
2824	65.204
2808	65.2389
2792	65.1301
2776	65.2172
2760	65.1988
2744	65.3396
2728	65.3383
2712	65.2622
2696	65.3315
2680	65.1533
2664	65.1751
2648	65.2197
2632	65.2987
2616	65.2493
2600	65.25
2584	65.319
2568	65.3095
2552	65.5099
2536	65.2184
2520	65.2389
2504	65.4758
2488	65.258
2472	65.2499
2456	65.2325
2440	65.4219
2424	65.6668
2408	65.1441
2392	65.2882
2376	65.2597
2360	65.2787
2344	65.3262
2328	65.2497
2312	65.2436
2296	65.3367
2280	65.2287
2264	65.2803
2248	65.3872
2232	65.4033
2216	65.3684
2200	65.1513
2184	65.2887
2168	65.3185
2152	65.5065
2136	65.5116
2120	65.2835
2104	65.3346
2088	65.3436
2072	64.9638
2056	65.4723
2040	65.2777
2024	65.3355
2008	65.3218
1992	65.371
1976	65.3649
1960	65.3176
1944	65.4294
1928	65.4231
1912	65.379
1896	65.3973
1880	65.3078
1864	65.4245
1848	65.251
1832	65.4577
1816	65.4272
1800	65.3836
1784	65.2673
1768	65.3779
1752	65.2369
1736	65.0318
1720	64.963
1704	65.3279
1688	65.3252
1672	65.1337
1656	65.1837
1640	65.3393
1624	65.2565
1608	65.0954
1592	65.0691
1576	65.3309
1560	65.0798
1544	65.0376
1528	65.075
1512	65.14
1496	64.9284
1480	65.2041
1464	65.248
1448	65.071
1432	65.1749
1416	65.1485
1400	65.1711
1384	65.2536
1368	65.185
1352	65.1134
1336	65.0626
1320	64.9757
1304	64.9595
1288	64.9775
1272	65.0202
1256	65.0543
1240	65.0751
1224	65.1302
1208	65.0515
1192	65.1332
1176	64.9122
1160	64.8592
1144	65.0649
1128	64.7187
1112	64.6044
1096	65.2705
1080	64.6781
1064	64.3698
1048	64.488
1032	64.5344
1016	64.3887
1000	65.1758
984	 65.0056
968	 64.4426
952	 64.6872
936	 64.5885
920	 64.6684
904	 64.3909
888	 64.4715
872	 64.2882
856	 64.5731
840	 64.7086
824	 64.4244
808	 64.5966
792	 64.1221
776	 64.4127
760	 63.8905
744	 63.3436
728	 63.4658
712	 63.6389
696	 63.9917
680	 63.1791
664	 63.0214
648	 62.8641
632	 62.6127
616	 62.9645
600	 61.8294
584	 62.3233
568	 62.4116
552	 62.1112
536	 61.6588
520	 60.415
504	 60.7295
488	 60.2749
472	 59.4887
456	 59.7484
440	 58.7819
424	 58.0174
408	 68.2814
392	 118.276
376	 98.6499
370	 63.2499

File: C-4040-8_t62.asc
PE IR       SPECTRUM    SPECTRUM    ASCII       PEDS        1.60
  -1
C-AD32~1.ASC
17/03/27
19:32:59.00
17/03/27
19:33:26.00
tln
$C-4040-8_t0062$<tbV0>[-2.6,0.0,8.0,0.0,27,1,0]
27.028
64

2002,4.07
MIRTGS : RIGHTBACK : INTERNAL 2
MIR : ON : INTERNAL 2
OPTKBR

0.200000
8
8.000000
FILLER
RATIO
SPECTRUM
UNLOCKED 256

DOUBLE
64
COMBINED
1
0
0

0.002000
RATIO

1
0
TRUE
51149
0
LEFT NOT FITTED RIGHT NOT FITTED 0
NONE
NONE
15600
12
4.427000
51148
TRUE
1 0 8 72 0 0 0 0

15798

#HDR
-1
-1
#GR
µM
%T
2.38419e-05
0.0
2.000000
0.002000
12515
8
103.178
41.8769
#DATA
2.000000	 64.9519
2.084000	 64.798
2.168000	 64.2828
2.252000	 65.9863
2.336000	 66.3636
2.420000	 64.8702
2.504000	 65.1449
2.588000	 65.4483
2.672000	 65.1444
2.756000	 64.9439
2.840000	 64.8803
2.924000	 65.1687
3.008000	 65.306
3.092000	 65.1345
3.176000	 65.0293
3.260000	 65.1568
3.344000	 65.1837
3.428000	 64.7972
3.512000	 65.0457
3.596000	 65.1881
3.680000	 65.0347
3.764000	 65.1875
3.848000	 65.1066
3.932000	 65.2982
4.016000	 65.2748
4.100000	 65.051
4.184000	 65.2016
4.268000	 65.1066
4.352000	 65.2537
4.436000	 65.29
4.520000	 65.2158
4.604000	 65.1991
4.688000	 65.3772
4.772000	 65.2798
4.856000	 65.1912
4.940000	 65.3092
5.024000	 65.1917
5.108000	 65.2024
5.192000	 65.2476
5.276000	 65.1644
5.359999	 65.1721
5.444000	 65.2107
5.528000	 65.2604
5.612000	 64.9457
5.696000	 65.043
5.780000	 64.7941
5.864000	 65.1344
5.948000	 65.1448
6.032000	 65.12
6.116000	 64.8979
6.200000	 65.0572
6.284000	 64.933
6.368000	 65.0166
6.452000	 65.0374
6.536000	 64.9862
6.620000	 65.1258
6.704000	 64.9197
6.788000	 64.9782
6.872000	 64.6781
6.956000	 65.1151
7.040000	 65.0454
7.124000	 65.093
7.208000	 65.0525
7.292000	 64.9344
7.376000	 64.8472
7.460000	 64.823
7.544000	 64.9709
7.628000	 64.9957
7.712000	 64.9312
7.796000	 64.9049
7.880000	 64.823
7.964000	 65.0143
8.048000	 64.9813
8.132000	 64.9981
8.216000	 64.675
8.300000	 64.927
8.384000	 64.7747
8.468000	 64.7348
8.552000	 64.8258
8.635999	 64.8359
8.719999	 64.9302
8.804000	 64.6938
8.888000	 64.7681
8.972000	 64.7197
9.056000	 64.5223
9.140000	 64.3014
9.224000	 64.8208
9.308000	 64.7087
9.391999	 64.9895
9.475999	 64.01
9.560000	 64.1319
9.644000	 64.5282
9.728000	 64.4028
9.812000	 64.5327
9.896000	 65.2092
9.980000	 65.3842
10.064	64.7878
10.148	64.3524
10.232	64.7894
10.316	64.4623
10.4	64.6928
10.484	64.6771
10.568	64.5178
10.652	64.2279
10.736	64.448
10.82	64.5837
10.904	64.6776
10.988	64.5005
11.072	64.5714
11.156	64.4149
11.24	64.3231
11.324	64.3739
11.408	64.0035
11.492	64.1937
11.576	64.2757
11.66	64.3846
11.744	64.3032
11.828	64.0843
11.912	63.9541
11.996	64.044
12.08	64.283
12.164	64.0151
12.248	63.8063
12.332	64.3547
12.416	64.5266
12.5	64.3669
12.584	64.2744
12.668	63.8971
12.752	63.7258
12.836	63.765
12.92	63.8711
13.004	64.0718
13.088	64.0984
13.172	63.8479
13.256	63.633
13.34	63.9847
13.424	64.0435
13.508	63.5901
13.592	63.3216
13.676	63.3382
13.76	63.2262
13.844	63.2258
13.928	63.5135
14.012	63.5892
14.096	63.3663
14.18	63.2927
14.264	63.5737
14.348	63.8189
14.432	63.8622
14.516	63.6714
14.6	63.3661
14.684	63.2369
14.768	63.236
14.852	63.1859
14.936	62.9554
15.02	62.7365
15.104	62.9225
15.188	63.3554
15.272	63.4785
15.356	63.1795
15.44	62.7867
15.524	62.5947
15.608	62.6045
15.692	62.4517
15.776	62.0977
15.86	62.0341
15.944	62.3572
16.028	62.6908
16.112	62.8953
16.196	63.0156
16.28	63.0092
16.364	62.8929
16.448	62.7408
16.532	62.4674
16.616	62.01
16.7	61.6047
16.784	61.5689
16.868	61.9075
16.952	62.282
17.036	62.4102
17.12	62.3852
17.204	62.4446
17.288	62.5461
17.372	62.467
17.456	62.207
17.54	62.0002
17.624	62.0012
17.708	62.1404
17.792	62.2736
17.876	62.3585
17.96	62.4608
18.044	62.6239
18.128	62.7856
18.212	62.8445
18.296	62.7595
18.38	62.554
18.464	62.2714
18.548	61.9751
18.632	61.7507
18.716	61.661
18.8	61.6987
18.884	61.8049
18.968	61.895
19.052	61.8787
19.136	61.7312
19.22	61.5542
19.304	61.5051
19.388	61.643
19.472	61.8629
19.556	61.9756
19.64	61.8589
19.724	61.5476
19.808	61.1889
19.892	60.9192
19.976	60.7754
20.06	60.71
20.144	60.6768
20.228	60.6909
20.312	60.7998
20.396	61.0031
20.48	61.2146
20.564	61.3134
20.648	61.2332
20.732	61.005
20.816	60.7142
20.9	60.4236
20.984	60.1453
21.068	59.8731
21.152	59.603
21.236	59.3461
21.32	59.1162
21.404	58.9065
21.488	58.6855
21.572	58.4215
21.656	58.1451
21.74	57.943
21.824	57.8829
21.908	57.9308
21.992	57.9645
22.076	57.8847
22.16	57.7216
22.244	57.6325
22.328	57.7859
22.412	58.2145
22.496	58.7587
22.58	59.1726
22.664	59.2624
22.748	58.9739
22.832	58.3631
22.916	57.5298
23	56.573
23.084	55.5996
23.168	54.7339
23.252	54.1123
23.336	53.897
23.42	54.1709
23.504	54.9749
23.588	56.2205
23.672	57.6938
23.756	59.1334
23.84	60.2886
23.924	60.9744
24.008	61.1436
24.092	60.9105
24.176	60.4874
24.26	60.0475
24.344	59.6597
24.428	59.3233
24.512	59.1089
24.596	59.2145
24.68	59.9188
24.764	61.4652
24.848	63.9054
24.932	67.3384
25.016	71.93
25.1	77.8181
25.184	84.7715
25.268	91.9792
25.352	98.1415
25.436	102.049
25.52	103.169
25.604	101.776
25.688	98.6985
25.772	94.9035
25.856	91.1079
25.94	87.888
26.024	85.735
26.108	85.0445
26.192	85.7964
26.276	87.4799
26.36	89.0797
26.444	89.6254
26.528	88.5697
26.612	86.0719
26.696	82.6896
26.78	79.0897
26.864	75.5151
26.948	71.6697
27.028	67.2722

File: C-4040-8_t62_cm-1.asc
PE IR       SPECTRUM    SPECTRUM    ASCII       PEDS        1.60
  -1
C-9C64~1.ASC
17/03/27
19:32:59.00
17/03/27
19:32:59.00
tln
$C-4040-8_t0062$<tbV0>[-2.6,0.0,8.0,0.0,27,1,0]
370
64

2002,4.07
MIRTGS : RIGHTBACK : INTERNAL 2
MIR : ON : INTERNAL 2
OPTKBR

0.200000
8
8.000000
FILLER
RATIO
SPECTRUM
UNLOCKED 256

DOUBLE
64
COMBINED
1
0
0

1.000000
RATIO

1
0
TRUE
51149
0
LEFT NOT FITTED RIGHT NOT FITTED 0
NONE
NONE
15600
12
4.427000
51148
TRUE
1 0 8 72 0 0 0 0

15798

#HDR
-1
-1
#GR
CM-1
%T
2.38419e-05
0.0
5000
-1.000000
4631
8
103.177
41.5972
#DATA
5000	64.9519
4984	65.0908
4968	64.8573
4952	65.1197
4936	65.3976
4920	65.1801
4904	65.2623
4888	64.8165
4872	65.0561
4856	65.0651
4840	64.9164
4824	65.2167
4808	64.9044
4792	64.6714
4776	64.5868
4760	64.3315
4744	64.4019
4728	64.155
4712	64.4017
4696	64.8726
4680	64.3601
4664	64.4057
4648	64.2605
4632	65.0322
4616	64.4613
4600	64.5064
4584	64.7034
4568	64.8519
4552	64.6573
4536	64.9761
4520	65.4264
4504	65.6406
4488	65.4006
4472	65.9485
4456	66.4484
4440	66.0351
4424	66.4508
4408	66.6603
4392	65.9176
4376	62.5713
4360	45.001
4344	66.1708
4328	66.1452
4312	65.7907
4296	66.4608
4280	66.3319
4264	66.0483
4248	65.7851
4232	65.7349
4216	65.7119
4200	65.0705
4184	65.2198
4168	65.2519
4152	65.1085
4136	65.1742
4120	64.9532
4104	64.9185
4088	64.7444
4072	65.0148
4056	64.8037
4040	64.6912
4024	64.692
4008	64.9188
3992	65.1037
3976	64.6855
3960	64.9947
3944	65.0154
3928	65.0169
3912	65.0156
3896	65.2816
3880	65.31
3864	65.4495
3848	65.3718
3832	65.0695
3816	64.9852
3800	65.1566
3784	65.5525
3768	65.2785
3752	65.0888
3736	65.1525
3720	65.0523
3704	65.092
3688	65.2117
3672	65.1798
3656	65.323
3640	65.0597
3624	65.0445
3608	64.7318
3592	64.935
3576	65.0869
3560	64.909
3544	64.8988
3528	65.1941
3512	64.9176
3496	64.9504
3480	65.0005
3464	65.1808
3448	65.0195
3432	65.2031
3416	65.0884
3400	65.191
3384	65.2187
3368	65.2138
3352	65.0604
3336	65.3017
3320	65.3441
3304	64.9448
3288	65.3083
3272	65.2544
3256	65.2544
3240	65.0017
3224	65.1206
3208	65.0996
3192	65.1053
3176	65.2022
3160	65.0014
3144	65.0442
3128	65.3141
3112	65.2323
3096	65.1548
3080	65.0985
3064	65.1971
3048	65.0148
3032	65.1634
3016	65.0061
3000	65.1715
2984	65.2036
2968	65.2644
2952	65.0673
2936	64.9273
2920	64.834
2904	64.9482
2888	65.0467
2872	65.1917
2856	64.9226
2840	65.168
2824	65.0532
2808	65.2159
2792	65.1025
2776	65.2024
2760	65.1128
2744	65.1235
2728	65.1892
2712	65.0292
2696	65.0971
2680	65.1422
2664	65.1891
2648	65.2239
2632	65.1691
2616	65.2616
2600	65.1131
2584	65.1519
2568	65.095
2552	65.2991
2536	65.1798
2520	65.1174
2504	65.0728
2488	65.2702
2472	65.1978
2456	65.2041
2440	65.0584
2424	65.5504
2408	65.5427
2392	65.216
2376	65.1625
2360	65.2479
2344	65.1029
2328	65.1272
2312	64.953
2296	65.2598
2280	65.0763
2264	65.2433
2248	65.4272
2232	65.3185
2216	65.2379
2200	65.0591
2184	65.103
2168	65.1293
2152	65.1173
2136	65.3359
2120	65.0742
2104	65.3458
2088	65.1179
2072	64.9593
2056	65.1955
2040	65.1827
2024	65.308
2008	65.2958
1992	65.1958
1976	65.2704
1960	65.1969
1944	65.1966
1928	65.2848
1912	65.2691
1896	65.1546
1880	65.168
1864	65.192
1848	65.165
1832	65.2356
1816	65.2283
1800	65.1512
1784	64.979
1768	65.1048
1752	65.054
1736	64.8978
1720	64.9529
1704	65.1522
1688	65.0333
1672	65.0702
1656	65.1173
1640	64.9418
1624	65.123
1608	65.0364
1592	64.9316
1576	65.0447
1560	64.8625
1544	64.9784
1528	64.9571
1512	65.1249
1496	64.9436
1480	65.0999
1464	64.9615
1448	64.8448
1432	65.0293
1416	65.1474
1400	65.0143
1384	65.0881
1368	64.9035
1352	64.8338
1336	64.8232
1320	64.933
1304	64.9899
1288	64.8453
1272	64.8207
1256	65.0232
1240	64.9811
1224	64.8859
1208	64.8315
1192	64.7781
1176	64.8497
1160	64.867
1144	64.9327
1128	64.7715
1112	64.6181
1096	64.4717
1080	64.7297
1064	64.9563
1048	64.0982
1032	64.3804
1016	64.7261
1000	65.3883
984	 64.4346
968	 64.4249
952	 64.6429
936	 64.2463
920	 64.639
904	 64.5597
888	 64.3586
872	 64.1027
856	 64.3868
840	 63.9509
824	 64.201
808	 64.5275
792	 64.1029
776	 63.8122
760	 63.9067
744	 63.9696
728	 63.2735
712	 63.5194
696	 63.8465
680	 63.2315
664	 62.7663
648	 62.8184
632	 62.0014
616	 63.031
600	 61.7353
584	 62.385
568	 61.9839
552	 62.7667
536	 61.7089
520	 61.5381
504	 61.0667
488	 61.2377
472	 59.495
456	 57.9467
440	 59.0785
424	 56.1697
408	 59.1111
392	 103.177
376	 86.6412
370	 67.2722

File: C-4040-8_t63.asc
PE IR       SPECTRUM    SPECTRUM    ASCII       PEDS        1.60
  -1
C-AD36~1.ASC
17/03/27
19:37:36.00
17/03/27
19:38:02.00
tln
$C-4040-8_t0063$<tbV0>[-5.2,0.0,8.0,0.0,27,1,0]
27.028
64

2002,4.07
MIRTGS : RIGHTBACK : INTERNAL 2
MIR : ON : INTERNAL 2
OPTKBR

0.200000
8
8.000000
FILLER
RATIO
SPECTRUM
UNLOCKED 256

DOUBLE
64
COMBINED
1
0
0

0.002000
RATIO

1
0
TRUE
51149
0
LEFT NOT FITTED RIGHT NOT FITTED 0
NONE
NONE
15600
12
4.427000
51148
TRUE
1 0 8 72 0 0 0 0

15798

#HDR
-1
-1
#GR
µM
%T
2.38419e-05
0.0
2.000000
0.002000
12515
8
106.044
50.1484
#DATA
2.000000	 64.9925
2.084000	 65.1163
2.168000	 64.2457
2.252000	 66.1507
2.336000	 66.0585
2.420000	 64.573
2.504000	 65.0167
2.588000	 65.1807
2.672000	 65.164
2.756000	 65.1746
2.840000	 64.9724
2.924000	 65.1111
3.008000	 65.1881
3.092000	 65.1599
3.176000	 64.9668
3.260000	 65.2816
3.344000	 65.1964
3.428000	 64.8916
3.512000	 64.9736
3.596000	 65.1972
3.680000	 64.9803
3.764000	 65.2971
3.848000	 65.1704
3.932000	 65.2728
4.016000	 65.0766
4.100000	 65.3122
4.184000	 65.2714
4.268000	 65.2075
4.352000	 65.2749
4.436000	 65.3618
4.520000	 65.2699
4.604000	 65.1548
4.688000	 65.2392
4.772000	 65.2662
4.856000	 65.1557
4.940000	 65.2968
5.024000	 65.3446
5.108000	 65.1982
5.192000	 65.2204
5.276000	 65.3437
5.359999	 65.1844
5.444000	 65.2273
5.528000	 65.2875
5.612000	 65.2768
5.696000	 65.1432
5.780000	 64.9647
5.864000	 65.0906
5.948000	 65.1161
6.032000	 65.1433
6.116000	 65.1226
6.200000	 65.0546
6.284000	 65.0073
6.368000	 65.1745
6.452000	 65.0639
6.536000	 65.0388
6.620000	 64.9504
6.704000	 65.1349
6.788000	 65.0257
6.872000	 64.7206
6.956000	 64.982
7.040000	 65.1183
7.124000	 64.994
7.208000	 65.2225
7.292000	 65.0939
7.376000	 64.961
7.460000	 65.0328
7.544000	 65.1609
7.628000	 65.0497
7.712000	 64.9127
7.796000	 64.958
7.880000	 64.9819
7.964000	 64.9581
8.048000	 65.1387
8.132000	 64.8922
8.216000	 64.865
8.300000	 64.8657
8.384000	 64.8758
8.468000	 64.7631
8.552000	 64.7816
8.635999	 64.9208
8.719999	 65.0451
8.804000	 64.5444
8.888000	 64.936
8.972000	 64.9065
9.056000	 64.4591
9.140000	 64.4756
9.224000	 65.6725
9.308000	 64.778
9.391999	 64.9033
9.475999	 64.5908
9.560000	 64.3475
9.644000	 64.6632
9.728000	 64.9547
9.812000	 64.7285
9.896000	 64.7148
9.980000	 64.7202
10.064	64.8728
10.148	64.8116
10.232	64.8944
10.316	64.6211
10.4	64.3394
10.484	64.2472
10.568	64.3381
10.652	64.5189
10.736	64.8073
10.82	64.5181
10.904	64.3882
10.988	64.483
11.072	64.657
11.156	64.3968
11.24	64.2807
11.324	64.4681
11.408	64.6016
11.492	64.5522
11.576	64.6581
11.66	64.6172
11.744	64.6523
11.828	64.6393
11.912	64.4825
11.996	64.1442
12.08	64.1901
12.164	64.4416
12.248	64.3096
12.332	64.412
12.416	64.269
12.5	64.1278
12.584	63.6945
12.668	63.5457
12.752	63.7888
12.836	64.0188
12.92	64.1458
13.004	64.0829
13.088	63.83
13.172	63.6342
13.256	63.4078
13.34	63.5451
13.424	64.0075
13.508	64.4452
13.592	64.3468
13.676	63.6811
13.76	63.3552
13.844	63.366
13.928	63.5799
14.012	63.7665
14.096	63.5831
14.18	63.494
14.264	63.5541
14.348	63.6337
14.432	63.7005
14.516	63.5472
14.6	63.3134
14.684	63.2574
14.768	63.3494
14.852	63.2951
14.936	63.0149
15.02	62.7758
15.104	62.7619
15.188	63.0738
15.272	63.414
15.356	63.3507
15.44	63.1132
15.524	62.9947
15.608	62.9053
15.692	62.9158
15.776	63.1808
15.86	63.4431
15.944	63.4213
16.028	63.2793
16.112	63.2498
16.196	63.3329
16.28	63.3787
16.364	63.1592
16.448	62.7119
16.532	62.3988
16.616	62.3142
16.7	62.2183
16.784	62.121
16.868	62.2137
16.952	62.3967
17.036	62.4411
17.12	62.3491
17.204	62.2084
17.288	62.0176
17.372	61.8308
17.456	61.8036
17.54	61.9744
17.624	62.1621
17.708	62.175
17.792	62.0394
17.876	61.9512
17.96	61.979
18.044	61.9709
18.128	61.8194
18.212	61.6414
18.296	61.5976
18.38	61.6922
18.464	61.8432
18.548	62.0102
18.632	62.14
18.716	62.1213
18.8	61.9082
18.884	61.6141
18.968	61.3941
19.052	61.2627
19.136	61.1191
19.22	60.9196
19.304	60.7488
19.388	60.7169
19.472	60.8406
19.556	61.0553
19.64	61.2903
19.724	61.5082
19.808	61.6849
19.892	61.8016
19.976	61.8566
20.06	61.883
20.144	61.9454
20.228	62.1071
20.312	62.3634
20.396	62.5888
20.48	62.5781
20.564	62.1863
20.648	61.4688
20.732	60.6815
20.816	60.1198
20.9	59.9107
20.984	59.9661
21.068	60.0962
21.152	60.1825
21.236	60.2397
21.32	60.3368
21.404	60.4746
21.488	60.5439
21.572	60.4224
21.656	60.0965
21.74	59.6821
21.824	59.3402
21.908	59.1397
21.992	59.0027
22.076	58.7845
22.16	58.4061
22.244	57.9411
22.328	57.5737
22.412	57.4645
22.496	57.6449
22.58	58.0319
22.664	58.5174
22.748	59.01
22.832	59.4248
22.916	59.6635
23	59.6223
23.084	59.2298
23.168	58.5132
23.252	57.62
23.336	56.7796
23.42	56.2084
23.504	56.0992
23.588	56.4886
23.672	57.2433
23.756	58.1417
23.84	58.8955
23.924	59.2619
24.008	59.1948
24.092	58.9159
24.176	58.8139
24.26	59.212
24.344	60.1706
24.428	61.394
24.512	62.2921
24.596	62.3197
24.68	61.1639
24.764	58.911
24.848	56.055
24.932	53.6721
25.016	53.1122
25.1	55.526
25.184	61.3777
25.268	70.0313
25.352	79.936
25.436	89.0679
25.52	95.6973
25.604	98.8987
25.688	98.5895
25.772	95.4114
25.856	90.3572
25.94	84.74
26.024	79.9939
26.108	77.3162
26.192	77.4403
26.276	80.4694
26.36	85.9009
26.444	92.5852
26.528	99.0541
26.612	103.834
26.696	105.964
26.78	105.303
26.864	102.653
26.948	99.2819
27.028	96.3523

File: C-4040-8_t63_cm-1.asc
PE IR       SPECTRUM    SPECTRUM    ASCII       PEDS        1.60
  -1
C-9CE1~1.ASC
17/03/27
19:37:36.00
17/03/27
19:37:36.00
tln
$C-4040-8_t0063$<tbV0>[-5.2,0.0,8.0,0.0,27,1,0]
370
64

2002,4.07
MIRTGS : RIGHTBACK : INTERNAL 2
MIR : ON : INTERNAL 2
OPTKBR

0.200000
8
8.000000
FILLER
RATIO
SPECTRUM
UNLOCKED 256

DOUBLE
64
COMBINED
1
0
0

1.000000
RATIO

1
0
TRUE
51149
0
LEFT NOT FITTED RIGHT NOT FITTED 0
NONE
NONE
15600
12
4.427000
51148
TRUE
1 0 8 72 0 0 0 0

15798

#HDR
-1
-1
#GR
CM-1
%T
2.38419e-05
0.0
5000
-1.000000
4631
8
105.967
50.082
#DATA
5000	64.9925
4984	64.8025
4968	64.7621
4952	65.0101
4936	65.3011
4920	65.2009
4904	65.3609
4888	65.2758
4872	64.6018
4856	64.9935
4840	65.0984
4824	65.0918
4808	64.9139
4792	65.3647
4776	65.0891
4760	64.6729
4744	64.4305
4728	64.2445
4712	64.7773
4696	64.5968
4680	64.5219
4664	64.4425
4648	64.4307
4632	64.5917
4616	64.412
4600	64.8289
4584	65.0397
4568	64.7617
4552	64.9052
4536	65.418
4520	65.0315
4504	65.5429
4488	65.5048
4472	66.0855
4456	65.7303
4440	66.1636
4424	66.5087
4408	66.3653
4392	66.0793
4376	58.9182
4360	52.983
4344	66.4118
4328	66.4074
4312	66.041
4296	66.0472
4280	66.1206
4264	65.5183
4248	65.5227
4232	65.5349
4216	65.5154
4200	65.4789
4184	64.8249
4168	64.4807
4152	64.9612
4136	64.8237
4120	65.1403
4104	64.5688
4088	64.9001
4072	64.8772
4056	64.6282
4040	64.5876
4024	64.6832
4008	64.6961
3992	64.9776
3976	64.9456
3960	64.9728
3944	65.044
3928	65.1628
3912	64.9431
3896	64.9448
3880	65.2386
3864	65.1813
3848	65.3359
3832	65.1513
3816	65.0887
3800	65.2779
3784	65.1026
3768	65.0744
3752	65.0958
3736	65.2844
3720	65.0474
3704	64.9931
3688	65.0984
3672	64.9005
3656	65.0366
3640	65.0778
3624	65.0348
3608	65.0281
3592	64.9083
3576	65.2089
3560	64.8948
3544	65.0857
3528	65.0889
3512	65.0284
3496	64.842
3480	65.1967
3464	65.1993
3448	65.2451
3432	65.3264
3416	65.0877
3400	65.3639
3384	65.1714
3368	65.2765
3352	65.0344
3336	65.3028
3320	65.2606
3304	65.0489
3288	65.1026
3272	65.0659
3256	65.3738
3240	64.9936
3224	64.826
3208	65.0872
3192	65.0801
3176	65.2895
3160	65.1536
3144	64.9165
3128	64.9344
3112	65.0833
3096	65.3134
3080	65.1258
3064	65.2065
3048	65.171
3032	65.2008
3016	65.222
3000	65.0621
2984	65.0602
2968	65.0689
2952	65.1857
2936	65.1189
2920	64.9128
2904	65.1009
2888	65.0596
2872	65.1011
2856	65.0709
2840	65.0356
2824	65.114
2808	65.1439
2792	65.1452
2776	65.2026
2760	65.0398
2744	65.2031
2728	65.2612
2712	65.0826
2696	65.0938
2680	65.0885
2664	65.2849
2648	65.1354
2632	65.2381
2616	65.1833
2600	65.1734
2584	65.2174
2568	65.155
2552	65.3865
2536	65.1664
2520	65.2049
2504	65.3031
2488	65.0641
2472	65.2682
2456	65.3023
2440	65.3312
2424	65.4139
2408	65.1925
2392	65.3339
2376	65.2799
2360	65.3701
2344	65.2052
2328	65.1806
2312	65.1531
2296	65.2718
2280	65.1566
2264	65.1589
2248	65.438
2232	65.5027
2216	65.2205
2200	65.1928
2184	65.1913
2168	65.2609
2152	65.2886
2136	65.2649
2120	65.233
2104	65.3296
2088	65.1627
2072	65.198
2056	65.211
2040	65.1755
2024	65.2844
2008	65.3048
1992	65.31
1976	65.2627
1960	65.1845
1944	65.2602
1928	65.2741
1912	65.2267
1896	65.3301
1880	65.3213
1864	65.193
1848	65.227
1832	65.2657
1816	65.2756
1800	65.2401
1784	65.2886
1768	65.2752
1752	65.157
1736	64.928
1720	65.1168
1704	65.0995
1688	65.0285
1672	65.294
1656	65.1594
1640	65.1141
1624	65.153
1608	64.9948
1592	65.0132
1576	65.2616
1560	65.1208
1544	65.1395
1528	65.0502
1512	64.9743
1496	65.1435
1480	64.9634
1464	65.0219
1448	64.8988
1432	65.0785
1416	65.0963
1400	65.1187
1384	65.1828
1368	65.0203
1352	64.9759
1336	65.0228
1320	65.0164
1304	64.9861
1288	64.9982
1272	64.977
1256	64.9627
1240	65.0817
1224	64.8039
1208	64.8704
1192	64.8877
1176	64.8743
1160	64.8696
1144	65.014
1128	64.9402
1112	64.8427
1096	64.4642
1080	65.5344
1064	64.9162
1048	64.332
1032	64.778
1016	64.6807
1000	64.7532
984	 64.8245
968	 64.5759
952	 64.2488
936	 64.6224
920	 64.361
904	 64.6449
888	 64.3171
872	 64.5396
856	 64.6359
840	 64.5083
824	 64.4141
808	 64.35
792	 63.5489
776	 64.1052
760	 63.6711
744	 64.1076
728	 63.3937
712	 63.7218
696	 63.6587
680	 63.2762
664	 62.7322
648	 63.1312
632	 63.3544
616	 63.3723
600	 62.2668
584	 62.3443
568	 62.1318
552	 61.8473
536	 62.155
520	 60.8936
504	 61.739
488	 62.5475
472	 60.205
456	 59.1037
440	 58.8924
424	 56.4671
408	 62.2787
392	 95.0954
376	 103.107
370	 96.3523