Folder: Masteroppgave/Bakgrunnsmateriale/MATLAB/FTIR/ftir_data/subBb/Mapping_121 (part 30)

File: C-4040-8_t66_cm-1.asc
PE IR       SPECTRUM    SPECTRUM    ASCII       PEDS        1.60
  -1
C-9C6E~1.ASC
17/03/27
19:51:26.00
17/03/27
19:51:26.00
tln
$C-4040-8_t0066$<tbV0>[-13.0,0.0,8.0,0.0,27,1,0]
370
64

2002,4.07
MIRTGS : RIGHTBACK : INTERNAL 2
MIR : ON : INTERNAL 2
OPTKBR

0.200000
8
8.000000
FILLER
RATIO
SPECTRUM
UNLOCKED 256

DOUBLE
64
COMBINED
1
0
0

1.000000
RATIO

1
0
TRUE
51149
0
LEFT NOT FITTED RIGHT NOT FITTED 0
NONE
NONE
15600
12
4.427000
51148
TRUE
1 0 8 72 0 0 0 0

15798

#HDR
-1
-1
#GR
CM-1
%T
2.38419e-05
0.0
5000
-1.000000
4631
8
91.7939
43.4314
#DATA
5000	64.4802
4984	65.0952
4968	64.4176
4952	64.9456
4936	65.1033
4920	64.6276
4904	65.4623
4888	64.6817
4872	64.951
4856	64.4672
4840	64.9488
4824	64.6419
4808	64.7738
4792	65.0703
4776	65.0822
4760	64.279
4744	64.215
4728	64.4963
4712	64.7595
4696	64.6646
4680	64.2869
4664	64.4272
4648	64.6481
4632	64.59
4616	64.4057
4600	64.8704
4584	64.8907
4568	65.0661
4552	64.7879
4536	65.4752
4520	64.8733
4504	65.6512
4488	65.3234
4472	66.066
4456	65.6028
4440	66.5944
4424	66.1921
4408	66.4177
4392	63.8576
4376	43.9944
4360	61.276
4344	66.5569
4328	66.1322
4312	66.0547
4296	65.9465
4280	66.0173
4264	65.5689
4248	65.2144
4232	65.5927
4216	65.373
4200	64.7211
4184	65.4038
4168	64.5333
4152	64.8025
4136	65.0076
4120	64.6741
4104	64.5757
4088	64.9118
4072	64.8848
4056	64.623
4040	64.9134
4024	64.6506
4008	64.791
3992	64.865
3976	65.0079
3960	64.7609
3944	65.1726
3928	65.0951
3912	65.1817
3896	64.9798
3880	65.047
3864	65.1765
3848	65.1944
3832	65.0111
3816	65.2727
3800	65.0263
3784	65.1921
3768	65.1055
3752	65.0017
3736	65.2618
3720	65.0839
3704	65.1499
3688	65.1175
3672	65.0296
3656	64.9951
3640	65.0992
3624	64.7611
3608	65.1606
3592	64.9553
3576	65.1568
3560	64.9817
3544	64.7906
3528	64.9535
3512	64.9458
3496	65.0182
3480	65.3557
3464	64.9698
3448	65.0394
3432	65.3287
3416	65.2244
3400	65.3959
3384	65.141
3368	65.0007
3352	65.1144
3336	65.2556
3320	65.1335
3304	65.0582
3288	64.972
3272	65.1058
3256	65.1648
3240	64.8397
3224	64.9951
3208	64.9871
3192	65.0102
3176	65.139
3160	65.2586
3144	64.8871
3128	64.9916
3112	65.1222
3096	64.9155
3080	65.0733
3064	65.2479
3048	65.2789
3032	65.0429
3016	65.2832
3000	65.1137
2984	65.1751
2968	65.1311
2952	65.0407
2936	65.0291
2920	64.8696
2904	65.0688
2888	65.0839
2872	65.2768
2856	64.9385
2840	65.172
2824	64.9457
2808	65.0451
2792	65.0172
2776	65.1647
2760	65.1412
2744	65.178
2728	65.1232
2712	65.1572
2696	65.0307
2680	65.1843
2664	65.2257
2648	65.2511
2632	65.2085
2616	65.2791
2600	65.1827
2584	65.2611
2568	65.1814
2552	65.373
2536	65.2289
2520	65.1622
2504	65.0965
2488	65.1834
2472	65.2341
2456	65.3663
2440	65.3752
2424	65.3711
2408	65.341
2392	65.3754
2376	65.2014
2360	65.2292
2344	65.2457
2328	65.2718
2312	65.1488
2296	65.2432
2280	65.0358
2264	65.1956
2248	65.4658
2232	65.3591
2216	65.1339
2200	65.2176
2184	65.1716
2168	65.3538
2152	65.3149
2136	65.1961
2120	65.2269
2104	65.2999
2088	65.1392
2072	65.1114
2056	65.61
2040	65.1485
2024	65.2346
2008	65.2247
1992	65.1772
1976	65.2846
1960	65.2505
1944	65.2292
1928	65.2647
1912	65.2421
1896	65.2974
1880	65.2791
1864	65.1587
1848	65.2199
1832	65.29
1816	65.1685
1800	65.236
1784	65.1922
1768	65.1768
1752	65.2093
1736	65.0285
1720	65.0862
1704	65.2909
1688	65.2557
1672	65.0474
1656	65.0753
1640	65.0581
1624	65.1515
1608	65.0734
1592	64.9972
1576	65.0242
1560	64.834
1544	65.0407
1528	65.0485
1512	64.9773
1496	65.1683
1480	65.0952
1464	64.8946
1448	64.8027
1432	64.9612
1416	65.0379
1400	65.0599
1384	64.8989
1368	64.9697
1352	64.9641
1336	64.828
1320	64.963
1304	64.9275
1288	65.1195
1272	64.8853
1256	65.0728
1240	65.0283
1224	64.8969
1208	64.9693
1192	64.9257
1176	64.8823
1160	64.9649
1144	65.0212
1128	64.9081
1112	64.8083
1096	64.5204
1080	65.1291
1064	65.0457
1048	64.7117
1032	64.8328
1016	64.7357
1000	64.4122
984	 64.7973
968	 64.5016
952	 64.9458
936	 64.4832
920	 64.7343
904	 64.649
888	 64.6952
872	 64.328
856	 64.4285
840	 64.2984
824	 64.6622
808	 64.6333
792	 64.0317
776	 64.0283
760	 63.9113
744	 64.5005
728	 63.7796
712	 63.9945
696	 64.1713
680	 63.2173
664	 63.4987
648	 63.1755
632	 63.38
616	 63.5572
600	 63.5842
584	 62.4833
568	 62.7065
552	 62.9229
536	 62.1084
520	 62.1454
504	 62.4286
488	 62.0783
472	 60.8982
456	 60.7874
440	 60.9335
424	 63.3076
408	 61.1864
392	 87.1901
376	 91.2765
370	 68.8189

File: C-4040-8_t67.asc
PE IR       SPECTRUM    SPECTRUM    ASCII       PEDS        1.60
  -1
C-BD36~1.ASC
17/03/27
20:02:48.00
17/03/27
20:03:14.00
tln
$C-4040-8_t0067$<tbV0>[13.0,2.6,8.0,0.0,27,1,0]
27.028
64

2002,4.07
MIRTGS : RIGHTBACK : INTERNAL 2
MIR : ON : INTERNAL 2
OPTKBR

0.200000
8
8.000000
FILLER
RATIO
SPECTRUM
UNLOCKED 256

DOUBLE
64
COMBINED
1
0
0

0.002000
RATIO

1
0
TRUE
51149
0
LEFT NOT FITTED RIGHT NOT FITTED 0
NONE
NONE
15600
12
4.427000
51148
TRUE
1 0 8 72 0 0 0 0

15798

#HDR
-1
-1
#GR
µM
%T
2.38419e-05
0.0
2.000000
0.002000
12515
8
66.7899
34.8647
#DATA
2.000000	 64.984
2.084000	 64.6723
2.168000	 65.0309
2.252000	 65.6213
2.336000	 65.5726
2.420000	 64.9087
2.504000	 64.9957
2.588000	 65.2831
2.672000	 65.2853
2.756000	 65.1579
2.840000	 65.1585
2.924000	 65.0988
3.008000	 65.0839
3.092000	 65.0444
3.176000	 65.1269
3.260000	 65.2475
3.344000	 65.0815
3.428000	 64.8489
3.512000	 65.0935
3.596000	 65.2194
3.680000	 65.1929
3.764000	 65.1797
3.848000	 65.1251
3.932000	 65.0817
4.016000	 65.1348
4.100000	 65.3001
4.184000	 65.2741
4.268000	 65.2083
4.352000	 65.1721
4.436000	 65.258
4.520000	 65.2705
4.604000	 65.3592
4.688000	 65.3831
4.772000	 65.2155
4.856000	 65.0458
4.940000	 65.2612
5.024000	 65.205
5.108000	 65.3117
5.192000	 65.2087
5.276000	 65.213
5.359999	 65.2949
5.444000	 65.1597
5.528000	 65.1932
5.612000	 65.258
5.696000	 65.3295
5.780000	 65.0479
5.864000	 65.0038
5.948000	 65.0887
6.032000	 65.0808
6.116000	 65.0394
6.200000	 64.781
6.284000	 64.9599
6.368000	 64.8952
6.452000	 64.9473
6.536000	 65.0809
6.620000	 64.9368
6.704000	 65.0892
6.788000	 65.0648
6.872000	 64.8668
6.956000	 65.0954
7.040000	 64.8498
7.124000	 65.0159
7.208000	 64.9249
7.292000	 65.2026
7.376000	 64.9467
7.460000	 64.9872
7.544000	 64.9082
7.628000	 64.908
7.712000	 65.018
7.796000	 65.0669
7.880000	 64.8527
7.964000	 64.9045
8.048000	 64.686
8.132000	 64.9014
8.216000	 64.9243
8.300000	 64.8079
8.384000	 64.745
8.468000	 64.7048
8.552000	 64.5133
8.635999	 64.6889
8.719999	 64.7389
8.804000	 64.7904
8.888000	 64.7631
8.972000	 64.5543
9.056000	 64.674
9.140000	 64.3616
9.224000	 64.4021
9.308000	 64.3621
9.391999	 64.6437
9.475999	 64.7731
9.560000	 64.5448
9.644000	 64.6063
9.728000	 64.4306
9.812000	 64.1104
9.896000	 64.54
9.980000	 64.3425
10.064	64.3476
10.148	64.774
10.232	64.5242
10.316	64.4818
10.4	64.4216
10.484	64.6145
10.568	65.0589
10.652	64.8713
10.736	64.548
10.82	64.9401
10.904	65.064
10.988	64.9244
11.072	64.7992
11.156	64.7399
11.24	64.5577
11.324	64.6115
11.408	64.5568
11.492	64.3077
11.576	64.2925
11.66	64.1621
11.744	64.2684
11.828	64.3604
11.912	64.3771
11.996	64.4029
12.08	64.3024
12.164	63.9854
12.248	63.9832
12.332	64.0926
12.416	64.1545
12.5	64.1058
12.584	63.8618
12.668	63.6856
12.752	63.9752
12.836	64.1465
12.92	63.9644
13.004	63.7551
13.088	63.6942
13.172	63.6058
13.256	63.444
13.34	63.631
13.424	63.9676
13.508	63.9646
13.592	63.6912
13.676	63.6376
13.76	63.4848
13.844	63.3007
13.928	63.245
14.012	63.2025
14.096	63.003
14.18	62.7054
14.264	62.8002
14.348	63.1421
14.432	63.2274
14.516	63.0518
14.6	62.8806
14.684	62.9682
14.768	63.0094
14.852	62.6786
14.936	62.2332
15.02	61.9401
15.104	61.9426
15.188	62.1225
15.272	62.2416
15.356	62.3034
15.44	62.353
15.524	62.431
15.608	62.4318
15.692	62.2159
15.776	62.0621
15.86	62.1765
15.944	62.2891
16.028	62.1801
16.112	61.9141
16.196	61.6754
16.28	61.6557
16.364	61.8235
16.448	61.976
16.532	62.0607
16.616	62.1162
16.7	62.0558
16.784	61.8176
16.868	61.55
16.952	61.4859
17.036	61.6785
17.12	61.9301
17.204	61.9844
17.288	61.746
17.372	61.3332
17.456	60.9672
17.54	60.8094
17.624	60.8587
17.708	60.9839
17.792	61.0549
17.876	61.0427
17.96	61.0174
18.044	61.0558
18.128	61.156
18.212	61.2447
18.296	61.2575
18.38	61.1909
18.464	61.0831
18.548	60.9667
18.632	60.8376
18.716	60.6784
18.8	60.4928
18.884	60.3206
18.968	60.213
19.052	60.2057
19.136	60.307
19.22	60.4842
19.304	60.6495
19.388	60.7216
19.472	60.7095
19.556	60.6972
19.64	60.7305
19.724	60.7533
19.808	60.6768
19.892	60.4783
19.976	60.2209
20.06	59.9921
20.144	59.8496
20.228	59.8234
20.312	59.9187
20.396	60.0899
20.48	60.2212
20.564	60.1904
20.648	59.9707
20.732	59.6702
20.816	59.4431
20.9	59.3531
20.984	59.3303
21.068	59.2481
21.152	59.0532
21.236	58.8056
21.32	58.6182
21.404	58.5652
21.488	58.658
21.572	58.8825
21.656	59.2348
21.74	59.7064
21.824	60.2443
21.908	60.7333
21.992	61.0269
22.076	61.0072
22.16	60.6427
22.244	60.0026
22.328	59.2254
22.412	58.4748
22.496	57.8837
22.58	57.5162
22.664	57.3701
22.748	57.3756
22.832	57.4353
22.916	57.474
23	57.4354
23.084	57.3095
23.168	57.147
23.252	57.0269
23.336	57.0186
23.42	57.1754
23.504	57.469
23.588	57.7923
23.672	57.9942
23.756	57.897
23.84	57.3916
23.924	56.4728
24.008	55.2722
24.092	54.0847
24.176	53.3309
24.26	53.4012
24.344	54.5659
24.428	56.8217
24.512	59.8098
24.596	62.9245
24.68	65.3838
24.764	66.4225
24.848	65.5877
24.932	62.8766
25.016	58.779
25.1	54.0593
25.184	49.4795
25.268	45.5139
25.352	42.3203
25.436	39.7404
25.52	37.5858
25.604	35.9213
25.688	34.9718
25.772	35.0442
25.856	36.3809
25.94	39.0071
26.024	42.6701
26.108	46.8662
26.192	51.1103
26.276	55.0409
26.36	58.4847
26.444	61.3173
26.528	63.3435
26.612	64.2108
26.696	63.5389
26.78	61.0858
26.864	57.1672
26.948	52.7243
27.028	49.2285

File: C-4040-8_t67_cm-1.asc
PE IR       SPECTRUM    SPECTRUM    ASCII       PEDS        1.60
  -1
C-9CEF~1.ASC
17/03/27
20:02:48.00
17/03/27
20:02:48.00
tln
$C-4040-8_t0067$<tbV0>[13.0,2.6,8.0,0.0,27,1,0]
370
64

2002,4.07
MIRTGS : RIGHTBACK : INTERNAL 2
MIR : ON : INTERNAL 2
OPTKBR

0.200000
8
8.000000
FILLER
RATIO
SPECTRUM
UNLOCKED 256

DOUBLE
64
COMBINED
1
0
0

1.000000
RATIO

1
0
TRUE
51149
0
LEFT NOT FITTED RIGHT NOT FITTED 0
NONE
NONE
15600
12
4.427000
51148
TRUE
1 0 8 72 0 0 0 0

15798

#HDR
-1
-1
#GR
CM-1
%T
2.38419e-05
0.0
5000
-1.000000
4631
8
66.8074
34.8902
#DATA
5000	64.984
4984	65.0484
4968	64.6324
4952	65.3318
4936	65.121
4920	65.3706
4904	64.9485
4888	65.0965
4872	64.8416
4856	65.1995
4840	64.8943
4824	64.7086
4808	65.0173
4792	64.2876
4776	64.4794
4760	64.6984
4744	64.8174
4728	64.9576
4712	64.5961
4696	64.518
4680	64.8386
4664	64.7099
4648	64.8865
4632	65.1169
4616	65.1534
4600	64.8817
4584	64.967
4568	65.3551
4552	65.296
4536	65.333
4520	65.7677
4504	65.7437
4488	65.7467
4472	65.3601
4456	65.7457
4440	65.6003
4424	65.568
4408	65.2802
4392	61.9563
4376	51.6882
4360	65.1317
4344	66.5914
4328	66.1178
4312	66.0324
4296	65.9792
4280	65.6224
4264	65.7463
4248	65.4173
4232	65.628
4216	65.3205
4200	65.0562
4184	65.7422
4168	64.9762
4152	65.1327
4136	64.9064
4120	64.6744
4104	64.8417
4088	64.9519
4072	64.7953
4056	64.8941
4040	64.7847
4024	64.9666
4008	65.1358
3992	65.0153
3976	64.9823
3960	65.1006
3944	64.9413
3928	65.1385
3912	65.2837
3896	65.3435
3880	65.1471
3864	65.2834
3848	65.143
3832	65.0638
3816	65.1649
3800	65.2286
3784	64.9433
3768	65.0951
3752	65.0612
3736	65.2612
3720	65.1883
3704	65.1192
3688	65.1559
3672	65.0996
3656	65.1852
3640	64.9808
3624	65.3039
3608	65.1034
3592	65.1748
3576	65.3112
3560	65.2365
3544	65.0581
3528	65.1615
3512	65.0552
3496	65.0926
3480	65.2219
3464	65.3873
3448	65.3525
3432	65.1069
3416	65.3325
3400	64.856
3384	65.2014
3368	65.1491
3352	65.1717
3336	65.2824
3320	65.1087
3304	65.1475
3288	65.2476
3272	65.1611
3256	65.1097
3240	64.9037
3224	64.9288
3208	65.1066
3192	65.1097
3176	65.0094
3160	65.091
3144	65.3961
3128	64.9142
3112	64.9426
3096	65.2786
3080	65.0203
3064	65.2429
3048	65.0936
3032	64.9968
3016	65.0988
3000	64.9923
2984	65.0625
2968	64.9544
2952	64.9892
2936	64.9507
2920	64.8423
2904	64.968
2888	65.1752
2872	64.9359
2856	65.1221
2840	65.0423
2824	65.1772
2808	65.2143
2792	65.2007
2776	65.2547
2760	65.3493
2744	65.196
2728	65.1178
2712	65.2984
2696	65.2481
2680	65.15
2664	65.2561
2648	65.1714
2632	65.3738
2616	65.1518
2600	65.1396
2584	65.3924
2568	65.1906
2552	65.2396
2536	65.1915
2520	65.2733
2504	64.9309
2488	65.2002
2472	65.3543
2456	65.1753
2440	65.2633
2424	64.9243
2408	65.1118
2392	65.2354
2376	65.2943
2360	65.1876
2344	65.1804
2328	65.1863
2312	65.2959
2296	65.1718
2280	65.3452
2264	65.3093
2248	65.3026
2232	65.3226
2216	65.2495
2200	65.1763
2184	65.2825
2168	65.364
2152	65.1367
2136	65.4112
2120	65.2313
2104	65.3561
2088	65.2844
2072	65.3329
2056	65.1412
2040	65.3084
2024	65.2613
2008	65.3974
1992	65.2013
1976	65.1945
1960	65.2901
1944	65.2206
1928	65.1816
1912	65.257
1896	65.2079
1880	65.2217
1864	65.2777
1848	65.1707
1832	65.2139
1816	65.3702
1800	65.2995
1784	65.2423
1768	65.1637
1752	65.2228
1736	65.0069
1720	65.1321
1704	65.0443
1688	65.1849
1672	65.0594
1656	65.0701
1640	65.1422
1624	65.0282
1608	64.8554
1592	64.9539
1576	64.9158
1560	64.9036
1544	65.0265
1528	65.0742
1512	64.9065
1496	65.1022
1480	64.9408
1464	65.0244
1448	64.836
1432	65.0954
1416	64.9436
1400	65.0721
1384	64.9417
1368	65.0902
1352	64.8884
1336	64.9933
1320	64.8849
1304	64.8981
1288	65.081
1272	64.8768
1256	64.9035
1240	64.7212
1224	64.9301
1208	64.7583
1192	64.7517
1176	64.6437
1160	64.6602
1144	64.7565
1128	64.7323
1112	64.5617
1096	64.3684
1080	64.3672
1064	64.6602
1048	64.6203
1032	64.4844
1016	64.3152
1000	64.2806
984	 64.8059
968	 64.4926
952	 64.6452
936	 64.6144
920	 65.0969
904	 64.8033
888	 64.538
872	 64.3483
856	 64.1605
840	 64.3734
824	 64.0804
808	 64.1402
792	 63.7181
776	 64.056
760	 63.6367
744	 64.0078
728	 63.5483
712	 63.1538
696	 63.1937
680	 63.0069
664	 61.9025
648	 62.3476
632	 62.1035
616	 61.6339
600	 62.1017
584	 61.9371
568	 60.8359
552	 61.1404
536	 60.7944
520	 60.5082
504	 60.6107
488	 60.2286
472	 58.9515
456	 60.8342
440	 57.3657
424	 57.7818
408	 59.7283
392	 37.814
376	 64.1546
370	 49.2285

File: C-4040-8_t68.asc
PE IR       SPECTRUM    SPECTRUM    ASCII       PEDS        1.60
  -1
C-CD3A~1.ASC
17/03/27
20:07:25.00
17/03/27
20:07:51.00
tln
$C-4040-8_t0068$<tbV0>[10.4,2.6,8.0,0.0,27,1,0]
27.028
64

2002,4.07
MIRTGS : RIGHTBACK : INTERNAL 2
MIR : ON : INTERNAL 2
OPTKBR

0.200000
8
8.000000
FILLER
RATIO
SPECTRUM
UNLOCKED 256

DOUBLE
64
COMBINED
1
0
0

0.002000
RATIO

1
0
TRUE
51149
0
LEFT NOT FITTED RIGHT NOT FITTED 0
NONE
NONE
15600
12
4.427000
51148
TRUE
1 0 8 72 0 0 0 0

15798

#HDR
-1
-1
#GR
µM
%T
2.38419e-05
0.0
2.000000
0.002000
12515
8
93.6775
25.1875
#DATA
2.000000	 65.355
2.084000	 64.9064
2.168000	 65.2015
2.252000	 64.2533
2.336000	 64.6612
2.420000	 65.1311
2.504000	 65.2408
2.588000	 65.479
2.672000	 65.1449
2.756000	 65.219
2.840000	 65.3476
2.924000	 65.3903
3.008000	 65.1511
3.092000	 65.3283
3.176000	 65.3396
3.260000	 65.1982
3.344000	 65.0262
3.428000	 64.8549
3.512000	 65.1651
3.596000	 65.4279
3.680000	 65.3793
3.764000	 65.3436
3.848000	 65.269
3.932000	 65.135
4.016000	 65.1266
4.100000	 65.4891
4.184000	 65.2847
4.268000	 65.3403
4.352000	 65.2914
4.436000	 65.3743
4.520000	 65.296
4.604000	 65.3394
4.688000	 65.2713
4.772000	 65.3321
4.856000	 65.1349
4.940000	 65.328
5.024000	 65.3013
5.108000	 65.405
5.192000	 65.403
5.276000	 65.3476
5.359999	 65.3518
5.444000	 65.3138
5.528000	 65.338
5.612000	 65.3846
5.696000	 65.3749
5.780000	 65.3004
5.864000	 65.1276
5.948000	 65.2385
6.032000	 65.2243
6.116000	 65.0904
6.200000	 65.0501
6.284000	 65.1081
6.368000	 64.9779
6.452000	 65.0302
6.536000	 65.0756
6.620000	 65.137
6.704000	 65.2406
6.788000	 65.0231
6.872000	 65.0795
6.956000	 65.2849
7.040000	 65.0806
7.124000	 65.1551
7.208000	 64.989
7.292000	 65.1782
7.376000	 65.1528
7.460000	 65.1551
7.544000	 65.1523
7.628000	 64.9587
7.712000	 65.0047
7.796000	 64.8842
7.880000	 64.8737
7.964000	 64.8998
8.048000	 64.8531
8.132000	 64.8895
8.216000	 64.6708
8.300000	 65.1229
8.384000	 64.7634
8.468000	 64.7206
8.552000	 64.5429
8.635999	 64.7042
8.719999	 64.6605
8.804000	 64.82
8.888000	 64.5831
8.972000	 64.6951
9.056000	 64.5027
9.140000	 64.5385
9.224000	 64.3855
9.308000	 64.6417
9.391999	 64.7479
9.475999	 64.5517
9.560000	 64.6125
9.644000	 64.822
9.728000	 64.4784
9.812000	 64.0099
9.896000	 64.3714
9.980000	 64.8647
10.064	64.7257
10.148	64.7462
10.232	64.8102
10.316	64.382
10.4	64.8133
10.484	65.0287
10.568	65.136
10.652	64.6665
10.736	64.2338
10.82	64.3534
10.904	64.727
10.988	64.5329
11.072	64.3144
11.156	64.4619
11.24	64.5873
11.324	64.6716
11.408	64.7133
11.492	64.4832
11.576	64.3038
11.66	64.0805
11.744	64.0776
11.828	64.2335
11.912	64.2102
11.996	64.3792
12.08	64.3146
12.164	64.2129
12.248	64.2172
12.332	64.1842
12.416	64.2018
12.5	64.1341
12.584	63.9589
12.668	64.148
12.752	64.3898
12.836	63.9728
12.92	63.6778
13.004	63.6925
13.088	63.8615
13.172	63.9734
13.256	63.6798
13.34	63.3232
13.424	63.2909
13.508	63.5848
13.592	63.523
13.676	63.5029
13.76	63.6518
13.844	63.6585
13.928	63.576
14.012	63.3641
14.096	63.1387
14.18	63.0812
14.264	63.1597
14.348	63.2113
14.432	63.2918
14.516	63.3086
14.6	63.0561
14.684	62.9638
14.768	63.0332
14.852	62.9345
14.936	62.8808
15.02	62.7949
15.104	62.5081
15.188	62.3374
15.272	62.3767
15.356	62.4382
15.44	62.5311
15.524	62.6534
15.608	62.6589
15.692	62.5753
15.776	62.585
15.86	62.6636
15.944	62.617
16.028	62.3724
16.112	62.0446
16.196	61.8763
16.28	62.0445
16.364	62.3631
16.448	62.4513
16.532	62.2686
16.616	62.0914
16.7	62.0158
16.784	61.9369
16.868	61.8919
16.952	61.9778
17.036	62.0975
17.12	62.1082
17.204	62.0295
17.288	61.8887
17.372	61.596
17.456	61.161
17.54	60.8272
17.624	60.8173
17.708	61.0514
17.792	61.2615
17.876	61.2991
17.96	61.2228
18.044	61.1307
18.128	61.0474
18.212	60.9599
18.296	60.8697
18.38	60.7894
18.464	60.7458
18.548	60.7705
18.632	60.8293
18.716	60.8242
18.8	60.6946
18.884	60.4921
18.968	60.3014
19.052	60.1392
19.136	59.9726
19.22	59.8217
19.304	59.7698
19.388	59.8665
19.472	60.057
19.556	60.2228
19.64	60.2765
19.724	60.2019
19.808	60.0186
19.892	59.7354
19.976	59.3824
20.06	59.0635
20.144	58.927
20.228	59.0579
20.312	59.3936
20.396	59.7541
20.48	59.962
20.564	59.9431
20.648	59.7498
20.732	59.5101
20.816	59.357
20.9	59.3587
20.984	59.4724
21.068	59.5651
21.152	59.5057
21.236	59.2644
21.32	58.9334
21.404	58.6611
21.488	58.5308
21.572	58.5084
21.656	58.4827
21.74	58.3519
21.824	58.1041
21.908	57.8206
21.992	57.607
22.076	57.5281
22.16	57.5628
22.244	57.6271
22.328	57.6346
22.412	57.5523
22.496	57.4224
22.58	57.3479
22.664	57.4363
22.748	57.7269
22.832	58.1556
22.916	58.5792
23	58.8313
23.084	58.7999
23.168	58.4545
23.252	57.8367
23.336	57.0265
23.42	56.1228
23.504	55.2376
23.588	54.4731
23.672	53.8981
23.756	53.5262
23.84	53.2947
23.924	53.0516
24.008	52.658
24.092	52.0876
24.176	51.4193
24.26	50.837
24.344	50.5525
24.428	50.6677
24.512	51.099
24.596	51.655
24.68	52.0587
24.764	52.0213
24.848	51.4135
24.932	50.3621
25.016	49.2425
25.1	48.5468
25.184	48.6725
25.268	49.6552
25.352	51.1092
25.436	52.381
25.52	52.78
25.604	51.7918
25.688	49.1051
25.772	44.7634
25.856	39.2221
25.94	33.3504
26.024	28.365
26.108	25.5093
26.192	25.7051
26.276	29.2938
26.36	35.8754
26.444	44.3629
26.528	53.318
26.612	61.515
26.696	68.0368
26.78	72.3401
26.864	74.4204
26.948	74.5042
27.028	72.8691

File: C-4040-8_t68_cm-1.asc
PE IR       SPECTRUM    SPECTRUM    ASCII       PEDS        1.60
  -1
C-9C65~1.ASC
17/03/27
20:07:25.00
17/03/27
20:07:25.00
tln
$C-4040-8_t0068$<tbV0>[10.4,2.6,8.0,0.0,27,1,0]
370
64

2002,4.07
MIRTGS : RIGHTBACK : INTERNAL 2
MIR : ON : INTERNAL 2
OPTKBR

0.200000
8
8.000000
FILLER
RATIO
SPECTRUM
UNLOCKED 256

DOUBLE
64
COMBINED
1
0
0

1.000000
RATIO

1
0
TRUE
51149
0
LEFT NOT FITTED RIGHT NOT FITTED 0
NONE
NONE
15600
12
4.427000
51148
TRUE
1 0 8 72 0 0 0 0

15798

#HDR
-1
-1
#GR
CM-1
%T
2.38419e-05
0.0
5000
-1.000000
4631
8
94.3375
25.4335
#DATA
5000	65.355
4984	64.9666
4968	64.9265
4952	65.053
4936	64.4293
4920	64.662
4904	64.7692
4888	63.9538
4872	64.7993
4856	64.778
4840	64.6541
4824	64.8706
4808	64.7863
4792	64.7873
4776	65.164
4760	65.2206
4744	65.0723
4728	65.2345
4712	65.2406
4696	65.1914
4680	65.574
4664	65.5805
4648	65.6573
4632	65.5837
4616	65.2894
4600	64.6201
4584	64.6974
4568	65.1093
4552	64.7543
4536	64.6454
4520	64.8849
4504	64.5035
4488	64.6259
4472	63.9557
4456	64.0967
4440	64.2741
4424	63.9298
4408	63.1273
4392	61.4055
4376	91.2822
4360	65.1791
4344	64.3555
4328	64.721
4312	64.4098
4296	64.419
4280	64.6791
4264	64.3659
4248	64.5887
4232	64.7235
4216	64.7638
4200	64.8654
4184	65.1355
4168	65.3005
4152	64.9755
4136	65.1784
4120	65.1391
4104	65.3205
4088	65.2487
4072	65.0965
4056	65.1305
4040	65.2875
4024	65.3481
4008	65.4351
3992	65.2942
3976	65.0942
3960	65.381
3944	65.2266
3928	65.1843
3912	65.2139
3896	64.9515
3880	64.9672
3864	65.4795
3848	65.0874
3832	65.3736
3816	65.142
3800	65.1135
3784	65.112
3768	65.2141
3752	65.2699
3736	64.936
3720	65.149
3704	65.2023
3688	65.1432
3672	65.2252
3656	65.5319
3640	65.4872
3624	65.3625
3608	65.2013
3592	65.135
3576	65.5448
3560	65.2931
3544	65.0416
3528	65.2198
3512	65.1536
3496	65.2939
3480	65.2791
3464	65.289
3448	65.0085
3432	65.1113
3416	65.5341
3400	64.9121
3384	65.2716
3368	65.0966
3352	65.0298
3336	65.0654
3320	65.1959
3304	65.258
3288	65.1037
3272	65.196
3256	65.3831
3240	65.2099
3224	64.9156
3208	65.1227
3192	65.3457
3176	65.0664
3160	65.3216
3144	65.3975
3128	65.0434
3112	65.0864
3096	65.2213
3080	65.163
3064	65.1362
3048	65.2195
3032	65.1047
3016	65.1102
3000	65.1451
2984	65.0372
2968	64.9709
2952	65.0504
2936	64.9565
2920	64.8324
2904	65.1813
2888	65.0999
2872	64.9686
2856	64.9918
2840	65.1986
2824	65.182
2808	65.2764
2792	65.3033
2776	65.4323
2760	65.3902
2744	65.3721
2728	65.1299
2712	65.4324
2696	65.4719
2680	65.2161
2664	65.3699
2648	65.2905
2632	65.4214
2616	65.3029
2600	65.2629
2584	65.2181
2568	65.2003
2552	65.3629
2536	65.2277
2520	65.2667
2504	65.2753
2488	65.1844
2472	65.3359
2456	65.3347
2440	65.4758
2424	65.2205
2408	65.5017
2392	65.2725
2376	65.4513
2360	65.3083
2344	65.3274
2328	65.2352
2312	65.375
2296	65.2752
2280	65.4309
2264	65.279
2248	65.4448
2232	65.3514
2216	65.2404
2200	65.2115
2184	65.3701
2168	65.2929
2152	65.3689
2136	65.2927
2120	65.3115
2104	65.2991
2088	65.3155
2072	65.4809
2056	65.1348
2040	65.4314
2024	65.3264
2008	65.3158
1992	65.2995
1976	65.3146
1960	65.4025
1944	65.3721
1928	65.401
1912	65.2926
1896	65.3321
1880	65.3583
1864	65.3534
1848	65.1679
1832	65.3658
1816	65.4442
1800	65.2682
1784	65.3787
1768	65.3341
1752	65.2
1736	65.2082
1720	65.161
1704	65.1281
1688	65.2273
1672	65.2453
1656	65.2279
1640	65.1462
1624	65.02
1608	65.0255
1592	65.1182
1576	65.0787
1560	65.0227
1544	65.012
1528	65.1252
1512	65.0888
1496	65.1569
1480	65.0598
1464	65.0657
1448	64.796
1432	65.3192
1416	65.1497
1400	65.1377
1384	65.0666
1368	65.1022
1352	65.042
1336	65.1839
1320	65.0765
1304	64.8631
1288	64.874
1272	64.9395
1256	64.897
1240	64.8513
1224	64.7666
1208	65.0807
1192	64.7736
1176	64.5952
1160	64.6558
1144	64.6976
1128	64.6271
1112	64.6261
1096	64.6559
1080	64.4818
1064	64.7355
1048	64.493
1032	64.7163
1016	64.1556
1000	64.9345
984	 64.766
968	 64.4028
952	 64.9479
936	 64.4039
920	 64.623
904	 64.3138
888	 64.5861
872	 64.5279
856	 64.0388
840	 64.1981
824	 64.2404
808	 64.1821
792	 63.9882
776	 63.734
760	 63.9871
744	 63.3489
728	 63.619
712	 63.2638
696	 63.2221
680	 62.987
664	 62.669
648	 62.5195
632	 62.633
616	 61.9112
600	 62.0407
584	 62.1063
568	 60.7907
552	 61.0594
536	 60.8391
520	 59.8077
504	 59.9179
488	 59.9732
472	 59.4258
456	 57.7542
440	 57.6382
424	 54.4981
408	 51.0856
392	 52.7995
376	 60.0452
370	 72.8691