Folder: Masteroppgave/Bakgrunnsmateriale/MATLAB/FTIR/ftir_data/subBb/Mapping_121 (part 29)

File: C-4040-8_t64.asc
PE IR       SPECTRUM    SPECTRUM    ASCII       PEDS        1.60
  -1
C-BD3A~1.ASC
17/03/27
19:42:13.00
17/03/27
19:42:39.00
tln
$C-4040-8_t0064$<tbV0>[-7.8,0.0,8.0,0.0,27,1,0]
27.028
64

2002,4.07
MIRTGS : RIGHTBACK : INTERNAL 2
MIR : ON : INTERNAL 2
OPTKBR

0.200000
8
8.000000
FILLER
RATIO
SPECTRUM
UNLOCKED 256

DOUBLE
64
COMBINED
1
0
0

0.002000
RATIO

1
0
TRUE
51149
0
LEFT NOT FITTED RIGHT NOT FITTED 0
NONE
NONE
15600
12
4.427000
51148
TRUE
1 0 8 72 0 0 0 0

15798

#HDR
-1
-1
#GR
µM
%T
2.38419e-05
0.0
2.000000
0.002000
12515
8
84.8873
54.3514
#DATA
2.000000	 64.574
2.084000	 64.983
2.168000	 64.4807
2.252000	 64.2925
2.336000	 64.6358
2.420000	 64.9185
2.504000	 64.9905
2.588000	 65.2748
2.672000	 65.0404
2.756000	 64.9496
2.840000	 64.9449
2.924000	 65.1978
3.008000	 65.0613
3.092000	 65.0769
3.176000	 65.1053
3.260000	 65.0008
3.344000	 64.9985
3.428000	 64.6222
3.512000	 64.9704
3.596000	 64.9947
3.680000	 65.1504
3.764000	 65.1978
3.848000	 65.0576
3.932000	 65.0776
4.016000	 64.8752
4.100000	 65.0216
4.184000	 64.9863
4.268000	 65.0471
4.352000	 65.0102
4.436000	 65.2244
4.520000	 65.1396
4.604000	 65.0503
4.688000	 65.2157
4.772000	 65.0962
4.856000	 64.9238
4.940000	 65.0886
5.024000	 65.1445
5.108000	 64.9974
5.192000	 65.0794
5.276000	 65.2101
5.359999	 65.0849
5.444000	 65.0936
5.528000	 65.0607
5.612000	 65.1432
5.696000	 65.0439
5.780000	 64.9889
5.864000	 65.0907
5.948000	 65.1907
6.032000	 65.049
6.116000	 64.8142
6.200000	 64.9422
6.284000	 64.8046
6.368000	 65.0135
6.452000	 64.922
6.536000	 64.9098
6.620000	 64.8193
6.704000	 64.9861
6.788000	 64.88
6.872000	 64.5717
6.956000	 64.9922
7.040000	 64.887
7.124000	 64.8575
7.208000	 64.959
7.292000	 64.8944
7.376000	 64.9747
7.460000	 64.8599
7.544000	 64.8162
7.628000	 64.9265
7.712000	 64.9504
7.796000	 64.8432
7.880000	 64.8055
7.964000	 64.8467
8.048000	 64.774
8.132000	 64.7236
8.216000	 64.858
8.300000	 64.8875
8.384000	 64.6335
8.468000	 64.5582
8.552000	 64.6114
8.635999	 64.6878
8.719999	 64.8624
8.804000	 64.6573
8.888000	 64.5818
8.972000	 64.7486
9.056000	 64.2705
9.140000	 64.0115
9.224000	 65.0074
9.308000	 64.31
9.391999	 64.4203
9.475999	 64.666
9.560000	 64.468
9.644000	 64.3682
9.728000	 64.5393
9.812000	 64.0397
9.896000	 64.0875
9.980000	 64.0225
10.064	64.0719
10.148	64.2617
10.232	64.2336
10.316	64.1283
10.4	64.4091
10.484	64.3384
10.568	64.2316
10.652	64.3283
10.736	64.4534
10.82	64.5615
10.904	64.4594
10.988	64.3355
11.072	64.2547
11.156	64.1555
11.24	64.1831
11.324	64.4157
11.408	64.2668
11.492	64.1975
11.576	64.4357
11.66	64.4209
11.744	64.339
11.828	64.3227
11.912	64.2585
11.996	64.0755
12.08	64.3199
12.164	64.3835
12.248	64.091
12.332	63.984
12.416	64.0213
12.5	64.1561
12.584	64.0227
12.668	63.8586
12.752	64.0147
12.836	64.0672
12.92	64.008
13.004	63.9204
13.088	63.8897
13.172	63.7852
13.256	63.7268
13.34	64.4366
13.424	64.3803
13.508	63.6237
13.592	63.4048
13.676	63.2341
13.76	63.001
13.844	63.1712
13.928	63.2853
14.012	63.3083
14.096	63.3661
14.18	63.3707
14.264	63.449
14.348	63.6435
14.432	63.64
14.516	63.3553
14.6	63.1953
14.684	63.1075
14.768	63.0443
14.852	63.1164
14.936	63.0931
15.02	63.025
15.104	63.1416
15.188	63.2924
15.272	63.2042
15.356	62.8715
15.44	62.5648
15.524	62.5024
15.608	62.6177
15.692	62.6926
15.776	62.6668
15.86	62.6774
15.944	62.807
16.028	62.921
16.112	62.9001
16.196	62.8662
16.28	62.8989
16.364	62.8449
16.448	62.6806
16.532	62.5403
16.616	62.417
16.7	62.2821
16.784	62.2397
16.868	62.2761
16.952	62.1876
17.036	61.939
17.12	61.7334
17.204	61.6462
17.288	61.5529
17.372	61.4574
17.456	61.5208
17.54	61.7521
17.624	61.9755
17.708	62.0708
17.792	62.0514
17.876	61.9954
17.96	61.9827
18.044	62.0386
18.128	62.0975
18.212	62.0881
18.296	62.0032
18.38	61.8635
18.464	61.6867
18.548	61.5318
18.632	61.4763
18.716	61.5235
18.8	61.6016
18.884	61.6733
18.968	61.7285
19.052	61.6707
19.136	61.3874
19.22	60.9534
19.304	60.6432
19.388	60.6749
19.472	60.9993
19.556	61.3557
19.64	61.512
19.724	61.4311
19.808	61.2313
19.892	61.0369
19.976	60.8706
20.06	60.6633
20.144	60.3648
20.228	60.0308
20.312	59.7931
20.396	59.7395
20.48	59.8208
20.564	59.8937
20.648	59.8465
20.732	59.6901
20.816	59.5213
20.9	59.4153
20.984	59.391
21.068	59.4309
21.152	59.5129
21.236	59.6234
21.32	59.753
21.404	59.8804
21.488	59.9677
21.572	59.9904
21.656	59.9784
21.74	60.0195
21.824	60.1828
21.908	60.4254
21.992	60.5856
22.076	60.4746
22.16	60.0245
22.244	59.3735
22.328	58.7767
22.412	58.45
22.496	58.4142
22.58	58.5189
22.664	58.5755
22.748	58.483
22.832	58.2829
22.916	58.1037
23	58.0854
23.084	58.305
23.168	58.7711
23.252	59.4449
23.336	60.258
23.42	61.0991
23.504	61.861
23.588	62.3881
23.672	62.4965
23.756	62.0637
23.84	61.0561
23.924	59.5728
24.008	57.8428
24.092	56.195
24.176	54.9754
24.26	54.3961
24.344	54.459
24.428	54.9561
24.512	55.5429
24.596	55.9162
24.68	55.9154
24.764	55.5996
24.848	55.1973
24.932	55.297
25.016	56.6697
25.1	59.936
25.184	65.1382
25.268	71.4936
25.352	77.6141
25.436	82.0904
25.52	84.1711
25.604	83.9742
25.688	82.1542
25.772	79.5718
25.856	76.9592
25.94	74.8464
26.024	73.6302
26.108	73.6082
26.192	74.886
26.276	77.2089
26.36	79.8622
26.444	81.8591
26.528	82.2902
26.612	80.7463
26.696	77.3609
26.78	72.7799
26.864	67.7973
26.948	63.052
27.028	59.0728

File: C-4040-8_t64_cm-1.asc
PE IR       SPECTRUM    SPECTRUM    ASCII       PEDS        1.60
  -1
C-9C6F~1.ASC
17/03/27
19:42:13.00
17/03/27
19:42:13.00
tln
$C-4040-8_t0064$<tbV0>[-7.8,0.0,8.0,0.0,27,1,0]
370
64

2002,4.07
MIRTGS : RIGHTBACK : INTERNAL 2
MIR : ON : INTERNAL 2
OPTKBR

0.200000
8
8.000000
FILLER
RATIO
SPECTRUM
UNLOCKED 256

DOUBLE
64
COMBINED
1
0
0

1.000000
RATIO

1
0
TRUE
51149
0
LEFT NOT FITTED RIGHT NOT FITTED 0
NONE
NONE
15600
12
4.427000
51148
TRUE
1 0 8 72 0 0 0 0

15798

#HDR
-1
-1
#GR
CM-1
%T
2.38419e-05
0.0
5000
-1.000000
4631
8
86.144
54.368
#DATA
5000	64.574
4984	65.0424
4968	64.872
4952	64.4304
4936	64.7944
4920	64.7135
4904	64.9019
4888	64.3343
4872	64.6204
4856	64.4042
4840	64.7158
4824	64.4218
4808	64.8351
4792	64.6562
4776	64.8262
4760	64.8727
4744	64.8749
4728	64.6046
4712	65.1505
4696	65.1895
4680	65.0977
4664	64.665
4648	64.5747
4632	64.673
4616	64.7701
4600	64.8427
4584	64.7898
4568	64.4382
4552	64.4943
4536	63.9703
4520	64.6284
4504	64.5422
4488	64.5441
4472	64.3369
4456	64.1718
4440	64.3093
4424	64.1956
4408	63.6965
4392	63.5496
4376	72.9196
4360	65.6826
4344	64.2963
4328	64.6997
4312	64.4488
4296	64.3276
4280	64.675
4264	64.548
4248	64.3816
4232	64.597
4216	64.8131
4200	64.8882
4184	64.0302
4168	64.7416
4152	64.6712
4136	65.1353
4120	64.973
4104	64.9181
4088	64.6665
4072	65.2162
4056	64.9339
4040	65.074
4024	64.9192
4008	64.9468
3992	65.0586
3976	65.0362
3960	65.0573
3944	65.2086
3928	64.7541
3912	64.9087
3896	64.9796
3880	64.9161
3864	65.2755
3848	65.0733
3832	64.6651
3816	64.9021
3800	64.9649
3784	65.0514
3768	64.7926
3752	64.9933
3736	64.9887
3720	65.021
3704	65.0705
3688	65.0796
3672	64.9814
3656	65.1605
3640	65.0687
3624	64.9518
3608	64.9837
3592	65.0116
3576	65.311
3560	64.843
3544	64.8966
3528	65.0626
3512	64.9528
3496	64.9886
3480	65.1441
3464	65.1119
3448	65.1172
3432	65.1484
3416	65.2271
3400	65.2283
3384	65.0263
3368	64.9977
3352	64.8955
3336	64.9832
3320	65.0525
3304	64.884
3288	64.9575
3272	64.9633
3256	65.1097
3240	64.9708
3224	64.8328
3208	65.1231
3192	64.9649
3176	65.209
3160	64.9614
3144	64.8934
3128	64.9424
3112	64.8569
3096	65.0933
3080	65.0502
3064	64.9876
3048	65.1307
3032	64.9895
3016	65.1245
3000	64.8733
2984	64.9008
2968	64.9421
2952	64.8581
2936	64.7504
2920	64.6262
2904	64.8733
2888	64.952
2872	65.0237
2856	64.9105
2840	64.9759
2824	64.9685
2808	64.9953
2792	65.0242
2776	64.9842
2760	65.1693
2744	65.065
2728	65.143
2712	65.1365
2696	65.0604
2680	65.1093
2664	65.2184
2648	65.1273
2632	65.0967
2616	65.2279
2600	65.0409
2584	65.0172
2568	65.1368
2552	65.1923
2536	65.0563
2520	65.0541
2504	65.0933
2488	64.8944
2472	65.1005
2456	65.1145
2440	65.0258
2424	65.1863
2408	65.1264
2392	65.0073
2376	65.1083
2360	65.1182
2344	65.0284
2328	65.1393
2312	65.0416
2296	65.0156
2280	65.0064
2264	65.1147
2248	65.2106
2232	65.2111
2216	65.1542
2200	65.0298
2184	65.1929
2168	65.0045
2152	65.1718
2136	65.2528
2120	65.1005
2104	65.1947
2088	65.1301
2072	64.9806
2056	64.9258
2040	65.174
2024	65.0842
2008	65.1967
1992	65.1011
1976	65.0789
1960	64.9796
1944	65.2047
1928	65.111
1912	65.0464
1896	65.1973
1880	65.2208
1864	65.1014
1848	65.1213
1832	65.1443
1816	65.1067
1800	65.2535
1784	65.1674
1768	65.1327
1752	65.102
1736	64.9882
1720	64.8833
1704	65.113
1688	65.2009
1672	64.974
1656	64.9959
1640	64.8663
1624	64.9525
1608	64.915
1592	64.7983
1576	65.0085
1560	64.9209
1544	64.8678
1528	64.9276
1512	64.8661
1496	64.9599
1480	64.9534
1464	64.8768
1448	64.7362
1432	65.0456
1416	64.8668
1400	64.8762
1384	64.9921
1368	64.9536
1352	64.8848
1336	64.8192
1320	64.8442
1304	64.8662
1288	64.8491
1272	64.8302
1256	64.847
1240	64.7563
1224	64.8286
1208	64.914
1192	64.6307
1176	64.5897
1160	64.6864
1144	64.844
1128	64.6191
1112	64.6685
1096	64.0871
1080	64.9289
1064	64.4728
1048	64.578
1032	64.5689
1016	64.0641
1000	64.0732
984	 64.2584
968	 64.1591
952	 64.2942
936	 64.3808
920	 64.5269
904	 64.2635
888	 64.2327
872	 64.1617
856	 64.3847
840	 64.2715
824	 64.4358
808	 63.9874
792	 63.8981
776	 64.0275
760	 63.8292
744	 64.2278
728	 63.0289
712	 63.3349
696	 63.6758
680	 63.0793
664	 63.0579
648	 62.5848
632	 62.6579
616	 62.8792
600	 62.3315
584	 61.7282
568	 61.9358
552	 62.0923
536	 61.482
520	 60.9006
504	 61.1493
488	 59.8348
472	 59.5552
456	 60.4833
440	 58.5193
424	 62.3755
408	 55.5298
392	 84.0525
376	 81.2017
370	 59.0728

File: C-4040-8_t65.asc
PE IR       SPECTRUM    SPECTRUM    ASCII       PEDS        1.60
  -1
C-BD3E~1.ASC
17/03/27
19:46:50.00
17/03/27
19:47:16.00
tln
$C-4040-8_t0065$<tbV0>[-10.4,0.0,8.0,0.0,27,1,0]
27.028
64

2002,4.07
MIRTGS : RIGHTBACK : INTERNAL 2
MIR : ON : INTERNAL 2
OPTKBR

0.200000
8
8.000000
FILLER
RATIO
SPECTRUM
UNLOCKED 256

DOUBLE
64
COMBINED
1
0
0

0.002000
RATIO

1
0
TRUE
51149
0
LEFT NOT FITTED RIGHT NOT FITTED 0
NONE
NONE
15600
12
4.427000
51148
TRUE
1 0 8 72 0 0 0 0

15798

#HDR
-1
-1
#GR
µM
%T
2.38419e-05
0.0
2.000000
0.002000
12515
8
90.8445
37.8932
#DATA
2.000000	 64.7607
2.084000	 64.6697
2.168000	 64.638
2.252000	 65.1474
2.336000	 65.7192
2.420000	 64.8076
2.504000	 64.9572
2.588000	 65.0792
2.672000	 64.9915
2.756000	 64.7711
2.840000	 64.9316
2.924000	 65.3004
3.008000	 65.2342
3.092000	 65.1032
3.176000	 65.1642
3.260000	 65.1498
3.344000	 65.1185
3.428000	 64.7039
3.512000	 64.9737
3.596000	 64.9934
3.680000	 65.1247
3.764000	 65.1522
3.848000	 65.2287
3.932000	 65.1684
4.016000	 65.0995
4.100000	 65.1436
4.184000	 65.2217
4.268000	 65.1357
4.352000	 65.2708
4.436000	 65.3468
4.520000	 65.2567
4.604000	 65.1972
4.688000	 65.2041
4.772000	 65.1347
4.856000	 65.0986
4.940000	 65.2967
5.024000	 65.3119
5.108000	 65.1434
5.192000	 65.2075
5.276000	 65.2498
5.359999	 65.0499
5.444000	 65.3176
5.528000	 65.2745
5.612000	 65.1125
5.696000	 65.1081
5.780000	 65.0083
5.864000	 65.0505
5.948000	 65.2576
6.032000	 65.0131
6.116000	 65.0125
6.200000	 65.0613
6.284000	 64.9396
6.368000	 65.0875
6.452000	 64.8738
6.536000	 64.9065
6.620000	 65.111
6.704000	 65.0724
6.788000	 64.9434
6.872000	 64.71
6.956000	 64.8946
7.040000	 65.1272
7.124000	 65.0689
7.208000	 65.1056
7.292000	 65.019
7.376000	 65.1572
7.460000	 64.9499
7.544000	 65.0496
7.628000	 64.9863
7.712000	 64.9983
7.796000	 65.0226
7.880000	 64.9698
7.964000	 64.9667
8.048000	 64.9243
8.132000	 64.7556
8.216000	 64.8664
8.300000	 65.0924
8.384000	 64.8098
8.468000	 64.7436
8.552000	 64.8605
8.635999	 65.0198
8.719999	 64.9415
8.804000	 64.6101
8.888000	 64.7816
8.972000	 64.7838
9.056000	 64.3514
9.140000	 64.5525
9.224000	 65.2266
9.308000	 64.7533
9.391999	 64.7621
9.475999	 64.8335
9.560000	 64.8012
9.644000	 64.861
9.728000	 64.7045
9.812000	 64.2607
9.896000	 64.9026
9.980000	 64.8561
10.064	64.9775
10.148	64.5407
10.232	64.4208
10.316	64.0933
10.4	64.621
10.484	65.1391
10.568	64.8147
10.652	64.5627
10.736	64.8801
10.82	64.837
10.904	64.8998
10.988	64.6377
11.072	64.6451
11.156	64.4511
11.24	64.3669
11.324	64.6448
11.408	64.5745
11.492	64.445
11.576	64.387
11.66	64.4697
11.744	64.4816
11.828	64.3056
11.912	64.2124
11.996	64.2675
12.08	64.1349
12.164	64.4434
12.248	64.5584
12.332	64.4526
12.416	64.3562
12.5	64.4295
12.584	64.2331
12.668	63.7345
12.752	63.8039
12.836	64.2985
12.92	64.4732
13.004	64.3617
13.088	64.3007
13.172	64.3501
13.256	64.0892
13.34	64.2427
13.424	64.1597
13.508	63.7684
13.592	64.0362
13.676	63.931
13.76	63.5467
13.844	63.3046
13.928	63.2571
14.012	63.469
14.096	63.571
14.18	63.574
14.264	63.7231
14.348	63.9669
14.432	64.0588
14.516	63.7763
14.6	63.2667
14.684	62.9876
14.768	63.1982
14.852	63.5518
14.936	63.4963
15.02	63.2282
15.104	63.2452
15.188	63.4713
15.272	63.5162
15.356	63.2279
15.44	62.8572
15.524	62.7959
15.608	63.0506
15.692	63.149
15.776	62.9731
15.86	62.9134
15.944	63.0528
16.028	63.1689
16.112	63.2281
16.196	63.2885
16.28	63.3059
16.364	63.2492
16.448	63.222
16.532	63.2474
16.616	63.1559
16.7	62.9015
16.784	62.6947
16.868	62.6557
16.952	62.6667
17.036	62.6042
17.12	62.4647
17.204	62.2809
17.288	62.0914
17.372	61.9857
17.456	62.0514
17.54	62.252
17.624	62.44
17.708	62.5245
17.792	62.5654
17.876	62.6572
17.96	62.7718
18.044	62.805
18.128	62.7376
18.212	62.66
18.296	62.607
18.38	62.4814
18.464	62.2147
18.548	61.9138
18.632	61.7417
18.716	61.722
18.8	61.7631
18.884	61.8301
18.968	61.946
19.052	62.0351
19.136	61.9295
19.22	61.5789
19.304	61.1656
19.388	60.948
19.472	61.0296
19.556	61.296
19.64	61.5522
19.724	61.6867
19.808	61.6994
19.892	61.6279
19.976	61.502
20.06	61.3648
20.144	61.2668
20.228	61.2206
20.312	61.1772
20.396	61.0689
20.48	60.8823
20.564	60.6805
20.648	60.5432
20.732	60.4997
20.816	60.505
20.9	60.4708
20.984	60.3312
21.068	60.097
21.152	59.8686
21.236	59.7863
21.32	59.9338
21.404	60.2508
21.488	60.5628
21.572	60.6965
21.656	60.6166
21.74	60.4535
21.824	60.3864
21.908	60.4826
21.992	60.6489
22.076	60.7228
22.16	60.6224
22.244	60.4323
22.328	60.3276
22.412	60.4349
22.496	60.6993
22.58	60.8944
22.664	60.7634
22.748	60.1646
22.832	59.1567
22.916	58.0073
23	57.0895
23.084	56.7134
23.168	57.0062
23.252	57.8443
23.336	58.9205
23.42	59.9105
23.504	60.5972
23.588	60.913
23.672	60.8747
23.756	60.5132
23.84	59.8638
23.924	59.0414
24.008	58.2708
24.092	57.8859
24.176	58.2739
24.26	59.6651
24.344	62.0019
24.428	64.9065
24.512	67.7458
24.596	69.8435
24.68	70.7618
24.764	70.5328
24.848	69.574
24.932	68.4701
25.016	67.658
25.1	67.2782
25.184	67.1787
25.268	67.0753
25.352	66.7772
25.436	66.3236
25.52	66.0521
25.604	66.4699
25.688	68.0555
25.772	71.0657
25.856	75.4025
25.94	80.5994
26.024	85.7308
26.108	89.5581
26.192	90.8208
26.276	88.5679
26.36	82.42
26.444	72.9716
26.528	61.7662
26.612	50.8801
26.696	42.4812
26.78	38.26
26.864	38.7858
26.948	43.3708
27.028	49.8614

File: C-4040-8_t65_cm-1.asc
PE IR       SPECTRUM    SPECTRUM    ASCII       PEDS        1.60
  -1
C-9CEE~1.ASC
17/03/27
19:46:50.00
17/03/27
19:46:50.00
tln
$C-4040-8_t0065$<tbV0>[-10.4,0.0,8.0,0.0,27,1,0]
370
64

2002,4.07
MIRTGS : RIGHTBACK : INTERNAL 2
MIR : ON : INTERNAL 2
OPTKBR

0.200000
8
8.000000
FILLER
RATIO
SPECTRUM
UNLOCKED 256

DOUBLE
64
COMBINED
1
0
0

1.000000
RATIO

1
0
TRUE
51149
0
LEFT NOT FITTED RIGHT NOT FITTED 0
NONE
NONE
15600
12
4.427000
51148
TRUE
1 0 8 72 0 0 0 0

15798

#HDR
-1
-1
#GR
CM-1
%T
2.38419e-05
0.0
5000
-1.000000
4631
8
90.842
37.8965
#DATA
5000	64.7607
4984	64.9109
4968	65.4429
4952	64.4795
4936	65.0553
4920	64.8143
4904	65.3592
4888	64.0174
4872	65.5042
4856	64.4498
4840	64.6983
4824	64.7908
4808	64.7945
4792	64.5477
4776	64.793
4760	64.457
4744	64.6663
4728	64.3457
4712	64.8023
4696	64.5076
4680	64.5331
4664	64.7657
4648	64.8282
4632	64.6993
4616	64.6054
4600	64.943
4584	64.9856
4568	64.7323
4552	64.426
4536	64.9308
4520	64.9861
4504	65.1839
4488	65.172
4472	65.0342
4456	65.2693
4440	65.1509
4424	65.2949
4408	64.8518
4392	63.8361
4376	63.2003
4360	60.8074
4344	65.4552
4328	65.3195
4312	65.1845
4296	65.0019
4280	65.7877
4264	64.991
4248	64.8825
4232	65.0212
4216	65.1043
4200	64.7932
4184	64.7398
4168	65.1709
4152	64.9333
4136	65.0908
4120	64.6412
4104	64.7718
4088	65.148
4072	65.3236
4056	64.972
4040	64.7915
4024	64.8241
4008	65.1548
3992	64.9207
3976	64.7506
3960	64.9389
3944	65.1001
3928	64.8011
3912	64.9197
3896	65.1305
3880	64.9664
3864	65.0797
3848	64.9934
3832	64.9278
3816	65.1808
3800	65.0767
3784	65.3461
3768	65.1898
3752	65.0028
3736	64.9982
3720	65.1414
3704	64.9053
3688	65.1729
3672	65.2267
3656	65.1379
3640	64.8704
3624	64.8439
3608	64.927
3592	64.8546
3576	65.1719
3560	64.8842
3544	64.8993
3528	64.9146
3512	65.0443
3496	64.8885
3480	65.2338
3464	65.1686
3448	65.258
3432	65.142
3416	65.2306
3400	65.1989
3384	65.3341
3368	65.3016
3352	65.0759
3336	65.0348
3320	65.1531
3304	65.1748
3288	65.0084
3272	65.145
3256	65.264
3240	65.0831
3224	65.0654
3208	65.138
3192	64.9955
3176	65.2928
3160	65.2204
3144	65.0499
3128	65.1834
3112	64.988
3096	65.3281
3080	65.0167
3064	65.2268
3048	65.1882
3032	65.2105
3016	65.2
3000	64.8606
2984	65.061
2968	65.3192
2952	65.0309
2936	65.0846
2920	64.7556
2904	65.014
2888	65.1424
2872	65.1277
2856	65.0288
2840	65.1492
2824	65.1641
2808	65.2282
2792	65.0572
2776	65.1262
2760	64.9688
2744	65.1072
2728	65.148
2712	65.1057
2696	64.982
2680	65.2072
2664	65.2047
2648	65.0883
2632	65.1639
2616	65.2529
2600	65.2242
2584	65.1354
2568	65.1338
2552	65.2574
2536	65.1166
2520	65.2823
2504	64.937
2488	65.12
2472	65.1783
2456	65.2026
2440	65.1666
2424	65.3318
2408	64.9076
2392	65.1929
2376	65.0944
2360	65.1824
2344	65.1311
2328	65.3443
2312	65.1702
2296	65.2518
2280	65.1479
2264	65.153
2248	65.3551
2232	65.3164
2216	65.281
2200	65.1768
2184	65.0693
2168	65.2171
2152	65.32
2136	65.2291
2120	65.282
2104	65.1216
2088	65.2603
2072	65.1649
2056	65.0465
2040	65.1121
2024	65.2882
2008	65.1437
1992	65.3022
1976	65.2926
1960	65.1405
1944	65.1795
1928	65.2209
1912	65.2441
1896	65.2416
1880	65.2377
1864	65.0671
1848	65.2985
1832	65.2766
1816	65.309
1800	65.1176
1784	65.1059
1768	65.2091
1752	65.1359
1736	64.885
1720	65.1472
1704	65.1221
1688	65.138
1672	65.1873
1656	65.0012
1640	65.026
1624	65.0632
1608	64.9292
1592	64.9473
1576	65.031
1560	64.8704
1544	64.8647
1528	64.8876
1512	65.103
1496	65.1561
1480	65.0859
1464	65.0496
1448	64.961
1432	64.9588
1416	65.0491
1400	65.1038
1384	65.1193
1368	65.0122
1352	65.14
1336	64.9575
1320	64.9042
1304	65.0938
1288	64.9933
1272	64.9262
1256	64.968
1240	64.8872
1224	64.8445
1208	65.026
1192	64.7925
1176	64.8601
1160	65.0247
1144	64.8752
1128	64.8389
1112	64.7356
1096	64.5617
1080	65.0292
1064	64.7856
1048	64.8295
1032	64.9024
1016	64.2825
1000	64.9599
984	 64.5084
968	 64.1022
952	 65.1098
936	 64.6535
920	 64.8786
904	 64.6429
888	 64.4305
872	 64.4674
856	 64.4635
840	 64.1938
824	 64.3343
808	 64.3778
792	 63.9673
776	 64.4542
760	 64.3637
744	 64.0518
728	 63.6405
712	 63.5362
696	 64.013
680	 62.9967
664	 63.1905
648	 62.8838
632	 62.9063
616	 63.3067
600	 63.011
584	 62.4581
568	 62.407
552	 62.7503
536	 61.7234
520	 61.5241
504	 61.6794
488	 60.853
472	 59.8096
456	 60.5256
440	 60.3569
424	 60.9077
408	 67.6795
392	 66.0553
376	 52.836
370	 49.8614

File: C-4040-8_t66.asc
PE IR       SPECTRUM    SPECTRUM    ASCII       PEDS        1.60
  -1
C-BD32~1.ASC
17/03/27
19:51:26.00
17/03/27
19:51:53.00
tln
$C-4040-8_t0066$<tbV0>[-13.0,0.0,8.0,0.0,27,1,0]
27.028
64

2002,4.07
MIRTGS : RIGHTBACK : INTERNAL 2
MIR : ON : INTERNAL 2
OPTKBR

0.200000
8
8.000000
FILLER
RATIO
SPECTRUM
UNLOCKED 256

DOUBLE
64
COMBINED
1
0
0

0.002000
RATIO

1
0
TRUE
51149
0
LEFT NOT FITTED RIGHT NOT FITTED 0
NONE
NONE
15600
12
4.427000
51148
TRUE
1 0 8 72 0 0 0 0

15798

#HDR
-1
-1
#GR
µM
%T
2.38419e-05
0.0
2.000000
0.002000
12515
8
91.9088
43.3743
#DATA
2.000000	 64.4802
2.084000	 64.8986
2.168000	 64.4464
2.252000	 66.6022
2.336000	 65.9844
2.420000	 64.8959
2.504000	 64.8268
2.588000	 65.1761
2.672000	 65.2029
2.756000	 64.7606
2.840000	 64.9653
2.924000	 65.1407
3.008000	 65.2288
3.092000	 64.8631
3.176000	 65.1097
3.260000	 65.2158
3.344000	 65.0784
3.428000	 64.8343
3.512000	 65.0603
3.596000	 64.9934
3.680000	 65.1315
3.764000	 65.1804
3.848000	 65.209
3.932000	 65.19
4.016000	 65.141
4.100000	 65.389
4.184000	 65.3322
4.268000	 65.2524
4.352000	 65.2377
4.436000	 65.3004
4.520000	 65.1866
4.604000	 65.2664
4.688000	 65.3316
4.772000	 65.2198
4.856000	 65.491
4.940000	 65.2381
5.024000	 65.1524
5.108000	 65.2577
5.192000	 65.2507
5.276000	 65.3135
5.359999	 65.1423
5.444000	 65.2313
5.528000	 65.1909
5.612000	 65.1608
5.696000	 65.171
5.780000	 64.9825
5.864000	 65.2807
5.948000	 65.2372
6.032000	 65.0494
6.116000	 65.012
6.200000	 65.1555
6.284000	 64.9928
6.368000	 65.0791
6.452000	 64.9466
6.536000	 65.0327
6.620000	 65.0107
6.704000	 65.1545
6.788000	 64.966
6.872000	 64.723
6.956000	 64.8868
7.040000	 65.1144
7.124000	 65.0634
7.208000	 64.9017
7.292000	 64.8999
7.376000	 64.9557
7.460000	 64.9632
7.544000	 65.1598
7.628000	 64.9161
7.712000	 65.0834
7.796000	 65.0964
7.880000	 64.8652
7.964000	 65.0681
8.048000	 65.0311
8.132000	 64.9351
8.216000	 64.8106
8.300000	 65.003
8.384000	 64.9297
8.468000	 64.9107
8.552000	 64.8952
8.635999	 65.0586
8.719999	 65.0025
8.804000	 64.7882
8.888000	 64.906
8.972000	 64.907
9.056000	 64.7178
9.140000	 64.387
9.224000	 65.0182
9.308000	 64.9911
9.391999	 65.0213
9.475999	 64.893
9.560000	 64.6176
9.644000	 64.6975
9.728000	 64.8669
9.812000	 64.5537
9.896000	 65.1393
9.980000	 64.3735
10.064	64.5259
10.148	64.7723
10.232	64.895
10.316	64.5233
10.4	64.5701
10.484	64.7935
10.568	64.7918
10.652	64.4461
10.736	64.6634
10.82	64.7979
10.904	64.6745
10.988	64.7123
11.072	64.6151
11.156	64.439
11.24	64.6319
11.324	64.8945
11.408	64.6367
11.492	64.263
11.576	64.2891
11.66	64.4236
11.744	64.4641
11.828	64.5968
11.912	64.2711
11.996	64.2086
12.08	64.5008
12.164	64.6087
12.248	64.2704
12.332	64.4691
12.416	64.6799
12.5	64.5057
12.584	64.1793
12.668	63.9677
12.752	63.9536
12.836	63.9191
12.92	64.133
13.004	64.2622
13.088	64.1562
13.172	63.8459
13.256	63.6534
13.34	64.1434
13.424	64.5085
13.508	64.3038
13.592	64.0161
13.676	63.8556
13.76	63.7514
13.844	63.7629
13.928	64.0762
14.012	64.1183
14.096	63.807
14.18	63.8139
14.264	64.009
14.348	64.1453
14.432	64.2358
14.516	64.1635
14.6	63.785
14.684	63.3053
14.768	63.1183
14.852	63.2579
14.936	63.4288
15.02	63.4957
15.104	63.492
15.188	63.5087
15.272	63.5637
15.356	63.4659
15.44	63.1399
15.524	62.8158
15.608	62.7688
15.692	63.0191
15.776	63.3156
15.86	63.3569
15.944	63.1626
16.028	63.077
16.112	63.2439
16.196	63.4814
16.28	63.6012
16.364	63.5407
16.448	63.4597
16.532	63.5626
16.616	63.6698
16.7	63.459
16.784	63.0605
16.868	62.7952
16.952	62.6374
17.036	62.4758
17.12	62.4772
17.204	62.7563
17.288	63.0564
17.372	63.0856
17.456	62.8922
17.54	62.7207
17.624	62.722
17.708	62.8525
17.792	62.9747
17.876	63.0099
17.96	62.9834
18.044	62.9428
18.128	62.9233
18.212	62.9703
18.296	63.0551
18.38	63.0103
18.464	62.7209
18.548	62.3388
18.632	62.1239
18.716	62.1384
18.8	62.2516
18.884	62.3914
18.968	62.5747
19.052	62.7052
19.136	62.5917
19.22	62.2048
19.304	61.7638
19.388	61.5263
19.472	61.5723
19.556	61.7955
19.64	62.0434
19.724	62.2395
19.808	62.3831
19.892	62.4842
19.976	62.5196
20.06	62.4487
20.144	62.2728
20.228	62.0713
20.312	61.955
20.396	61.9734
20.48	62.0664
20.564	62.1108
20.648	62.0101
20.732	61.7603
20.816	61.4466
20.9	61.1722
20.984	61.0008
21.068	60.9301
21.152	60.9075
21.236	60.876
21.32	60.8105
21.404	60.7242
21.488	60.6564
21.572	60.6385
21.656	60.6787
21.74	60.7599
21.824	60.8307
21.908	60.8143
21.992	60.6459
22.076	60.3119
22.16	59.8921
22.244	59.545
22.328	59.4316
22.412	59.6402
22.496	60.1078
22.58	60.6295
22.664	60.948
22.748	60.8751
22.832	60.4072
22.916	59.7276
23	59.1316
23.084	58.8621
23.168	59.0525
23.252	59.6932
23.336	60.6528
23.42	61.7084
23.504	62.6617
23.588	63.3244
23.672	63.5311
23.756	63.2199
23.84	62.4543
23.924	61.3749
24.008	60.197
24.092	59.2235
24.176	58.7647
24.26	58.9609
24.344	59.6925
24.428	60.6068
24.512	61.1932
24.596	61.0631
24.68	60.0435
24.764	58.2656
24.848	56.1401
24.932	54.7241
25.016	55.4281
25.1	59.4573
25.184	66.823
25.268	75.8753
25.352	83.8197
25.436	87.8904
25.52	86.8123
25.604	81.2495
25.688	73.2074
25.772	65.0625
25.856	58.5944
25.94	54.972
26.024	54.853
26.108	58.4593
26.192	65.2844
26.276	74.0428
26.36	82.65
26.444	89.0347
26.528	91.8245
26.612	90.8182
26.696	86.8433
26.78	81.4084
26.864	75.9848
26.948	71.5794
27.028	68.8189