Folder: Masteroppgave/Bakgrunnsmateriale/MATLAB/FTIR/ftir_data/subBb/Mapping_121 (part 2)

File: C-4040-8_e124.asc
PE IR       SPECTRUM    SPECTRUM    ASCII       PEDS        1.60
  -1
C-7CC3~1.ASC
17/03/27
18:08:11.00
17/03/27
18:08:37.00
tln
$C-4040-8_e0124$<ebV0>[-23.3,12.1,10.0,0.0,27,1,0]
27.028
64

2002,4.07
MIRTGS : RIGHTBACK : INTERNAL 2
MIR : ON : INTERNAL 2
OPTKBR

0.200000
8
8.000000
FILLER
SINGLE
SPECTRUM
UNLOCKED 256

DOUBLE

COMBINED
1
0
0

0.002000
BACKG

1
0
TRUE
51149
0
LEFT NOT FITTED RIGHT NOT FITTED 0
NONE
NONE
15600
12
4.427000
51148
TRUE
1 0 8 72 0 0 0 0

15798

#HDR
-1
-1
#GR
µM
EGY
2.38419e-05
0.0
2.000000
0.002000
12515
8
2.460766
0.007486
#DATA
2.000000	 0.766897
2.084000	 0.864567
2.168000	 0.930978
2.252000	 1.004886
2.336000	 1.129352
2.420000	 1.231769
2.504000	 1.391045
2.588000	 1.446079
2.672000	 1.549245
2.756000	 1.575586
2.840000	 1.627344
2.924000	 1.584233
3.008000	 1.684304
3.092000	 1.781765
3.176000	 1.813105
3.260000	 1.931514
3.344000	 2.029412
3.428000	 1.837425
3.512000	 2.011016
3.596000	 2.218056
3.680000	 2.256423
3.764000	 2.217467
3.848000	 2.225122
3.932000	 2.293842
4.016000	 2.330107
4.100000	 2.285333
4.184000	 2.248569
4.268000	 2.264587
4.352000	 2.340358
4.436000	 2.377729
4.520000	 2.369430
4.604000	 2.340231
4.688000	 2.333390
4.772000	 2.338563
4.856000	 2.388337
4.940000	 2.443379
5.024000	 2.457036
5.108000	 2.434581
5.192000	 2.403538
5.276000	 2.371127
5.359999	 2.383208
5.444000	 2.406676
5.528000	 2.431140
5.612000	 2.431773
5.696000	 2.400765
5.780000	 2.325639
5.864000	 2.281447
5.948000	 2.238256
6.032000	 2.192264
6.116000	 2.142069
6.200000	 2.008368
6.284000	 2.019651
6.368000	 1.978281
6.452000	 1.957819
6.536000	 2.100854
6.620000	 2.086193
6.704000	 1.690344
6.788000	 1.976449
6.872000	 1.800684
6.956000	 1.864144
7.040000	 1.856463
7.124000	 1.726063
7.208000	 1.786204
7.292000	 1.814365
7.376000	 1.815639
7.460000	 1.816565
7.544000	 1.847789
7.628000	 1.854103
7.712000	 1.854359
7.796000	 1.849511
7.880000	 1.774199
7.964000	 1.759764
8.048000	 1.831807
8.132000	 1.827731
8.216000	 1.785692
8.300000	 1.743387
8.384000	 1.740211
8.468000	 1.713455
8.552000	 1.673316
8.635999	 1.618709
8.719999	 1.596860
8.804000	 1.576852
8.888000	 1.524792
8.972000	 1.468074
9.056000	 1.436480
9.140000	 1.429399
9.224000	 1.423607
9.308000	 1.429747
9.391999	 1.436526
9.475999	 1.358069
9.560000	 1.328218
9.644000	 1.385803
9.728000	 1.371319
9.812000	 1.364130
9.896000	 1.379751
9.980000	 1.396845
10.064	1.394936
10.148	1.384221
10.232	1.368681
10.316	1.348802
10.4	1.320090
10.484	1.292131
10.568	1.271592
10.652	1.258653
10.736	1.240736
10.82	1.223652
10.904	1.204928
10.988	1.178786
11.072	1.159760
11.156	1.151890
11.24	1.130846
11.324	1.077450
11.408	1.033343
11.492	1.048070
11.576	1.081934
11.66	1.092060
11.744	1.085587
11.828	1.075526
11.912	1.057054
11.996	0.992351
12.08	0.881554
12.164	0.850571
12.248	0.914328
12.332	0.944910
12.416	0.945595
12.5	0.944876
12.584	0.953047
12.668	0.969551
12.752	0.979629
12.836	0.979792
12.92	0.974886
13.004	0.969523
13.088	0.965475
13.172	0.962759
13.256	0.959541
13.34	0.947784
13.424	0.939278
13.508	0.933681
13.592	0.923112
13.676	0.911824
13.76	0.900594
13.844	0.888768
13.928	0.874297
14.012	0.859614
14.096	0.847452
14.18	0.832789
14.264	0.814413
14.348	0.793010
14.432	0.764846
14.516	0.738735
14.6	0.731426
14.684	0.735891
14.768	0.734966
14.852	0.727892
14.936	0.720279
15.02	0.712953
15.104	0.703837
15.188	0.692509
15.272	0.681516
15.356	0.672894
15.44	0.665879
15.524	0.658293
15.608	0.649043
15.692	0.639221
15.776	0.629713
15.86	0.620047
15.944	0.610382
16.028	0.601102
16.112	0.591541
16.196	0.580278
16.28	0.566292
16.364	0.550203
16.448	0.535200
16.532	0.525760
16.616	0.523411
16.7	0.524681
16.784	0.524737
16.868	0.521854
16.952	0.517809
17.036	0.514307
17.12	0.511105
17.204	0.507904
17.288	0.505147
17.372	0.503045
17.456	0.500842
17.54	0.497636
17.624	0.493276
17.708	0.488403
17.792	0.483600
17.876	0.479014
17.96	0.474368
18.044	0.469730
18.128	0.465301
18.212	0.461058
18.296	0.456910
18.38	0.453053
18.464	0.449276
18.548	0.444886
18.632	0.439587
18.716	0.433724
18.8	0.428022
18.884	0.422372
18.968	0.416570
19.052	0.411048
19.136	0.406316
19.22	0.402353
19.304	0.398144
19.388	0.392937
19.472	0.386807
19.556	0.380342
19.64	0.374132
19.724	0.368132
19.808	0.361990
19.892	0.355443
19.976	0.348601
20.06	0.341692
20.144	0.334832
20.228	0.327922
20.312	0.320807
20.396	0.313507
20.48	0.306246
20.564	0.299318
20.648	0.292826
20.732	0.286643
20.816	0.280506
20.9	0.274331
20.984	0.268190
21.068	0.262112
21.152	0.256164
21.236	0.250201
21.32	0.244070
21.404	0.237827
21.488	0.231555
21.572	0.225346
21.656	0.219118
21.74	0.212575
21.824	0.205554
21.908	0.198208
21.992	0.191254
22.076	0.185310
22.16	0.180636
22.244	0.176857
22.328	0.173276
22.412	0.169267
22.496	0.164673
22.58	0.159599
22.664	0.154510
22.748	0.149508
22.832	0.144665
22.916	0.139886
23	0.135034
23.084	0.130056
23.168	0.124911
23.252	0.119619
23.336	0.114192
23.42	0.108689
23.504	0.103084
23.588	0.097550
23.672	0.092231
23.756	0.087332
23.84	0.082994
23.924	0.079203
24.008	0.075895
24.092	0.072718
24.176	0.069433
24.26	0.065752
24.344	0.061778
24.428	0.057637
24.512	0.053615
24.596	0.050009
24.68	0.046979
24.764	0.044416
24.848	0.042042
24.932	0.039565
25.016	0.036716
25.1	0.033519
25.184	0.030118
25.268	0.026869
25.352	0.024071
25.436	0.021977
25.52	0.020621
25.604	0.019897
25.688	0.019503
25.772	0.019150
25.856	0.018639
25.94	0.017782
26.024	0.016574
26.108	0.015098
26.192	0.013513
26.276	0.011935
26.36	0.010588
26.444	0.009593
26.528	0.008948
26.612	0.008630
26.696	0.008469
26.78	0.008336
26.864	0.008154
26.948	0.007869
27.028	0.007486

File: C-4040-8_e124_cm-1.asc
PE IR       SPECTRUM    SPECTRUM    ASCII       PEDS        1.60
  -1
C-39CF~1.ASC
17/03/27
18:08:11.00
17/03/27
18:08:11.00
tln
$C-4040-8_e0124$<ebV0>[-23.3,12.1,10.0,0.0,27,1,0]
370
64

2002,4.07
MIRTGS : RIGHTBACK : INTERNAL 2
MIR : ON : INTERNAL 2
OPTKBR

0.200000
8
8.000000
FILLER
SINGLE
SPECTRUM
UNLOCKED 256

DOUBLE

COMBINED
1
0
0

1.000000
BACKG

1
0
TRUE
51149
0
LEFT NOT FITTED RIGHT NOT FITTED 0
NONE
NONE
15600
12
4.427000
51148
TRUE
1 0 8 72 0 0 0 0

15798

#HDR
-1
-1
#GR
CM-1
EGY
2.38419e-05
0.0
5000
-1.000000
4631
8
2.460765
0.007486
#DATA
5000	0.766897
4984	0.771284
4968	0.780320
4952	0.787615
4936	0.790977
4920	0.797915
4904	0.801610
4888	0.813961
4872	0.822973
4856	0.831508
4840	0.839328
4824	0.849866
4808	0.859284
4792	0.868582
4776	0.878620
4760	0.889778
4744	0.897908
4728	0.901556
4712	0.900912
4696	0.905036
4680	0.906944
4664	0.912690
4648	0.914216
4632	0.919628
4616	0.929021
4600	0.935316
4584	0.946187
4568	0.960135
4552	0.974845
4536	0.985002
4520	0.989770
4504	0.994706
4488	1.001596
4472	1.002669
4456	1.004099
4440	1.004838
4424	1.001715
4408	1.002383
4392	1.014280
4376	1.014018
4360	1.144313
4344	1.067566
4328	1.082515
4312	1.100826
4296	1.118588
4280	1.129579
4264	1.147770
4248	1.166963
4232	1.175594
4216	1.181244
4200	1.192498
4184	1.206254
4168	1.208424
4152	1.215434
4136	1.226687
4120	1.241898
4104	1.257848
4088	1.276159
4072	1.296567
4056	1.322698
4040	1.342844
4024	1.363086
4008	1.379108
3992	1.392340
3976	1.403284
3960	1.410770
3944	1.413917
3928	1.421403
3912	1.425075
3896	1.427817
3880	1.438999
3864	1.446056
3848	1.459193
3832	1.484036
3816	1.493716
3800	1.512241
3784	1.533913
3768	1.549077
3752	1.546072
3736	1.558065
3720	1.570582
3704	1.574659
3688	1.566195
3672	1.562881
3656	1.569986
3640	1.577830
3624	1.579451
3608	1.586294
3592	1.596784
3576	1.602625
3560	1.615357
3544	1.622724
3528	1.623582
3512	1.628708
3496	1.624155
3480	1.611781
3464	1.603865
3448	1.594209
3432	1.582860
3416	1.586818
3400	1.594972
3384	1.605987
3368	1.621723
3352	1.646637
3336	1.667475
3320	1.690459
3304	1.717853
3288	1.740074
3272	1.755833
3256	1.766037
3240	1.783299
3224	1.787066
3208	1.790428
3192	1.795125
3176	1.793408
3160	1.804876
3144	1.820755
3128	1.835465
3112	1.858782
3096	1.883172
3080	1.916790
3064	1.935839
3048	1.962661
3032	1.978230
3016	1.963734
3000	2.025651
2984	2.025198
2968	1.956892
2952	1.917099
2936	1.813864
2920	1.802349
2904	1.943969
2888	1.994919
2872	1.982593
2856	1.928758
2840	2.069115
2824	2.131247
2808	2.167463
2792	2.196335
2776	2.225327
2760	2.244544
2744	2.253103
2728	2.256631
2712	2.253317
2696	2.245020
2680	2.235531
2664	2.222466
2648	2.215981
2632	2.216386
2616	2.218198
2600	2.224779
2584	2.239322
2568	2.264833
2552	2.281332
2536	2.304387
2520	2.318263
2504	2.325844
2488	2.328872
2472	2.319478
2456	2.304029
2440	2.286124
2424	2.263450
2408	2.258205
2392	2.248430
2376	2.242326
2360	2.236294
2344	2.264237
2328	2.284431
2312	2.321004
2296	2.343297
2280	2.365803
2264	2.376890
2248	2.377104
2232	2.377915
2216	2.371716
2200	2.362370
2184	2.347373
2168	2.338385
2152	2.332735
2136	2.333593
2120	2.336859
2104	2.339315
2088	2.339792
2072	2.361392
2056	2.394008
2040	2.425956
2024	2.443766
2008	2.455949
1992	2.458548
1976	2.445673
1960	2.437019
1944	2.419042
1928	2.405261
1912	2.387189
1896	2.371740
1880	2.375340
1864	2.385115
1848	2.395820
1832	2.406620
1816	2.426242
1800	2.432823
1784	2.432680
1768	2.414011
1752	2.387714
1736	2.329874
1720	2.311921
1704	2.274012
1688	2.252531
1672	2.227044
1656	2.181816
1640	2.156472
1624	2.106070
1608	1.975131
1592	2.019286
1576	1.982307
1560	1.933908
1544	1.958918
1528	2.110266
1512	2.093529
1496	1.701569
1480	1.959776
1464	1.936769
1448	1.787567
1432	1.871204
1416	1.843309
1400	1.730895
1384	1.783871
1368	1.816320
1352	1.814436
1336	1.827669
1320	1.852989
1304	1.854419
1288	1.853656
1272	1.805210
1256	1.755762
1240	1.833295
1224	1.813673
1208	1.746916
1192	1.738977
1176	1.698493
1160	1.626205
1144	1.592135
1128	1.539158
1112	1.457595
1096	1.427531
1080	1.423501
1064	1.435208
1048	1.307916
1032	1.379823
1016	1.369166
1000	1.396751
984	 1.381826
968	 1.344585
952	 1.286220
936	 1.252484
920	 1.213717
904	 1.161193
888	 1.120233
872	 1.038718
856	 1.091432
840	 1.059865
824	 0.844812
808	 0.946331
792	 0.961160
776	 0.977158
760	 0.962996
744	 0.938391
728	 0.903797
712	 0.854706
696	 0.786995
680	 0.736498
664	 0.708913
648	 0.666522
632	 0.624346
616	 0.574350
600	 0.524115
584	 0.510978
568	 0.494313
552	 0.465917
536	 0.437879
520	 0.401854
504	 0.359439
488	 0.305247
472	 0.253725
456	 0.196337
440	 0.150728
424	 0.097751
408	 0.053715
392	 0.020742
376	 0.008678
370	 0.007486

File: C-4040-8_e125.asc
PE IR       SPECTRUM    SPECTRUM    ASCII       PEDS        1.60
  -1
C-70D3~1.ASC
17/03/27
19:57:10.00
17/03/27
19:57:37.00
tln
$C-4040-8_e0125$<ebV0>[-23.3,12.1,10.0,0.0,27,1,0]
27.028
64

2002,4.07
MIRTGS : RIGHTBACK : INTERNAL 2
MIR : ON : INTERNAL 2
OPTKBR

0.200000
8
8.000000
FILLER
SINGLE
SPECTRUM
UNLOCKED 256

DOUBLE

COMBINED
1
0
0

0.002000
BACKG

1
0
TRUE
51149
0
LEFT NOT FITTED RIGHT NOT FITTED 0
NONE
NONE
15600
12
4.427000
51148
TRUE
1 0 8 72 0 0 0 0

15798

#HDR
-1
-1
#GR
µM
EGY
2.38419e-05
0.0
2.000000
0.002000
12515
8
2.460194
0.008773
#DATA
2.000000	 0.764894
2.084000	 0.864051
2.168000	 0.926296
2.252000	 1.012540
2.336000	 1.140642
2.420000	 1.229226
2.504000	 1.386578
2.588000	 1.443763
2.672000	 1.547845
2.756000	 1.572173
2.840000	 1.623305
2.924000	 1.584388
3.008000	 1.686627
3.092000	 1.781092
3.176000	 1.810770
3.260000	 1.930234
3.344000	 2.030859
3.428000	 1.839696
3.512000	 2.010360
3.596000	 2.213159
3.680000	 2.248631
3.764000	 2.217393
3.848000	 2.226605
3.932000	 2.295841
4.016000	 2.326608
4.100000	 2.283584
4.184000	 2.247536
4.268000	 2.263372
4.352000	 2.341065
4.436000	 2.379554
4.520000	 2.368153
4.604000	 2.338440
4.688000	 2.333689
4.772000	 2.337296
4.856000	 2.387604
4.940000	 2.441221
5.024000	 2.456251
5.108000	 2.429044
5.192000	 2.400525
5.276000	 2.371438
5.359999	 2.381831
5.444000	 2.405222
5.528000	 2.428248
5.612000	 2.428346
5.696000	 2.395261
5.780000	 2.323760
5.864000	 2.285711
5.948000	 2.237941
6.032000	 2.190835
6.116000	 2.141456
6.200000	 2.009704
6.284000	 2.018432
6.368000	 1.981995
6.452000	 1.960616
6.536000	 2.099399
6.620000	 2.085926
6.704000	 1.691340
6.788000	 1.973248
6.872000	 1.792347
6.956000	 1.861181
7.040000	 1.856047
7.124000	 1.727069
7.208000	 1.786337
7.292000	 1.813387
7.376000	 1.816105
7.460000	 1.814494
7.544000	 1.847686
7.628000	 1.857350
7.712000	 1.854477
7.796000	 1.848328
7.880000	 1.773360
7.964000	 1.760206
8.048000	 1.834634
8.132000	 1.824459
8.216000	 1.785515
8.300000	 1.741721
8.384000	 1.741695
8.468000	 1.712260
8.552000	 1.675681
8.635999	 1.622757
8.719999	 1.604902
8.804000	 1.573543
8.888000	 1.525625
8.972000	 1.470937
9.056000	 1.432822
9.140000	 1.426901
9.224000	 1.430556
9.308000	 1.428969
9.391999	 1.438881
9.475999	 1.359568
9.560000	 1.327412
9.644000	 1.385101
9.728000	 1.370991
9.812000	 1.366324
9.896000	 1.381753
9.980000	 1.398486
10.064	1.396399
10.148	1.385542
10.232	1.369860
10.316	1.345515
10.4	1.320369
10.484	1.286887
10.568	1.265545
10.652	1.252868
10.736	1.240004
10.82	1.221227
10.904	1.201802
10.988	1.174567
11.072	1.155696
11.156	1.144351
11.24	1.125157
11.324	1.074710
11.408	1.028927
11.492	1.045308
11.576	1.081937
11.66	1.093949
11.744	1.086966
11.828	1.073901
11.912	1.052365
11.996	0.988054
12.08	0.879671
12.164	0.851689
12.248	0.913800
12.332	0.945717
12.416	0.946317
12.5	0.944876
12.584	0.954941
12.668	0.968599
12.752	0.976729
12.836	0.977206
12.92	0.974484
13.004	0.970716
13.088	0.966056
13.172	0.961856
13.256	0.957580
13.34	0.951818
13.424	0.942921
13.508	0.933871
13.592	0.926496
13.676	0.914219
13.76	0.899257
13.844	0.884680
13.928	0.871622
14.012	0.860732
14.096	0.850023
14.18	0.837013
14.264	0.819122
14.348	0.796577
14.432	0.767714
14.516	0.740458
14.6	0.731392
14.684	0.734083
14.768	0.733319
14.852	0.727924
14.936	0.720391
15.02	0.712957
15.104	0.705947
15.188	0.697073
15.272	0.686476
15.356	0.675754
15.44	0.665542
15.524	0.656142
15.608	0.647685
15.692	0.639463
15.776	0.630529
15.86	0.620969
15.944	0.611949
16.028	0.604054
16.112	0.595951
16.196	0.585824
16.28	0.572020
16.364	0.554399
16.448	0.536778
16.532	0.525128
16.616	0.521760
16.7	0.522929
16.784	0.523470
16.868	0.521045
16.952	0.516333
17.036	0.511228
17.12	0.507091
17.204	0.504014
17.288	0.501840
17.372	0.500359
17.456	0.498718
17.54	0.495952
17.624	0.491940
17.708	0.487373
17.792	0.483043
17.876	0.478976
17.96	0.474952
18.044	0.470526
18.128	0.465746
18.212	0.460840
18.296	0.456223
18.38	0.452058
18.464	0.448071
18.548	0.443944
18.632	0.439534
18.716	0.434829
18.8	0.429674
18.884	0.424011
18.968	0.418143
19.052	0.412533
19.136	0.407050
19.22	0.401389
19.304	0.395395
19.388	0.389472
19.472	0.384025
19.556	0.379023
19.64	0.374058
19.724	0.368872
19.808	0.363271
19.892	0.357337
19.976	0.351062
20.06	0.344365
20.144	0.337206
20.228	0.329622
20.312	0.321894
20.396	0.314161
20.48	0.306421
20.564	0.298767
20.648	0.291126
20.732	0.283662
20.816	0.276510
20.9	0.269885
20.984	0.263925
21.068	0.258591
21.152	0.253883
21.236	0.249429
21.32	0.244803
21.404	0.239593
21.488	0.233608
21.572	0.226800
21.656	0.219345
21.74	0.211538
21.824	0.203679
21.908	0.196127
21.992	0.189092
22.076	0.182921
22.16	0.177602
22.244	0.173160
22.328	0.169353
22.412	0.165921
22.496	0.162385
22.58	0.158482
22.664	0.154033
22.748	0.149104
22.832	0.143898
22.916	0.138730
23	0.133746
23.084	0.128976
23.168	0.124424
23.252	0.120003
23.336	0.115725
23.42	0.111564
23.504	0.107471
23.588	0.103266
23.672	0.098814
23.756	0.094095
23.84	0.089151
23.924	0.084249
24.008	0.079554
24.092	0.075244
24.176	0.071295
24.26	0.067656
24.344	0.064247
24.428	0.060849
24.512	0.057391
24.596	0.053895
24.68	0.050373
24.764	0.046939
24.848	0.043749
24.932	0.040942
25.016	0.038566
25.1	0.036680
25.184	0.035174
25.268	0.033961
25.352	0.032897
25.436	0.031772
25.52	0.030444
25.604	0.028842
25.688	0.026915
25.772	0.024732
25.856	0.022413
25.94	0.020106
26.024	0.017983
26.108	0.016149
26.192	0.014707
26.276	0.013617
26.36	0.012852
26.444	0.012273
26.528	0.011811
26.612	0.011406
26.696	0.010964
26.78	0.010509
26.864	0.009947
26.948	0.009366
27.028	0.008773

File: C-4040-8_e125_cm-1.asc
PE IR       SPECTRUM    SPECTRUM    ASCII       PEDS        1.60
  -1
C-3ACF~1.ASC
17/03/27
19:57:10.00
17/03/27
19:57:10.00
tln
$C-4040-8_e0125$<ebV0>[-23.3,12.1,10.0,0.0,27,1,0]
370
64

2002,4.07
MIRTGS : RIGHTBACK : INTERNAL 2
MIR : ON : INTERNAL 2
OPTKBR

0.200000
8
8.000000
FILLER
SINGLE
SPECTRUM
UNLOCKED 256

DOUBLE

COMBINED
1
0
0

1.000000
BACKG

1
0
TRUE
51149
0
LEFT NOT FITTED RIGHT NOT FITTED 0
NONE
NONE
15600
12
4.427000
51148
TRUE
1 0 8 72 0 0 0 0

15798

#HDR
-1
-1
#GR
CM-1
EGY
2.38419e-05
0.0
5000
-1.000000
4631
8
2.460193
0.008773
#DATA
5000	0.764894
4984	0.773930
4968	0.786256
4952	0.781011
4936	0.795555
4920	0.799202
4904	0.802326
4888	0.813245
4872	0.813961
4856	0.826811
4840	0.836753
4824	0.847268
4808	0.857591
4792	0.869822
4776	0.876641
4760	0.882983
4744	0.888466
4728	0.895237
4712	0.895524
4696	0.901675
4680	0.901341
4664	0.905418
4648	0.908422
4632	0.912642
4616	0.924348
4600	0.936079
4584	0.946879
4568	0.958538
4552	0.968980
4536	0.980567
4520	0.991225
4504	1.001095
4488	1.006507
4472	1.013636
4456	1.014447
4440	1.012444
4424	1.017618
4408	1.024293
4392	1.016163
4376	0.890302
4360	1.070880
4344	1.072335
4328	1.087594
4312	1.105809
4296	1.122093
4280	1.141214
4264	1.156544
4248	1.168990
4232	1.177263
4216	1.188707
4200	1.192665
4184	1.194095
4168	1.201701
4152	1.213335
4136	1.225495
4120	1.237535
4104	1.254892
4088	1.273512
4072	1.297521
4056	1.318550
4040	1.338696
4024	1.358056
4008	1.374435
3992	1.387786
3976	1.398563
3960	1.407599
3944	1.414203
3928	1.417040
3912	1.421117
3896	1.427006
3880	1.438355
3864	1.443743
3848	1.462244
3832	1.477956
3816	1.492547
3800	1.512789
3784	1.537060
3768	1.548433
3752	1.543116
3736	1.557016
3720	1.568102
3704	1.572775
3688	1.567196
3672	1.562142
3656	1.567673
3640	1.574254
3624	1.574230
3608	1.583766
3592	1.590323
3576	1.601099
3560	1.613688
3544	1.620197
3528	1.619911
3512	1.625561
3496	1.620030
3480	1.610374
3464	1.604199
3448	1.590633
3432	1.585245
3416	1.582288
3400	1.600241
3384	1.603412
3368	1.621651
3352	1.646208
3336	1.668071
3320	1.691770
3304	1.713132
3288	1.735687
3272	1.753544
3256	1.766633
3240	1.780796
3224	1.786136
3208	1.787853
3192	1.789951
3176	1.797580
3160	1.802873
3144	1.811408
3128	1.831483
3112	1.857757
3096	1.882576
3080	1.916575
3064	1.935982
3048	1.964235
3032	1.974797
3016	1.965665
3000	2.025794
2984	2.025675
2968	1.962089
2952	1.920914
2936	1.813316
2920	1.804304
2904	1.945304
2888	1.995587
2872	1.983785
2856	1.926565
2840	2.068901
2824	2.128338
2808	2.164959
2792	2.193832
2776	2.220273
2760	2.240324
2744	2.249121
2728	2.254605
2712	2.245998
2696	2.239060
2680	2.232742
2664	2.221226
2648	2.217221
2632	2.213883
2616	2.219223
2600	2.225947
2584	2.238154
2568	2.266001
2552	2.283143
2536	2.304291
2520	2.317285
2504	2.326393
2488	2.325224
2472	2.316546
2456	2.302265
2440	2.284955
2424	2.279114
2408	2.256703
2392	2.248835
2376	2.238726
2360	2.237439
2344	2.263021
2328	2.283668
2312	2.316260
2296	2.343630
2280	2.361750
2264	2.374768
2248	2.379393
2232	2.377676
2216	2.370834
2200	2.359938
2184	2.346086
2168	2.337455
2152	2.336597
2136	2.334594
2120	2.336788
2104	2.337551
2088	2.337694
2072	2.354145
2056	2.393651
2040	2.422618
2024	2.441525
2008	2.453970
1992	2.457046
1976	2.447247
1960	2.431082
1944	2.418947
1928	2.403283
1912	2.387094
1896	2.371978
1880	2.376103
1864	2.383828
1848	2.396321
1832	2.407622
1816	2.420902
1800	2.431249
1784	2.429127
1768	2.415060
1752	2.385210
1736	2.326679
1720	2.308535
1704	2.278184
1688	2.248859
1672	2.224946
1656	2.179718
1640	2.154517
1624	2.107119
1608	1.976037
1592	2.018260
1576	1.985931
1560	1.935124
1544	1.959657
1528	2.108478
1512	2.093553
1496	1.703882
1480	1.959156
1464	1.936340
1448	1.787710
1432	1.867222
1416	1.841640
1400	1.731538
1384	1.783919
1368	1.816725
1352	1.815247
1336	1.823949
1320	1.852250
1304	1.855826
1288	1.852917
1272	1.803898
1256	1.756238
1240	1.835083
1224	1.813769
1208	1.745462
1192	1.740312
1176	1.699304
1160	1.630210
1144	1.599597
1128	1.539611
1112	1.458311
1096	1.426863
1080	1.427197
1064	1.438140
1048	1.309108
1032	1.379966
1016	1.370215
1000	1.400351
984	 1.383543
968	 1.341438
952	 1.281499
936	 1.249289
920	 1.210427
904	 1.157331
888	 1.115727
872	 1.035094
856	 1.093530
840	 1.055312
824	 0.845432
808	 0.947737
792	 0.962138
776	 0.975680
760	 0.962495
744	 0.940871
728	 0.903511
712	 0.856614
696	 0.790381
680	 0.734496
664	 0.709700
648	 0.666475
632	 0.625205
616	 0.580167
600	 0.522279
584	 0.506949
568	 0.492906
552	 0.466442
536	 0.438189
520	 0.400638
504	 0.360965
488	 0.305342
472	 0.252056
456	 0.194239
440	 0.150370
424	 0.103425
408	 0.057482
392	 0.030612
376	 0.011491
370	 0.008773