Folder: Masteroppgave/Bakgrunnsmateriale/MATLAB/FTIR/ftir_data/subBb/Mapping_121 (part 44)

File: C-4040-8_t101_cm-1.asc
PE IR       SPECTRUM    SPECTRUM    ASCII       PEDS        1.60
  -1
C-468C~1.ASC
17/03/27
22:47:24.00
17/03/27
22:47:24.00
tln
$C-4040-8_t0101$<tbV0>[10.4,10.4,8.0,0.0,27,1,0]
370
64

2002,4.07
MIRTGS : RIGHTBACK : INTERNAL 2
MIR : ON : INTERNAL 2
OPTKBR

0.200000
8
8.000000
FILLER
RATIO
SPECTRUM
UNLOCKED 256

DOUBLE
64
COMBINED
1
0
0

1.000000
RATIO

1
0
TRUE
51149
0
LEFT NOT FITTED RIGHT NOT FITTED 0
NONE
NONE
15600
12
4.427000
51148
TRUE
1 0 8 72 0 0 0 0

15798

#HDR
-1
-1
#GR
CM-1
%T
2.38419e-05
0.0
5000
-1.000000
4631
8
200
41.7492
#DATA
5000	65.4205
4984	64.3212
4968	65.3376
4952	64.6123
4936	64.1444
4920	65.0654
4904	64.7452
4888	64.9393
4872	64.8918
4856	64.8009
4840	64.5174
4824	65.2274
4808	65.1614
4792	65.433
4776	65.0103
4760	65.0583
4744	64.9879
4728	64.742
4712	64.985
4696	65.3459
4680	65.06
4664	65.1473
4648	65.0119
4632	64.8802
4616	64.8551
4600	64.93
4584	65.1676
4568	64.9906
4552	65.2936
4536	63.4215
4520	65.2692
4504	64.5463
4488	64.3953
4472	64.4201
4456	64.1751
4440	63.7303
4424	63.5614
4408	66.409
4392	65.1532
4376	67.4872
4360	64.6304
4344	64.2441
4328	64.5679
4312	64.2296
4296	64.538
4280	64.0708
4264	64.9469
4248	64.2129
4232	64.7267
4216	64.9485
4200	64.3485
4184	64.1767
4168	64.8336
4152	65.0648
4136	65.2235
4120	65.2847
4104	65.4371
4088	65.0702
4072	64.9903
4056	65.001
4040	65.2604
4024	65.1851
4008	65.079
3992	65.0439
3976	64.9674
3960	65.1713
3944	65.1753
3928	64.9186
3912	65.2245
3896	64.8172
3880	64.8123
3864	65.2865
3848	64.7137
3832	65.0977
3816	65.1333
3800	64.9326
3784	65.0373
3768	65.1847
3752	65.1177
3736	65.2452
3720	65.0855
3704	65.0765
3688	65.0279
3672	64.9536
3656	65.0983
3640	65.2612
3624	65.3296
3608	65.1297
3592	65.2794
3576	65.067
3560	65.2942
3544	64.7513
3528	65.0323
3512	65.0971
3496	65.0332
3480	64.9424
3464	64.9618
3448	65.0957
3432	65.0382
3416	65.209
3400	65.0928
3384	65.0283
3368	65.0345
3352	65.2035
3336	64.9815
3320	65.0131
3304	65.1092
3288	64.9338
3272	65.1607
3256	65.0773
3240	65.1277
3224	65.1592
3208	65.1876
3192	64.8829
3176	65.3676
3160	65.3035
3144	65.2402
3128	65.313
3112	64.9978
3096	65.0527
3080	64.9827
3064	65.114
3048	65.0919
3032	65.3904
3016	65.1747
3000	65.1831
2984	65.1593
2968	64.8867
2952	64.9713
2936	65.1206
2920	64.7704
2904	65.0128
2888	64.9935
2872	65.2152
2856	65.0815
2840	64.9765
2824	65.0943
2808	65.1151
2792	65.2424
2776	65.2215
2760	65.164
2744	65.2136
2728	65.1452
2712	65.1338
2696	65.1059
2680	65.2056
2664	65.3698
2648	65.1564
2632	65.1152
2616	65.1319
2600	65.1976
2584	65.2582
2568	65.2169
2552	65.2101
2536	65.1315
2520	65.2255
2504	65.2981
2488	65.3648
2472	65.3207
2456	65.1847
2440	65.0135
2424	64.7267
2408	65.3283
2392	65.277
2376	65.1996
2360	65.2119
2344	65.1928
2328	65.152
2312	65.2992
2296	65.1995
2280	65.2693
2264	65.2679
2248	65.2311
2232	65.2765
2216	65.1753
2200	65.0896
2184	65.3064
2168	65.2825
2152	65.343
2136	65.3022
2120	65.0889
2104	65.3001
2088	65.1239
2072	65.5766
2056	64.9613
2040	65.2883
2024	65.2575
2008	65.1803
1992	65.1716
1976	65.1667
1960	65.2979
1944	65.1807
1928	65.3133
1912	65.1064
1896	65.17
1880	65.2788
1864	65.2576
1848	65.2406
1832	65.2961
1816	65.2668
1800	65.1496
1784	65.157
1768	65.1541
1752	64.9499
1736	64.7782
1720	64.9294
1704	65.2289
1688	65.2238
1672	65.1366
1656	65.0829
1640	65.1451
1624	65.1751
1608	65.1216
1592	65.0135
1576	65.0036
1560	64.9248
1544	65.0748
1528	64.9472
1512	64.9103
1496	65.2289
1480	65.1008
1464	64.831
1448	65.1685
1432	65.0087
1416	65.1135
1400	65.1771
1384	65.1358
1368	64.8472
1352	65.0259
1336	64.8978
1320	64.9861
1304	64.844
1288	64.8787
1272	65.0154
1256	64.9425
1240	64.9929
1224	64.8406
1208	64.9417
1192	64.8857
1176	64.8885
1160	64.8144
1144	64.6813
1128	64.7099
1112	64.9578
1096	64.6454
1080	64.6202
1064	64.7329
1048	64.708
1032	64.6338
1016	64.8558
1000	64.6495
984	 64.8578
968	 64.6361
952	 64.6779
936	 64.677
920	 65.1301
904	 64.4361
888	 64.5286
872	 64.3106
856	 64.7372
840	 64.388
824	 64.3609
808	 64.3201
792	 64.2135
776	 63.9241
760	 63.9394
744	 64.3027
728	 63.59
712	 63.3812
696	 63.1777
680	 63.426
664	 63.0705
648	 63.0816
632	 63.3338
616	 62.7768
600	 63.1806
584	 62.2607
568	 62.8661
552	 62.7805
536	 62.265
520	 60.9206
504	 61.5475
488	 62.0458
472	 61.5691
456	 60.2062
440	 57.9553
424	 60.8372
408	 56.0142
392	 47.554
376	 81.5825
370	 200

File: C-4040-8_t102.asc
PE IR       SPECTRUM    SPECTRUM    ASCII       PEDS        1.60
  -1
C-84C6~1.ASC
17/03/27
22:52:01.00
17/03/27
22:52:27.00
tln
$C-4040-8_t0102$<tbV0>[7.8,10.4,8.0,0.0,27,1,0]
27.028
64

2002,4.07
MIRTGS : RIGHTBACK : INTERNAL 2
MIR : ON : INTERNAL 2
OPTKBR

0.200000
8
8.000000
FILLER
RATIO
SPECTRUM
UNLOCKED 256

DOUBLE
64
COMBINED
1
0
0

0.002000
RATIO

1
0
TRUE
51149
0
LEFT NOT FITTED RIGHT NOT FITTED 0
NONE
NONE
15600
12
4.427000
51148
TRUE
1 0 8 72 0 0 0 0

15798

#HDR
-1
-1
#GR
µM
%T
2.38419e-05
0.0
2.000000
0.002000
12515
8
201.568
47.6807
#DATA
2.000000	 65.0988
2.084000	 65.2364
2.168000	 64.835
2.252000	 63.8302
2.336000	 64.3995
2.420000	 64.7506
2.504000	 65.0892
2.588000	 65.0613
2.672000	 65.1868
2.756000	 65.1646
2.840000	 65.2536
2.924000	 65.118
3.008000	 64.9665
3.092000	 65.0349
3.176000	 65.0711
3.260000	 65.2264
3.344000	 65.2163
3.428000	 64.794
3.512000	 64.8344
3.596000	 65.2883
3.680000	 65.2435
3.764000	 65.2419
3.848000	 65.0815
3.932000	 65.2892
4.016000	 65.2479
4.100000	 65.2567
4.184000	 65.2554
4.268000	 65.3665
4.352000	 65.1997
4.436000	 65.209
4.520000	 65.1676
4.604000	 65.0492
4.688000	 65.099
4.772000	 65.1628
4.856000	 65.4806
4.940000	 65.1452
5.024000	 65.1181
5.108000	 65.14
5.192000	 65.3201
5.276000	 65.2405
5.359999	 65.0866
5.444000	 65.2749
5.528000	 65.0854
5.612000	 65.1094
5.696000	 65.0772
5.780000	 64.8826
5.864000	 65.0126
5.948000	 65.0375
6.032000	 65.1182
6.116000	 65.2608
6.200000	 64.9302
6.284000	 65.0303
6.368000	 64.8667
6.452000	 65.086
6.536000	 65.0185
6.620000	 64.9833
6.704000	 65.1748
6.788000	 64.9421
6.872000	 65.0246
6.956000	 64.8062
7.040000	 65.0884
7.124000	 65.0666
7.208000	 64.9757
7.292000	 64.8445
7.376000	 65.0559
7.460000	 64.9854
7.544000	 64.9511
7.628000	 64.766
7.712000	 65.1355
7.796000	 65.0429
7.880000	 64.8939
7.964000	 64.9817
8.048000	 64.957
8.132000	 64.9521
8.216000	 65.0094
8.300000	 64.935
8.384000	 64.8643
8.468000	 64.848
8.552000	 64.9169
8.635999	 64.8228
8.719999	 64.7821
8.804000	 64.8637
8.888000	 64.8662
8.972000	 65.0007
9.056000	 65.0626
9.140000	 64.5895
9.224000	 64.3796
9.308000	 64.8444
9.391999	 64.7553
9.475999	 64.8791
9.560000	 64.8014
9.644000	 64.6998
9.728000	 64.7051
9.812000	 64.9001
9.896000	 64.1444
9.980000	 64.334
10.064	64.5504
10.148	64.7061
10.232	64.7313
10.316	64.6349
10.4	64.8436
10.484	64.6621
10.568	64.2979
10.652	64.1925
10.736	64.3654
10.82	65.0137
10.904	64.6733
10.988	64.3552
11.072	64.2959
11.156	64.2533
11.24	64.6217
11.324	64.4297
11.408	64.5571
11.492	64.1817
11.576	64.0487
11.66	64.3104
11.744	64.0881
11.828	63.9075
11.912	64.0257
11.996	64.034
12.08	63.9431
12.164	63.8965
12.248	64.1204
12.332	64.0186
12.416	63.788
12.5	63.7648
12.584	63.8528
12.668	63.8446
12.752	63.9328
12.836	64.0953
12.92	63.9967
13.004	63.8769
13.088	63.9083
13.172	63.6765
13.256	63.4264
13.34	63.8717
13.424	64.119
13.508	63.2745
13.592	63.0531
13.676	63.4686
13.76	63.4655
13.844	63.1205
13.928	62.8659
14.012	62.8602
14.096	63.1539
14.18	63.5339
14.264	63.6172
14.348	63.3068
14.432	63.1794
14.516	63.3959
14.6	63.4683
14.684	63.3268
14.768	63.1344
14.852	62.9505
14.936	62.9128
15.02	63.0113
15.104	62.9491
15.188	62.7483
15.272	62.7632
15.356	63.0236
15.44	63.2647
15.524	63.2041
15.608	62.898
15.692	62.7763
15.776	62.9046
15.86	62.9766
15.944	63.0145
16.028	63.1304
16.112	63.0527
16.196	62.6283
16.28	62.203
16.364	62.0979
16.448	62.2188
16.532	62.304
16.616	62.2846
16.7	62.3048
16.784	62.4489
16.868	62.5985
16.952	62.5994
17.036	62.4695
17.12	62.323
17.204	62.1978
17.288	62.1128
17.372	62.1323
17.456	62.2376
17.54	62.2951
17.624	62.2284
17.708	62.0958
17.792	62.012
17.876	62.1134
17.96	62.4379
18.044	62.814
18.128	62.9918
18.212	62.8907
18.296	62.6149
18.38	62.308
18.464	62.1024
18.548	62.0813
18.632	62.1636
18.716	62.1535
18.8	61.9879
18.884	61.8213
18.968	61.8147
19.052	61.9423
19.136	62.0577
19.22	62.0851
19.304	62.0672
19.388	62.0599
19.472	62.0564
19.556	62.0066
19.64	61.8788
19.724	61.6829
19.808	61.4419
19.892	61.1596
19.976	60.8509
20.06	60.5965
20.144	60.5282
20.228	60.7185
20.312	61.0809
20.396	61.3931
20.48	61.4557
20.564	61.2397
20.648	60.8772
20.732	60.5482
20.816	60.3738
20.9	60.3764
20.984	60.4831
21.068	60.5712
21.152	60.5187
21.236	60.2448
21.32	59.7271
21.404	59.0142
21.488	58.2245
21.572	57.5309
21.656	57.1212
21.74	57.107
21.824	57.442
21.908	57.9237
21.992	58.3302
22.076	58.5663
22.16	58.6955
22.244	58.8246
22.328	58.9752
22.412	59.0656
22.496	58.9983
22.58	58.7847
22.664	58.5484
22.748	58.4388
22.832	58.4951
22.916	58.6129
23	58.6043
23.084	58.3575
23.168	57.897
23.252	57.3625
23.336	56.9473
23.42	56.7945
23.504	56.9269
23.588	57.2764
23.672	57.7479
23.756	58.2277
23.84	58.5963
23.924	58.7462
24.008	58.6124
24.092	58.1942
24.176	57.5567
24.26	56.7838
24.344	55.9938
24.428	55.3528
24.512	55.0646
24.596	55.4772
24.68	56.7908
24.764	58.7368
24.848	60.8951
24.932	62.5491
25.016	62.8999
25.1	61.2823
25.184	57.7898
25.268	53.432
25.352	49.7259
25.436	47.8466
25.52	47.9445
25.604	49.2328
25.688	50.9076
25.772	52.7293
25.856	55.0477
25.94	57.6739
26.024	59.7021
26.108	59.911
26.192	59.0956
26.276	60.4214
26.36	69.0982
26.444	88.8725
26.528	119.579
26.612	155.999
26.696	189.23
26.78	201.06
26.864	200
26.948	200.194
27.028	194.538

File: C-4040-8_t102_cm-1.asc
PE IR       SPECTRUM    SPECTRUM    ASCII       PEDS        1.60
  -1
C-478C~1.ASC
17/03/27
22:52:01.00
17/03/27
22:52:01.00
tln
$C-4040-8_t0102$<tbV0>[7.8,10.4,8.0,0.0,27,1,0]
370
64

2002,4.07
MIRTGS : RIGHTBACK : INTERNAL 2
MIR : ON : INTERNAL 2
OPTKBR

0.200000
8
8.000000
FILLER
RATIO
SPECTRUM
UNLOCKED 256

DOUBLE
64
COMBINED
1
0
0

1.000000
RATIO

1
0
TRUE
51149
0
LEFT NOT FITTED RIGHT NOT FITTED 0
NONE
NONE
15600
12
4.427000
51148
TRUE
1 0 8 72 0 0 0 0

15798

#HDR
-1
-1
#GR
CM-1
%T
2.38419e-05
0.0
5000
-1.000000
4631
8
200
47.7644
#DATA
5000	65.0988
4984	65.0942
4968	64.3846
4952	65.1366
4936	64.5286
4920	65.0219
4904	64.475
4888	65.1662
4872	64.7799
4856	64.814
4840	64.7819
4824	64.675
4808	65.2933
4792	65.4155
4776	65.047
4760	65.1646
4744	64.7223
4728	65.1333
4712	65.2926
4696	65.016
4680	65.1875
4664	65.6018
4648	65.4917
4632	65.2848
4616	64.9738
4600	64.9822
4584	65.1062
4568	64.8277
4552	65.2674
4536	64.0622
4520	64.0435
4504	64.2196
4488	64.2763
4472	64.0744
4456	63.7253
4440	63.8255
4424	64.1814
4408	63.4
4392	63.7137
4376	68.0269
4360	64.2213
4344	64.3759
4328	64.3473
4312	64.1205
4296	63.9272
4280	64.4441
4264	64.8569
4248	64.1846
4232	64.7977
4216	64.6128
4200	64.5935
4184	64.9149
4168	64.7217
4152	65.0036
4136	64.8733
4120	65.1463
4104	65.2762
4088	65.2386
4072	64.9085
4056	65.1867
4040	65.2503
4024	65.4053
4008	64.9812
3992	65.1009
3976	65.1132
3960	65.2174
3944	64.8381
3928	64.8538
3912	65.0871
3896	64.9699
3880	64.9133
3864	65.061
3848	65.1017
3832	64.7184
3816	64.9083
3800	65.0071
3784	64.846
3768	65.0353
3752	65.1794
3736	65.0118
3720	65.2021
3704	65.2255
3688	65.3403
3672	65.1741
3656	65.1057
3640	65.0146
3624	65.2713
3608	65.2352
3592	65.176
3576	65.2959
3560	65.1898
3544	64.8631
3528	65.2247
3512	65.0993
3496	65.0491
3480	64.9119
3464	65.361
3448	65.0893
3432	65.3058
3416	65.0804
3400	65.1893
3384	65.0869
3368	64.8884
3352	65.0044
3336	65.0836
3320	64.936
3304	64.9755
3288	64.9993
3272	65.2231
3256	65.1364
3240	65.0217
3224	65.255
3208	65.1653
3192	64.953
3176	65.1777
3160	65.3057
3144	65.2395
3128	65.4872
3112	65.0926
3096	65.1107
3080	65.1359
3064	65.1365
3048	65.194
3032	65.187
3016	65.1384
3000	65.1662
2984	65.0532
2968	65.0091
2952	64.96
2936	65.2148
2920	64.6914
2904	65.0651
2888	65.097
2872	65.1383
2856	65.2007
2840	65.0822
2824	65.0852
2808	65.1985
2792	65.3721
2776	65.1696
2760	65.1873
2744	65.1626
2728	65.1047
2712	65.2063
2696	65.1953
2680	65.2126
2664	65.3511
2648	65.1576
2632	65.2482
2616	65.2207
2600	65.0864
2584	65.264
2568	65.1556
2552	65.2065
2536	65.1923
2520	65.2104
2504	64.9781
2488	65.2186
2472	65.2898
2456	64.9953
2440	65.2129
2424	65.4468
2408	64.9542
2392	65.25
2376	65.2427
2360	65.2467
2344	65.3802
2328	65.1824
2312	65.2124
2296	65.2368
2280	65.2849
2264	65.2798
2248	65.2754
2232	65.1466
2216	65.1409
2200	65.098
2184	65.2566
2168	65.1568
2152	65.2319
2136	65.1378
2120	65.1727
2104	65.2105
2088	65.1674
2072	66.0943
2056	65.1166
2040	65.1976
2024	65.1437
2008	65.4058
1992	65.1062
1976	65.29
1960	65.1871
1944	65.1972
1928	65.3717
1912	65.1995
1896	65.2371
1880	65.2102
1864	65.0955
1848	65.3419
1832	65.3307
1816	65.1568
1800	65.1194
1784	65.1004
1768	65.1445
1752	65.1346
1736	64.9631
1720	64.8374
1704	65.0345
1688	64.9926
1672	65.1508
1656	65.0809
1640	65.1224
1624	65.0269
1608	65.0954
1592	65.025
1576	64.9896
1560	64.8125
1544	64.9455
1528	65.0082
1512	64.9728
1496	65.2195
1480	65.0868
1464	65.0157
1448	65.0539
1432	64.7902
1416	65.0211
1400	64.9791
1384	65.0334
1368	64.9273
1352	65.088
1336	64.8987
1320	64.853
1304	64.9522
1288	65.1261
1272	64.9575
1256	64.9762
1240	64.9674
1224	64.9293
1208	64.9402
1192	64.8581
1176	64.9066
1160	64.7768
1144	64.8285
1128	64.7833
1112	65.1074
1096	64.5915
1080	64.4751
1064	64.7404
1048	64.8149
1032	64.7418
1016	64.6372
1000	64.416
984	 64.7001
968	 64.6713
952	 64.5379
936	 64.144
920	 64.9152
904	 64.3407
888	 64.5849
872	 64.3466
856	 64.3005
840	 64.0206
824	 63.8654
808	 63.8734
792	 63.8588
776	 64.0698
760	 63.7336
744	 63.9995
728	 63.5235
712	 62.9449
696	 63.2366
680	 63.2788
664	 63.0153
648	 63.2516
632	 62.961
616	 62.4095
600	 62.282
584	 62.3177
568	 62.2522
552	 62.9841
536	 62.1779
520	 62.0839
504	 61.3354
488	 61.4408
472	 60.436
456	 58.044
440	 58.449
424	 57.2609
408	 55.0642
392	 47.86
376	 148.914
370	 194.538

File: C-4040-8_t103.asc
PE IR       SPECTRUM    SPECTRUM    ASCII       PEDS        1.60
  -1
C-88C6~1.ASC
17/03/27
22:56:38.00
17/03/27
22:57:04.00
tln
$C-4040-8_t0103$<tbV0>[5.2,10.4,8.0,0.0,27,1,0]
27.028
64

2002,4.07
MIRTGS : RIGHTBACK : INTERNAL 2
MIR : ON : INTERNAL 2
OPTKBR

0.200000
8
8.000000
FILLER
RATIO
SPECTRUM
UNLOCKED 256

DOUBLE
64
COMBINED
1
0
0

0.002000
RATIO

1
0
TRUE
51149
0
LEFT NOT FITTED RIGHT NOT FITTED 0
NONE
NONE
15600
12
4.427000
51148
TRUE
1 0 8 72 0 0 0 0

15798

#HDR
-1
-1
#GR
µM
%T
2.38419e-05
0.0
2.000000
0.002000
12515
8
139.052
2.287772
#DATA
2.000000	 64.6749
2.084000	 65.2523
2.168000	 65.4098
2.252000	 63.3726
2.336000	 64.0996
2.420000	 65.2703
2.504000	 65.3157
2.588000	 65.4093
2.672000	 65.2612
2.756000	 65.5665
2.840000	 65.6548
2.924000	 65.2307
3.008000	 65.2796
3.092000	 65.0708
3.176000	 65.2304
3.260000	 65.2895
3.344000	 65.3334
3.428000	 64.9647
3.512000	 65.0573
3.596000	 65.3753
3.680000	 65.4621
3.764000	 65.4353
3.848000	 65.2736
3.932000	 65.517
4.016000	 65.5497
4.100000	 65.2125
4.184000	 65.2611
4.268000	 65.4442
4.352000	 65.3815
4.436000	 65.308
4.520000	 65.4292
4.604000	 65.3041
4.688000	 65.4825
4.772000	 65.3968
4.856000	 65.1772
4.940000	 65.5153
5.024000	 65.3506
5.108000	 65.406
5.192000	 65.4946
5.276000	 65.5508
5.359999	 65.3426
5.444000	 65.3897
5.528000	 65.4571
5.612000	 65.3822
5.696000	 65.3884
5.780000	 65.0815
5.864000	 65.3902
5.948000	 65.3253
6.032000	 65.2714
6.116000	 65.2986
6.200000	 65.2331
6.284000	 65.1941
6.368000	 65.0464
6.452000	 65.1545
6.536000	 65.2037
6.620000	 65.098
6.704000	 65.185
6.788000	 65.2939
6.872000	 65.1365
6.956000	 65.1741
7.040000	 65.2311
7.124000	 65.3116
7.208000	 65.3196
7.292000	 65.1057
7.376000	 65.0655
7.460000	 65.0686
7.544000	 65.2835
7.628000	 64.9336
7.712000	 65.1389
7.796000	 65.0603
7.880000	 65.0047
7.964000	 65.1659
8.048000	 65.1522
8.132000	 65.0826
8.216000	 65.0256
8.300000	 65.0165
8.384000	 65.062
8.468000	 64.9916
8.552000	 64.9629
8.635999	 65.0509
8.719999	 64.925
8.804000	 64.8524
8.888000	 64.943
8.972000	 65.112
9.056000	 64.9432
9.140000	 64.6963
9.224000	 64.6945
9.308000	 64.6481
9.391999	 64.8579
9.475999	 64.7136
9.560000	 64.9603
9.644000	 64.7998
9.728000	 64.9678
9.812000	 64.809
9.896000	 64.1921
9.980000	 64.486
10.064	64.6498
10.148	64.6174
10.232	64.5137
10.316	64.7727
10.4	64.768
10.484	64.7233
10.568	64.5636
10.652	64.2562
10.736	64.3991
10.82	65.3899
10.904	65.4372
10.988	64.7589
11.072	64.6281
11.156	63.9112
11.24	64.4613
11.324	64.5403
11.408	64.3551
11.492	64.6702
11.576	65.0549
11.66	65.0636
11.744	64.8144
11.828	64.2633
11.912	64.155
11.996	64.2403
12.08	64.1947
12.164	64.0822
12.248	64.0295
12.332	64.1728
12.416	64.0746
12.5	64.2603
12.584	64.4256
12.668	64.2303
12.752	63.9768
12.836	63.8427
12.92	64.0697
13.004	64.1693
13.088	63.9863
13.172	63.9443
13.256	64.3241
13.34	64.5315
13.424	64.4072
13.508	63.9659
13.592	63.7825
13.676	63.9032
13.76	63.694
13.844	63.3651
13.928	63.3233
14.012	63.2176
14.096	63.2196
14.18	63.4025
14.264	63.5242
14.348	63.5023
14.432	63.3394
14.516	63.2632
14.6	63.319
14.684	63.3576
14.768	63.4291
14.852	63.4788
14.936	63.2585
15.02	62.9412
15.104	62.8056
15.188	62.8743
15.272	63.1098
15.356	63.3024
15.44	63.2916
15.524	63.1998
15.608	63.1377
15.692	63.0563
15.776	62.9564
15.86	62.9855
15.944	63.1723
16.028	63.3028
16.112	63.1613
16.196	62.7782
16.28	62.439
16.364	62.3776
16.448	62.4937
16.532	62.5798
16.616	62.6146
16.7	62.6494
16.784	62.6469
16.868	62.573
16.952	62.4968
17.036	62.5379
17.12	62.6978
17.204	62.8164
17.288	62.8367
17.372	62.8579
17.456	62.864
17.54	62.7182
17.624	62.4373
17.708	62.1984
17.792	62.0951
17.876	62.1065
17.96	62.1703
18.044	62.1766
18.128	62.0348
18.212	61.8122
18.296	61.705
18.38	61.8325
18.464	62.1018
18.548	62.2968
18.632	62.2574
18.716	61.9789
18.8	61.5975
18.884	61.2921
18.968	61.1837
19.052	61.2594
19.136	61.3876
19.22	61.4233
19.304	61.3268
19.388	61.1592
19.472	60.9772
19.556	60.7899
19.64	60.6061
19.724	60.4973
19.808	60.5449
19.892	60.7547
19.976	61.0307
20.06	61.2496
20.144	61.3499
20.228	61.3572
20.312	61.3631
20.396	61.4602
20.48	61.6554
20.564	61.83
20.648	61.7994
20.732	61.4508
20.816	60.8426
20.9	60.184
20.984	59.7044
21.068	59.5102
21.152	59.5361
21.236	59.6108
21.32	59.5814
21.404	59.3936
21.488	59.1101
21.572	58.8434
21.656	58.6886
21.74	58.6813
21.824	58.7885
21.908	58.9349
21.992	59.0388
22.076	59.0433
22.16	58.9407
22.244	58.7622
22.328	58.5678
22.412	58.4009
22.496	58.2654
22.58	58.1186
22.664	57.8922
22.748	57.5366
22.832	57.0643
22.916	56.5489
23	56.0865
23.084	55.7701
23.168	55.6581
23.252	55.7649
23.336	56.0982
23.42	56.6756
23.504	57.4621
23.588	58.3954
23.672	59.4071
23.756	60.3891
23.84	61.1813
23.924	61.6175
24.008	61.6157
24.092	61.2185
24.176	60.54
24.26	59.7602
24.344	59.0583
24.428	58.6048
24.512	58.7202
24.596	59.7637
24.68	61.8797
24.764	64.742
24.848	67.5659
24.932	69.1968
25.016	68.6255
25.1	65.3933
25.184	60.019
25.268	53.9717
25.352	49.134
25.436	46.9565
25.52	47.7368
25.604	50.646
25.688	54.029
25.772	56.0951
25.856	55.5917
25.94	51.7643
26.024	44.4545
26.108	34.1634
26.192	22.4308
26.276	11.5598
26.36	4.287693
26.444	2.349813
26.528	5.696462
26.612	12.2254
26.696	18.7972
26.78	22.4457
26.864	21.7033
26.948	17.128
27.028	11.2208

File: C-4040-8_t103_cm-1.asc
PE IR       SPECTRUM    SPECTRUM    ASCII       PEDS        1.60
  -1
C-488C~1.ASC
17/03/27
22:56:38.00
17/03/27
22:56:38.00
tln
$C-4040-8_t0103$<tbV0>[5.2,10.4,8.0,0.0,27,1,0]
370
64

2002,4.07
MIRTGS : RIGHTBACK : INTERNAL 2
MIR : ON : INTERNAL 2
OPTKBR

0.200000
8
8.000000
FILLER
RATIO
SPECTRUM
UNLOCKED 256

DOUBLE
64
COMBINED
1
0
0

1.000000
RATIO

1
0
TRUE
51149
0
LEFT NOT FITTED RIGHT NOT FITTED 0
NONE
NONE
15600
12
4.427000
51148
TRUE
1 0 8 72 0 0 0 0

15798

#HDR
-1
-1
#GR
CM-1
%T
2.38419e-05
0.0
5000
-1.000000
4631
8
140.701
2.498269
#DATA
5000	64.6749
4984	64.9411
4968	64.5763
4952	65.3739
4936	64.2599
4920	64.8745
4904	64.777
4888	65.2393
4872	66.0677
4856	64.9107
4840	64.9758
4824	65.2756
4808	65.2471
4792	65.2292
4776	65.4282
4760	65.4563
4744	65.2946
4728	65.5768
4712	65.6934
4696	65.223
4680	65.6068
4664	65.544
4648	65.6581
4632	65.6651
4616	65.3264
4600	65.2635
4584	65.5782
4568	64.9975
4552	65.1246
4536	64.0814
4520	64.4385
4504	63.6306
4488	64.1504
4472	63.7765
4456	63.8389
4440	63.3264
4424	63.4832
4408	62.1857
4392	75.0419
4376	65.3455
4360	64.3179
4344	63.881
4328	64.1808
4312	63.5659
4296	63.8288
4280	64.15
4264	64.8693
4248	64.0053
4232	64.5589
4216	64.559
4200	64.1547
4184	64.483
4168	64.5301
4152	65.4667
4136	65.2407
4120	65.4692
4104	65.5417
4088	65.4982
4072	65.2416
4056	65.5625
4040	65.6648
4024	65.7664
4008	65.4069
3992	65.3028
3976	65.4089
3960	65.3925
3944	65.2203
3928	65.0688
3912	65.1832
3896	65.1428
3880	65.2761
3864	65.4093
3848	65.148
3832	65.0687
3816	65.0813
3800	64.9679
3784	65.3555
3768	65.3159
3752	65.3558
3736	65.1891
3720	65.435
3704	65.315
3688	65.5465
3672	65.4519
3656	65.3537
3640	65.3853
3624	65.695
3608	65.2938
3592	65.4858
3576	65.3718
3560	65.8391
3544	65.1967
3528	65.6663
3512	65.4963
3496	65.3879
3480	65.2249
3464	65.0804
3448	65.247
3432	65.3493
3416	65.3748
3400	65.1185
3384	65.2941
3368	65.1916
3352	65.249
3336	65.0122
3320	65.1711
3304	65.2128
3288	65.2051
3272	65.3683
3256	65.4456
3240	65.1021
3224	65.3336
3208	65.2922
3192	65.0936
3176	65.5608
3160	65.442
3144	65.2799
3128	65.655
3112	65.4723
3096	65.5073
3080	65.2461
3064	65.2508
3048	65.3655
3032	65.2001
3016	65.2575
3000	65.4331
2984	65.2079
2968	65.3512
2952	65.2759
2936	65.08
2920	64.9077
2904	65.2717
2888	65.3325
2872	65.2951
2856	65.2297
2840	65.2277
2824	65.3232
2808	65.3553
2792	65.5246
2776	65.3584
2760	65.3564
2744	65.3368
2728	65.4664
2712	65.4626
2696	65.5141
2680	65.4079
2664	65.4697
2648	65.3483
2632	65.3556
2616	65.4153
2600	65.2795
2584	65.431
2568	65.3388
2552	65.4583
2536	65.462
2520	65.2756
2504	65.3054
2488	65.4648
2472	65.4669
2456	65.3953
2440	65.2283
2424	65.2003
2408	65.4036
2392	65.2952
2376	65.3808
2360	65.3832
2344	65.4362
2328	65.3888
2312	65.4288
2296	65.3967
2280	65.5041
2264	65.4349
2248	65.4132
2232	65.4516
2216	65.4704
2200	65.3037
2184	65.4467
2168	65.3689
2152	65.3747
2136	65.4847
2120	65.324
2104	65.6074
2088	65.2922
2072	65.479
2056	65.0466
2040	65.3749
2024	65.5222
2008	65.5052
1992	65.3548
1976	65.4926
1960	65.3996
1944	65.4811
1928	65.5246
1912	65.3154
1896	65.5529
1880	65.3779
1864	65.3331
1848	65.4216
1832	65.4222
1816	65.4546
1800	65.3487
1784	65.3742
1768	65.4365
1752	65.4072
1736	65.0551
1720	65.2657
1704	65.3624
1688	65.3378
1672	65.3075
1656	65.2735
1640	65.2461
1624	65.2656
1608	65.2469
1592	65.192
1576	65.1355
1560	65.1737
1544	65.2503
1528	65.1592
1512	65.1084
1496	65.2643
1480	65.3136
1464	65.2243
1448	65.0891
1432	65.1383
1416	65.2684
1400	65.2855
1384	65.3646
1368	65.1048
1352	65.1475
1336	65.0359
1320	65.216
1304	65.0293
1288	65.197
1272	65.0643
1256	65.1604
1240	65.1743
1224	65.0744
1208	65.0619
1192	65.047
1176	65.1116
1160	65.0245
1144	64.847
1128	64.8468
1112	65.0705
1096	64.7632
1080	64.7144
1064	64.841
1048	64.859
1032	64.8004
1016	64.4325
1000	64.5476
984	 64.6051
968	 64.7999
952	 64.7202
936	 64.1738
920	 65.5902
904	 64.7262
888	 64.6007
872	 64.5569
856	 65.0432
840	 64.1484
824	 64.1398
808	 64.1154
792	 64.35
776	 63.9594
760	 63.9151
744	 64.3356
728	 63.7955
712	 63.1843
696	 63.4704
680	 63.3681
664	 62.8495
648	 63.2991
632	 62.9483
616	 62.6
600	 62.6364
584	 62.7043
568	 62.5015
552	 62.0637
536	 62.1964
520	 61.4177
504	 60.6123
488	 61.6848
472	 59.5717
456	 58.9692
440	 57.637
424	 58.3593
408	 58.706
392	 47.5176
376	 10.8855
370	 11.2208