Folder: Masteroppgave/Bakgrunnsmateriale/MATLAB/FTIR/ftir_data/subBb/Mapping_121 (part 15)

File: C-4040-8_t29.asc
PE IR       SPECTRUM    SPECTRUM    ASCII       PEDS        1.60
  -1
C-CD2E~1.ASC
17/03/27
16:52:31.00
17/03/27
16:52:57.00
tln
$C-4040-8_t0029$<tbV0>[-2.6,-7.8,8.0,0.0,27,1,0]
27.028
64

2002,4.07
MIRTGS : RIGHTBACK : INTERNAL 2
MIR : ON : INTERNAL 2
OPTKBR

0.200000
8
8.000000
FILLER
RATIO
SPECTRUM
UNLOCKED 256

DOUBLE
64
COMBINED
1
0
0

0.002000
RATIO

1
0
TRUE
51149
0
LEFT NOT FITTED RIGHT NOT FITTED 0
NONE
NONE
15600
12
4.427000
51148
TRUE
1 0 8 72 0 0 0 0

15798

#HDR
-1
-1
#GR
µM
%T
2.38419e-05
0.0
2.000000
0.002000
12515
8
67.9514
28.9195
#DATA
2.000000	 63.9295
2.084000	 63.8989
2.168000	 63.9397
2.252000	 64.2868
2.336000	 64.3522
2.420000	 63.6159
2.504000	 63.2888
2.588000	 63.1897
2.672000	 63.0877
2.756000	 62.6779
2.840000	 62.4801
2.924000	 62.0591
3.008000	 61.8881
3.092000	 61.444
3.176000	 61.1916
3.260000	 60.9887
3.344000	 60.4572
3.428000	 59.8375
3.512000	 59.888
3.596000	 59.6594
3.680000	 59.1313
3.764000	 58.7455
3.848000	 58.5134
3.932000	 58.3331
4.016000	 57.9591
4.100000	 57.616
4.184000	 57.3057
4.268000	 56.8671
4.352000	 56.6551
4.436000	 56.3472
4.520000	 56.0257
4.604000	 55.6948
4.688000	 55.4356
4.772000	 55.0537
4.856000	 55.0705
4.940000	 54.6321
5.024000	 54.3322
5.108000	 54.116
5.192000	 53.8309
5.276000	 53.4979
5.359999	 53.2959
5.444000	 53.037
5.528000	 52.8891
5.612000	 52.5983
5.696000	 52.4915
5.780000	 52.2959
5.864000	 52.0425
5.948000	 51.7432
6.032000	 51.6504
6.116000	 51.3531
6.200000	 51.1504
6.284000	 51.1037
6.368000	 50.6704
6.452000	 50.58
6.536000	 50.3972
6.620000	 50.3442
6.704000	 50.0951
6.788000	 50.0387
6.872000	 49.8067
6.956000	 49.6953
7.040000	 49.3826
7.124000	 49.3218
7.208000	 49.0765
7.292000	 48.9412
7.376000	 48.8107
7.460000	 48.6332
7.544000	 48.5597
7.628000	 48.4623
7.712000	 48.3273
7.796000	 48.1974
7.880000	 48.1102
7.964000	 47.9606
8.048000	 47.886
8.132000	 47.8856
8.216000	 47.5521
8.300000	 47.3359
8.384000	 47.3618
8.468000	 47.3584
8.552000	 47.2932
8.635999	 47.0869
8.719999	 47.0796
8.804000	 46.7042
8.888000	 46.4657
8.972000	 46.6902
9.056000	 47.178
9.140000	 46.6761
9.224000	 46.0375
9.308000	 46.2725
9.391999	 46.3394
9.475999	 45.5532
9.560000	 45.7121
9.644000	 45.6036
9.728000	 45.5849
9.812000	 45.6303
9.896000	 45.6849
9.980000	 45.4168
10.064	45.165
10.148	45.5517
10.232	45.1242
10.316	45.1129
10.4	44.8718
10.484	44.9561
10.568	45.054
10.652	44.7128
10.736	44.6075
10.82	44.5157
10.904	44.5206
10.988	44.4615
11.072	44.3894
11.156	44.3854
11.24	44.4461
11.324	44.2501
11.408	44.1284
11.492	43.9885
11.576	43.9649
11.66	43.7809
11.744	43.599
11.828	43.5797
11.912	43.5211
11.996	43.5148
12.08	43.247
12.164	43.0803
12.248	43.0118
12.332	43.0883
12.416	43.0837
12.5	42.9545
12.584	42.9466
12.668	42.9253
12.752	42.8012
12.836	42.7206
12.92	42.4564
13.004	42.3282
13.088	42.3544
13.172	42.3216
13.256	42.1719
13.34	41.9898
13.424	41.9037
13.508	41.8014
13.592	41.6649
13.676	41.6007
13.76	41.5062
13.844	41.3519
13.928	41.3808
14.012	41.4967
14.096	41.5158
14.18	41.4169
14.264	41.1901
14.348	40.9871
14.432	40.8269
14.516	40.7843
14.6	40.7992
14.684	40.6609
14.768	40.453
14.852	40.3768
14.936	40.374
15.02	40.3286
15.104	40.31
15.188	40.2786
15.272	40.1155
15.356	39.8726
15.44	39.7194
15.524	39.6806
15.608	39.5617
15.692	39.3578
15.776	39.274
15.86	39.3026
15.944	39.3074
16.028	39.2927
16.112	39.2907
16.196	39.2712
16.28	39.2114
16.364	39.1039
16.448	38.9732
16.532	38.9155
16.616	38.9427
16.7	38.9304
16.784	38.8462
16.868	38.7698
16.952	38.6887
17.036	38.5241
17.12	38.3337
17.204	38.2846
17.288	38.4078
17.372	38.5039
17.456	38.3659
17.54	38.0207
17.624	37.6512
17.708	37.3905
17.792	37.2892
17.876	37.3459
17.96	37.4887
18.044	37.601
18.128	37.612
18.212	37.5224
18.296	37.3662
18.38	37.2093
18.464	37.1374
18.548	37.1682
18.632	37.2076
18.716	37.1392
18.8	36.9467
18.884	36.7237
18.968	36.5705
19.052	36.514
19.136	36.5186
19.22	36.5249
19.304	36.467
19.388	36.3026
19.472	36.0545
19.556	35.8055
19.64	35.6268
19.724	35.5205
19.808	35.4432
19.892	35.3701
19.976	35.3253
20.06	35.353
20.144	35.4614
20.228	35.6072
20.312	35.7213
20.396	35.741
20.48	35.627
20.564	35.3832
20.648	35.0771
20.732	34.8315
20.816	34.757
20.9	34.8657
20.984	35.0465
21.068	35.1349
21.152	35.0316
21.236	34.7627
21.32	34.4428
21.404	34.1802
21.488	34.0195
21.572	33.9512
21.656	33.9524
21.74	34.0122
21.824	34.1187
21.908	34.2318
21.992	34.2855
22.076	34.2187
22.16	34.0098
22.244	33.6957
22.328	33.3528
22.412	33.0576
22.496	32.8513
22.58	32.7103
22.664	32.5693
22.748	32.37
22.832	32.1166
22.916	31.8925
23	31.813
23.084	31.9433
23.168	32.2522
23.252	32.6152
23.336	32.8557
23.42	32.852
23.504	32.5845
23.588	32.1557
23.672	31.7293
23.756	31.4617
23.84	31.4437
23.924	31.6841
24.008	32.1275
24.092	32.6924
24.176	33.3149
24.26	33.9757
24.344	34.6747
24.428	35.3719
24.512	35.9141
24.596	36.0915
24.68	35.7179
24.764	34.7391
24.848	33.3046
24.932	31.722
25.016	30.3303
25.1	29.3943
25.184	28.9747
25.268	28.9413
25.352	29.1345
25.436	29.3618
25.52	29.5357
25.604	29.7338
25.688	29.9917
25.772	30.2607
25.856	30.4544
25.94	30.56
26.024	30.67
26.108	30.9572
26.192	31.574
26.276	32.5978
26.36	34.0381
26.444	35.7054
26.528	37.3133
26.612	38.6171
26.696	39.6236
26.78	40.634
26.864	42.2414
26.948	45.1241
27.028	49.364

File: C-4040-8_t29_cm-1.asc
PE IR       SPECTRUM    SPECTRUM    ASCII       PEDS        1.60
  -1
C-9AE0~1.ASC
17/03/27
16:52:31.00
17/03/27
16:52:31.00
tln
$C-4040-8_t0029$<tbV0>[-2.6,-7.8,8.0,0.0,27,1,0]
370
64

2002,4.07
MIRTGS : RIGHTBACK : INTERNAL 2
MIR : ON : INTERNAL 2
OPTKBR

0.200000
8
8.000000
FILLER
RATIO
SPECTRUM
UNLOCKED 256

DOUBLE
64
COMBINED
1
0
0

1.000000
RATIO

1
0
TRUE
51149
0
LEFT NOT FITTED RIGHT NOT FITTED 0
NONE
NONE
15600
12
4.427000
51148
TRUE
1 0 8 72 0 0 0 0

15798

#HDR
-1
-1
#GR
CM-1
%T
2.38419e-05
0.0
5000
-1.000000
4631
8
67.9355
28.9262
#DATA
5000	63.9295
4984	63.5723
4968	63.9062
4952	64.0151
4936	63.9716
4920	63.5786
4904	64.0993
4888	64.1909
4872	63.6759
4856	63.6394
4840	63.9167
4824	64.2106
4808	64.1437
4792	63.8525
4776	63.4958
4760	64.1887
4744	64.1286
4728	63.8739
4712	63.7446
4696	63.6044
4680	63.481
4664	63.7835
4648	63.3013
4632	63.554
4616	63.9158
4600	63.8063
4584	63.7823
4568	63.9731
4552	63.7634
4536	63.601
4520	64.1588
4504	63.8258
4488	64.3976
4472	64.3046
4456	64.5608
4440	64.3067
4424	64.0853
4408	63.9496
4392	65.0752
4376	65.7302
4360	43.3894
4344	66.9577
4328	63.8408
4312	64.6435
4296	64.316
4280	64.3988
4264	64.5922
4248	63.9968
4232	64.0707
4216	63.7269
4200	63.3254
4184	63.1647
4168	63.9033
4152	63.6387
4136	63.829
4120	63.298
4104	63.2038
4088	63.2659
4072	63.4405
4056	63.1969
4040	63.3262
4024	63.1866
4008	63.003
3992	63.3546
3976	63.2904
3960	63.3904
3944	62.9832
3928	63.393
3912	63.3273
3896	63.057
3880	63.7016
3864	63.1899
3848	63.3549
3832	63.1869
3816	63.2395
3800	63.0299
3784	63.0252
3768	63.0795
3752	63.0201
3736	63.047
3720	63.0172
3704	62.8644
3688	62.82
3672	62.6868
3656	62.8623
3640	62.6405
3624	62.7245
3608	62.6509
3592	62.6698
3576	62.5523
3560	62.5807
3544	62.4762
3528	62.4289
3512	62.4835
3496	62.3525
3480	62.3678
3464	62.4072
3448	62.428
3432	62.3999
3416	62.0749
3400	62.1178
3384	61.9843
3368	62.049
3352	62.0729
3336	62.0898
3320	61.9785
3304	61.5763
3288	61.868
3272	61.6377
3256	61.7291
3240	61.5367
3224	61.3847
3208	61.3696
3192	61.2535
3176	61.4808
3160	61.0975
3144	61.1196
3128	60.632
3112	61.1991
3096	60.8851
3080	60.9416
3064	60.9511
3048	60.766
3032	60.9351
3016	60.6524
3000	60.6041
2984	60.4938
2968	60.4184
2952	60.3578
2936	60.184
2920	59.8944
2904	60.0352
2888	59.9307
2872	60.0198
2856	59.6906
2840	59.9971
2824	59.7347
2808	59.6165
2792	59.6721
2776	59.5767
2760	59.5407
2744	59.4328
2728	59.2827
2712	59.0757
2696	59.1861
2680	59.0236
2664	58.8584
2648	58.8506
2632	58.7555
2616	58.51
2600	58.5152
2584	58.4605
2568	58.3473
2552	58.3591
2536	58.3082
2520	58.125
2504	57.9607
2488	57.9514
2472	57.8129
2456	57.5918
2440	57.6394
2424	57.5042
2408	57.2101
2392	57.3443
2376	57.0897
2360	57.0052
2344	56.8828
2328	56.6824
2312	56.7153
2296	56.6396
2280	56.4757
2264	56.2455
2248	56.3303
2232	56.2175
2216	56.0327
2200	55.9064
2184	55.8928
2168	55.6805
2152	55.5711
2136	55.524
2120	55.3403
2104	55.2229
2088	55.1218
2072	54.7564
2056	55.034
2040	54.6531
2024	54.6319
2008	54.4896
1992	54.3466
1976	54.2446
1960	54.1152
1944	53.8871
1928	53.8387
1912	53.7062
1896	53.4957
1880	53.4929
1864	53.299
1848	53.1669
1832	52.9979
1816	52.9425
1800	52.8888
1784	52.6484
1768	52.4888
1752	52.4149
1736	52.2356
1720	52.031
1704	52.0541
1688	51.8168
1672	51.6642
1656	51.5986
1640	51.5017
1624	51.1162
1608	51.1099
1592	51.0944
1576	50.7879
1560	50.6154
1544	50.5139
1528	50.4282
1512	50.3417
1496	50.077
1480	50.0976
1464	49.8973
1448	49.8593
1432	49.5792
1416	49.3374
1400	49.2442
1384	49.0514
1368	48.8303
1352	48.7916
1336	48.6737
1320	48.5816
1304	48.4025
1288	48.2567
1272	48.1405
1256	47.9719
1240	47.9045
1224	47.6957
1208	47.4449
1192	47.3509
1176	47.443
1160	47.0596
1144	47.0261
1128	46.4447
1112	46.723
1096	46.9044
1080	46.1522
1064	46.3155
1048	45.6376
1032	45.5547
1016	45.7004
1000	45.3783
984	 45.5207
968	 45.1012
952	 45.0311
936	 44.6236
920	 44.5108
904	 44.3947
888	 44.401
872	 44.0186
856	 43.7041
840	 43.5211
824	 43.1019
808	 43.1247
792	 42.9557
776	 42.5711
760	 42.3356
744	 41.8905
728	 41.5442
712	 41.5152
696	 40.9452
680	 40.6036
664	 40.3132
648	 39.727
632	 39.2869
616	 39.2497
600	 38.9465
584	 38.3282
568	 37.7257
552	 37.6171
536	 37.2023
520	 36.5223
504	 35.4136
488	 35.5999
472	 34.9357
456	 34.2544
440	 32.426
424	 32.1721
408	 35.9041
392	 29.515
376	 38.392
370	 49.364

File: C-4040-8_t30.asc
PE IR       SPECTRUM    SPECTRUM    ASCII       PEDS        1.60
  -1
C-A13A~1.ASC
17/03/27
16:57:08.00
17/03/27
16:57:34.00
tln
$C-4040-8_t0030$<tbV0>[-5.2,-7.8,8.0,0.0,27,1,0]
27.028
64

2002,4.07
MIRTGS : RIGHTBACK : INTERNAL 2
MIR : ON : INTERNAL 2
OPTKBR

0.200000
8
8.000000
FILLER
RATIO
SPECTRUM
UNLOCKED 256

DOUBLE
64
COMBINED
1
0
0

0.002000
RATIO

1
0
TRUE
51149
0
LEFT NOT FITTED RIGHT NOT FITTED 0
NONE
NONE
15600
12
4.427000
51148
TRUE
1 0 8 72 0 0 0 0

15798

#HDR
-1
-1
#GR
µM
%T
2.38419e-05
0.0
2.000000
0.002000
12515
8
66.5354
11.1813
#DATA
2.000000	 63.8222
2.084000	 63.8306
2.168000	 64.0656
2.252000	 63.6589
2.336000	 64.0138
2.420000	 63.5855
2.504000	 63.1533
2.588000	 63.0331
2.672000	 63.0123
2.756000	 62.4989
2.840000	 62.1629
2.924000	 61.7693
3.008000	 61.5818
3.092000	 61.281
3.176000	 60.7379
3.260000	 60.5114
3.344000	 60.1215
3.428000	 59.3888
3.512000	 59.2926
3.596000	 59.0087
3.680000	 58.3945
3.764000	 58.1203
3.848000	 57.8163
3.932000	 57.4612
4.016000	 56.8447
4.100000	 56.5417
4.184000	 56.3563
4.268000	 55.8949
4.352000	 55.5893
4.436000	 55.2693
4.520000	 54.8141
4.604000	 54.6961
4.688000	 54.2809
4.772000	 53.9071
4.856000	 53.8122
4.940000	 53.3304
5.024000	 53.0002
5.108000	 52.753
5.192000	 52.4086
5.276000	 52.1583
5.359999	 51.8978
5.444000	 51.7211
5.528000	 51.3417
5.612000	 51.0902
5.696000	 51.0013
5.780000	 50.6516
5.864000	 50.3348
5.948000	 50.2129
6.032000	 50.0425
6.116000	 49.7241
6.200000	 49.5513
6.284000	 49.3941
6.368000	 49.0362
6.452000	 48.9637
6.536000	 48.7376
6.620000	 48.7553
6.704000	 48.4849
6.788000	 48.0542
6.872000	 47.9466
6.956000	 47.5826
7.040000	 47.5207
7.124000	 47.4308
7.208000	 47.2452
7.292000	 47.1162
7.376000	 47.1339
7.460000	 46.8423
7.544000	 46.8093
7.628000	 46.4113
7.712000	 46.3627
7.796000	 46.3433
7.880000	 46.2095
7.964000	 46.0285
8.048000	 45.9689
8.132000	 45.8485
8.216000	 45.7051
8.300000	 45.4752
8.384000	 45.4503
8.468000	 45.3724
8.552000	 45.0511
8.635999	 44.9036
8.719999	 44.9614
8.804000	 44.8056
8.888000	 44.4536
8.972000	 44.3357
9.056000	 44.7823
9.140000	 44.486
9.224000	 44.3549
9.308000	 44.1616
9.391999	 43.5077
9.475999	 43.6927
9.560000	 43.6165
9.644000	 43.9002
9.728000	 43.783
9.812000	 43.6741
9.896000	 43.3511
9.980000	 43.2795
10.064	43.1165
10.148	43.3592
10.232	43.2315
10.316	42.9506
10.4	42.7546
10.484	42.6931
10.568	42.6326
10.652	42.5157
10.736	42.4868
10.82	42.3075
10.904	42.3787
10.988	42.3101
11.072	42.1203
11.156	41.9776
11.24	41.8505
11.324	41.8023
11.408	41.7789
11.492	41.6906
11.576	41.6077
11.66	41.3796
11.744	41.426
11.828	41.4038
11.912	41.1316
11.996	41.0908
12.08	41.0116
12.164	40.9123
12.248	40.6213
12.332	40.3656
12.416	40.3337
12.5	40.3392
12.584	40.4302
12.668	40.4996
12.752	40.4107
12.836	40.1777
12.92	39.9564
13.004	39.7115
13.088	39.7117
13.172	39.5865
13.256	39.1795
13.34	39.0541
13.424	39.2801
13.508	39.3482
13.592	39.3572
13.676	39.3074
13.76	39.1753
13.844	39.1689
13.928	39.1931
14.012	38.8998
14.096	38.6467
14.18	38.6919
14.264	38.5808
14.348	38.3274
14.432	38.2245
14.516	38.1856
14.6	38.1458
14.684	38.1505
14.768	38.1397
14.852	38.0936
14.936	38.107
15.02	38.1454
15.104	37.9969
15.188	37.6603
15.272	37.386
15.356	37.3238
15.44	37.3444
15.524	37.1356
15.608	36.6651
15.692	36.3391
15.776	36.4039
15.86	36.6588
15.944	36.8604
16.028	36.9103
16.112	36.7685
16.196	36.5589
16.28	36.4815
16.364	36.5135
16.448	36.5214
16.532	36.4689
16.616	36.3426
16.7	36.1523
16.784	35.9866
16.868	35.8715
16.952	35.7641
17.036	35.7057
17.12	35.7377
17.204	35.7306
17.288	35.5356
17.372	35.2234
17.456	35.0219
17.54	35.0627
17.624	35.2513
17.708	35.4049
17.792	35.4489
17.876	35.4142
17.96	35.3126
18.044	35.1334
18.128	34.9295
18.212	34.7917
18.296	34.7207
18.38	34.6248
18.464	34.4507
18.548	34.2432
18.632	34.0501
18.716	33.8561
18.8	33.6513
18.884	33.5002
18.968	33.4643
19.052	33.4858
19.136	33.4334
19.22	33.2636
19.304	33.0889
19.388	33.0467
19.472	33.1442
19.556	33.2598
19.64	33.2824
19.724	33.2102
19.808	33.1138
19.892	33.0262
19.976	32.9021
20.06	32.6715
20.144	32.321
20.228	31.9174
20.312	31.5635
20.396	31.3374
20.48	31.2627
20.564	31.3095
20.648	31.4203
20.732	31.5363
20.816	31.6201
20.9	31.6531
20.984	31.6221
21.068	31.5067
21.152	31.2879
21.236	30.9856
21.32	30.6794
21.404	30.4751
21.488	30.4243
21.572	30.483
21.656	30.5354
21.74	30.4761
21.824	30.2862
21.908	30.0332
21.992	29.7944
22.076	29.5965
22.16	29.4229
22.244	29.2803
22.328	29.2132
22.412	29.2582
22.496	29.3781
22.58	29.4783
22.664	29.478
22.748	29.3903
22.832	29.3225
22.916	29.382
23	29.5851
23.084	29.8203
23.168	29.927
23.252	29.8302
23.336	29.5708
23.42	29.2554
23.504	28.9949
23.588	28.8041
23.672	28.6246
23.756	28.4291
23.84	28.178
23.924	27.8751
24.008	27.5492
24.092	27.1909
24.176	26.7101
24.26	26.0029
24.344	24.9978
24.428	23.6804
24.512	22.0713
24.596	20.1899
24.68	18.1485
24.764	16.2346
24.848	14.8144
24.932	14.2979
25.016	15.0125
25.1	17.089
25.184	20.7314
25.268	26.1548
25.352	33.4242
25.436	41.9807
25.52	50.5262
25.604	57.4127
25.688	61.0308
25.772	60.6769
25.856	56.9166
25.94	51.139
26.024	44.9758
26.108	39.5883
26.192	35.6492
26.276	33.3133
26.36	32.5483
26.444	32.7277
26.528	32.8463
26.612	31.7075
26.696	28.6056
26.78	23.6724
26.864	18.1593
26.948	13.7011
27.028	11.1813

File: C-4040-8_t30_cm-1.asc
PE IR       SPECTRUM    SPECTRUM    ASCII       PEDS        1.60
  -1
C-1B61~1.ASC
17/03/27
16:57:08.00
17/03/27
16:57:08.00
tln
$C-4040-8_t0030$<tbV0>[-5.2,-7.8,8.0,0.0,27,1,0]
370
64

2002,4.07
MIRTGS : RIGHTBACK : INTERNAL 2
MIR : ON : INTERNAL 2
OPTKBR

0.200000
8
8.000000
FILLER
RATIO
SPECTRUM
UNLOCKED 256

DOUBLE
64
COMBINED
1
0
0

1.000000
RATIO

1
0
TRUE
51149
0
LEFT NOT FITTED RIGHT NOT FITTED 0
NONE
NONE
15600
12
4.427000
51148
TRUE
1 0 8 72 0 0 0 0

15798

#HDR
-1
-1
#GR
CM-1
%T
2.38419e-05
0.0
5000
-1.000000
4631
8
66.6715
11.1813
#DATA
5000	63.8222
4984	64.188
4968	64.1217
4952	64.3986
4936	64.4284
4920	64.3484
4904	64.4103
4888	64.5389
4872	63.7206
4856	64.366
4840	64.0043
4824	64.1154
4808	63.8845
4792	64.113
4776	63.7759
4760	64.056
4744	63.7638
4728	64.008
4712	64.1955
4696	64.1188
4680	63.8644
4664	64.0151
4648	63.6938
4632	64.0654
4616	64.0587
4600	63.9041
4584	64.3395
4568	63.6571
4552	63.9823
4536	63.4316
4520	64.6857
4504	63.9956
4488	64.4442
4472	64.2239
4456	63.8875
4440	63.6709
4424	63.9917
4408	63.2492
4392	64.5827
4376	64.5024
4360	57.4727
4344	65.8446
4328	64.1289
4312	64.0735
4296	64.033
4280	63.9982
4264	63.92
4248	63.7799
4232	63.6901
4216	63.7876
4200	63.7762
4184	63.8811
4168	63.7867
4152	63.3752
4136	63.6948
4120	63.3878
4104	63.2424
4088	63.4181
4072	63.318
4056	63.1162
4040	63.531
4024	63.1598
4008	63.2879
3992	63.2007
3976	63.3131
3960	63.1296
3944	63.111
3928	63.3192
3912	63.1628
3896	63.3293
3880	63.3263
3864	63.0331
3848	63.2637
3832	62.943
3816	63.1741
3800	62.9983
3784	62.8752
3768	62.945
3752	62.8386
3736	63.0243
3720	62.8746
3704	62.7772
3688	62.7761
3672	62.7147
3656	62.5081
3640	62.7273
3624	62.5832
3608	62.529
3592	62.5156
3576	62.3451
3560	62.2799
3544	62.2867
3528	62.2636
3512	62.4082
3496	62.2731
3480	62.1526
3464	62.077
3448	62.1314
3432	62.0902
3416	61.8027
3400	61.657
3384	61.738
3368	61.7344
3352	61.8097
3336	61.7888
3320	61.7221
3304	61.4762
3288	61.4103
3272	61.513
3256	61.1386
3240	61.3944
3224	60.9832
3208	61.0511
3192	60.9729
3176	60.9369
3160	60.8178
3144	60.5951
3128	60.5754
3112	60.8391
3096	60.5041
3080	60.4343
3064	60.4268
3048	60.3222
3032	60.2788
3016	60.1725
3000	60.1088
2984	60.1555
2968	59.9248
2952	59.7008
2936	59.7433
2920	59.4495
2904	59.4679
2888	59.5225
2872	59.4328
2856	59.084
2840	59.4189
2824	59.2414
2808	59.2153
2792	58.9262
2776	58.961
2760	58.8505
2744	58.7691
2728	58.3661
2712	58.3857
2696	58.3513
2680	58.2235
2664	58.0805
2648	58.1206
2632	57.9087
2616	57.8018
2600	57.8407
2584	57.6283
2568	57.502
2552	57.5966
2536	57.4079
2520	57.2337
2504	56.9592
2488	56.8474
2472	56.6827
2456	56.7898
2440	56.5625
2424	56.3402
2408	56.5228
2392	56.3757
2376	56.173
2360	56.1187
2344	55.9247
2328	55.7225
2312	55.6857
2296	55.5296
2280	55.3886
2264	55.3493
2248	55.2248
2232	55.0253
2216	54.8031
2200	54.7754
2184	54.6959
2168	54.6322
2152	54.2923
2136	54.3264
2120	54.0866
2104	54.0134
2088	53.8989
2072	53.9251
2056	53.7798
2040	53.4134
2024	53.3248
2008	53.2038
1992	53.0438
1976	52.9293
1960	52.7627
1944	52.5013
1928	52.4238
1912	52.3444
1896	52.1562
1880	52.072
1864	51.8624
1848	51.6875
1832	51.731
1816	51.4016
1800	51.318
1784	51.113
1768	51.0165
1752	50.9703
1736	50.6348
1720	50.515
1704	50.3672
1688	50.3163
1672	50.1171
1656	50.0142
1640	49.8945
1624	49.608
1608	49.4738
1592	49.4021
1576	49.0108
1560	48.964
1544	48.8176
1528	48.738
1512	48.7573
1496	48.5383
1480	48.2223
1464	48.0258
1448	47.7737
1432	47.6717
1416	47.5812
1400	47.459
1384	47.2386
1368	47.0324
1352	46.9844
1336	46.9175
1320	46.6998
1304	46.3896
1288	46.4128
1272	46.2704
1256	46.0345
1240	46.0146
1224	45.7688
1208	45.5576
1192	45.4504
1176	45.2813
1160	44.9173
1144	44.885
1128	44.5816
1112	44.4336
1096	44.6153
1080	44.238
1064	43.4613
1048	43.7483
1032	43.9805
1016	43.552
1000	43.2505
984	 43.4034
968	 42.9142
952	 42.7056
936	 42.527
920	 42.3567
904	 42.1484
888	 41.8256
872	 41.7088
856	 41.366
840	 41.151
824	 40.941
808	 40.3422
792	 40.4718
776	 40.0547
760	 39.6352
744	 39.3121
728	 39.2087
712	 38.7596
696	 38.2873
680	 38.1526
664	 38.1068
648	 37.3478
632	 36.5421
616	 36.5026
600	 36.2304
584	 35.7394
568	 35.2075
552	 34.9563
536	 33.9947
520	 33.2382
504	 33.079
488	 31.2629
472	 31.1706
456	 29.9675
440	 29.415
424	 28.8108
408	 22.117
392	 49.5927
376	 32.0782
370	 11.1813

File: C-4040-8_t31.asc
PE IR       SPECTRUM    SPECTRUM    ASCII       PEDS        1.60
  -1
C-A13E~1.ASC
17/03/27
17:01:45.00
17/03/27
17:02:11.00
tln
$C-4040-8_t0031$<tbV0>[-7.8,-7.8,8.0,0.0,27,1,0]
27.028
64

2002,4.07
MIRTGS : RIGHTBACK : INTERNAL 2
MIR : ON : INTERNAL 2
OPTKBR

0.200000
8
8.000000
FILLER
RATIO
SPECTRUM
UNLOCKED 256

DOUBLE
64
COMBINED
1
0
0

0.002000
RATIO

1
0
TRUE
51149
0
LEFT NOT FITTED RIGHT NOT FITTED 0
NONE
NONE
15600
12
4.427000
51148
TRUE
1 0 8 72 0 0 0 0

15798

#HDR
-1
-1
#GR
µM
%T
2.38419e-05
0.0
2.000000
0.002000
12515
8
77.2903
15.0696
#DATA
2.000000	 63.7169
2.084000	 63.7345
2.168000	 64.0652
2.252000	 63.2981
2.336000	 63.4151
2.420000	 63.3347
2.504000	 63.0554
2.588000	 62.7831
2.672000	 62.3304
2.756000	 62.0399
2.840000	 61.5011
2.924000	 60.9918
3.008000	 60.4752
3.092000	 60.2749
3.176000	 59.6877
3.260000	 59.2869
3.344000	 58.8604
3.428000	 58.0628
3.512000	 57.7658
3.596000	 57.3961
3.680000	 56.8942
3.764000	 56.497
3.848000	 55.9565
3.932000	 55.5414
4.016000	 54.9326
4.100000	 54.552
4.184000	 54.1982
4.268000	 53.716
4.352000	 53.3453
4.436000	 52.9154
4.520000	 52.5375
4.604000	 52.0301
4.688000	 51.7277
4.772000	 51.3693
4.856000	 50.9391
4.940000	 50.5272
5.024000	 50.2239
5.108000	 49.9369
5.192000	 49.6181
5.276000	 49.1699
5.359999	 48.9498
5.444000	 48.7099
5.528000	 48.22
5.612000	 48.0181
5.696000	 47.7055
5.780000	 47.274
5.864000	 47.1804
5.948000	 46.8632
6.032000	 46.6022
6.116000	 46.4233
6.200000	 46.0725
6.284000	 45.8637
6.368000	 45.6378
6.452000	 45.4509
6.536000	 45.1754
6.620000	 44.9851
6.704000	 44.7465
6.788000	 44.6137
6.872000	 44.1885
6.956000	 44.2651
7.040000	 43.8935
7.124000	 43.7892
7.208000	 43.5107
7.292000	 43.2904
7.376000	 43.1947
7.460000	 42.8445
7.544000	 42.8009
7.628000	 42.6787
7.712000	 42.3735
7.796000	 42.3184
7.880000	 42.3033
7.964000	 41.9167
8.048000	 41.9355
8.132000	 41.7239
8.216000	 41.6483
8.300000	 41.3525
8.384000	 41.1515
8.468000	 40.9514
8.552000	 41.1096
8.635999	 40.9163
8.719999	 40.7062
8.804000	 40.5073
8.888000	 40.7577
8.972000	 40.7208
9.056000	 39.9312
9.140000	 39.8372
9.224000	 39.6332
9.308000	 39.5282
9.391999	 39.37
9.475999	 39.5561
9.560000	 39.5856
9.644000	 39.125
9.728000	 39.4648
9.812000	 39.3647
9.896000	 38.8576
9.980000	 38.8728
10.064	38.7655
10.148	38.7947
10.232	38.5249
10.316	38.4921
10.4	38.2246
10.484	38.2965
10.568	38.2894
10.652	38.1414
10.736	37.9875
10.82	37.6796
10.904	37.801
10.988	37.5762
11.072	37.5087
11.156	37.347
11.24	37.3375
11.324	37.3074
11.408	37.171
11.492	37.0848
11.576	37.0656
11.66	37.0032
11.744	36.7975
11.828	36.7694
11.912	36.4903
11.996	36.5176
12.08	36.3456
12.164	36.1914
12.248	36.1335
12.332	35.9992
12.416	36.0733
12.5	35.9118
12.584	35.7439
12.668	35.575
12.752	35.4799
12.836	35.5073
12.92	35.2282
13.004	35.1063
13.088	35.1373
13.172	34.7639
13.256	34.4529
13.34	34.3726
13.424	34.2646
13.508	34.3833
13.592	34.3339
13.676	34.3229
13.76	34.3458
13.844	34.1585
13.928	33.9876
14.012	33.8478
14.096	33.847
14.18	33.9309
14.264	33.8366
14.348	33.6065
14.432	33.4342
14.516	33.3908
14.6	33.4419
14.684	33.4826
14.768	33.3756
14.852	33.1204
14.936	32.8258
15.02	32.548
15.104	32.4146
15.188	32.4679
15.272	32.5153
15.356	32.4714
15.44	32.394
15.524	32.255
15.608	32.0385
15.692	31.858
15.776	31.7853
15.86	31.749
15.944	31.6758
16.028	31.5637
16.112	31.4335
16.196	31.3606
16.28	31.3955
16.364	31.4025
16.448	31.2419
16.532	31.02
16.616	30.8672
16.7	30.7299
16.784	30.5761
16.868	30.4894
16.952	30.5101
17.036	30.58
17.12	30.6089
17.204	30.5255
17.288	30.3431
17.372	30.1657
17.456	30.0545
17.54	29.9486
17.624	29.7702
17.708	29.5387
17.792	29.3346
17.876	29.2098
17.96	29.1596
18.044	29.1459
18.128	29.1159
18.212	29.0159
18.296	28.81
18.38	28.516
18.464	28.2268
18.548	28.065
18.632	28.0916
18.716	28.265
18.8	28.492
18.884	28.6867
18.968	28.7786
19.052	28.7144
19.136	28.4916
19.22	28.1782
19.304	27.862
19.388	27.5854
19.472	27.3358
19.556	27.089
19.64	26.8495
19.724	26.6561
19.808	26.5496
19.892	26.5384
19.976	26.5901
20.06	26.6655
20.144	26.7439
20.228	26.8243
20.312	26.9041
20.396	26.9577
20.48	26.9425
20.564	26.83
20.648	26.636
20.732	26.4245
20.816	26.2589
20.9	26.1596
20.984	26.0965
21.068	26.0272
21.152	25.9434
21.236	25.8726
21.32	25.8371
21.404	25.8094
21.488	25.7062
21.572	25.4459
21.656	25.0216
21.74	24.525
21.824	24.1157
21.908	23.9329
21.992	24.013
22.076	24.2767
22.16	24.5664
22.244	24.7254
22.328	24.6734
22.412	24.4326
22.496	24.1161
22.58	23.8652
22.664	23.7906
22.748	23.9234
22.832	24.205
22.916	24.5103
23	24.6799
23.084	24.6003
23.168	24.2462
23.252	23.6931
23.336	23.0894
23.42	22.5909
23.504	22.2898
23.588	22.1821
23.672	22.1948
23.756	22.2233
23.84	22.1906
23.924	22.0751
24.008	21.8686
24.092	21.5479
24.176	21.1317
24.26	20.6647
24.344	20.2662
24.428	20.1114
24.512	20.3718
24.596	21.1174
24.68	22.2197
24.764	23.3308
24.848	24.0621
24.932	24.0747
25.016	23.2446
25.1	21.7302
25.184	19.8445
25.268	17.934
25.352	16.3031
25.436	15.2667
25.52	15.1708
25.604	16.3778
25.688	19.1295
25.772	23.4121
25.856	28.9117
25.94	34.9794
26.024	40.7303
26.108	45.3104
26.192	48.2175
26.276	49.4361
26.36	49.4201
26.444	48.947
26.528	48.8464
26.612	49.6957
26.696	51.7943
26.78	55.1796
26.864	59.5948
26.948	64.5438
27.028	69.06