Folder: Masteroppgave/Bakgrunnsmateriale/MATLAB/FTIR/ftir_data/subBb/Mapping_121 (part 18)

File: C-4040-8_t36_cm-1.asc
PE IR       SPECTRUM    SPECTRUM    ASCII       PEDS        1.60
  -1
C-1B6E~1.ASC
17/03/27
17:25:27.00
17/03/27
17:25:27.00
tln
$C-4040-8_t0036$<tbV0>[7.8,-5.2,8.0,0.0,27,1,0]
370
64

2002,4.07
MIRTGS : RIGHTBACK : INTERNAL 2
MIR : ON : INTERNAL 2
OPTKBR

0.200000
8
8.000000
FILLER
RATIO
SPECTRUM
UNLOCKED 256

DOUBLE
64
COMBINED
1
0
0

1.000000
RATIO

1
0
TRUE
51149
0
LEFT NOT FITTED RIGHT NOT FITTED 0
NONE
NONE
15600
12
4.427000
51148
TRUE
1 0 8 72 0 0 0 0

15798

#HDR
-1
-1
#GR
CM-1
%T
2.38419e-05
0.0
5000
-1.000000
4631
8
103.776
43.2876
#DATA
5000	64.4344
4984	64.2968
4968	63.6582
4952	64.8317
4936	64.4299
4920	64.1968
4904	64.5244
4888	63.9405
4872	64.4526
4856	64.1683
4840	64.2212
4824	64.5071
4808	64.2022
4792	64.5207
4776	64.2544
4760	64.3396
4744	64.4968
4728	64.3807
4712	64.3286
4696	64.5546
4680	64.2007
4664	64.4499
4648	64.4471
4632	64.1829
4616	64.5842
4600	64.4006
4584	64.199
4568	64.2262
4552	64.1915
4536	63.6228
4520	64.2821
4504	63.9105
4488	64.2559
4472	63.7311
4456	64.1862
4440	63.8758
4424	63.6693
4408	63.8378
4392	64.7608
4376	63.53
4360	68.8425
4344	64.4526
4328	63.5309
4312	64.2944
4296	64.0736
4280	64.1554
4264	63.9051
4248	64.029
4232	64.3119
4216	64.1924
4200	64.2403
4184	63.9041
4168	64.1406
4152	64.1048
4136	64.1315
4120	64.0211
4104	63.7831
4088	64.1182
4072	64.1148
4056	64.3018
4040	64.3291
4024	64.0108
4008	64.0171
3992	64.1106
3976	64.0798
3960	64.1095
3944	63.9712
3928	63.9903
3912	63.8407
3896	64.2127
3880	64.1906
3864	64.0693
3848	63.8725
3832	64.2033
3816	63.9165
3800	63.9005
3784	63.7386
3768	63.8391
3752	64.0058
3736	63.9344
3720	64.202
3704	63.6425
3688	64.0023
3672	63.7501
3656	63.7741
3640	63.7262
3624	63.8356
3608	63.8173
3592	63.7742
3576	63.7694
3560	63.6081
3544	63.4612
3528	63.7899
3512	63.8298
3496	63.6108
3480	63.6618
3464	63.6986
3448	63.713
3432	63.5489
3416	63.4961
3400	63.3589
3384	63.4379
3368	63.5024
3352	63.4356
3336	63.6525
3320	63.4337
3304	63.3318
3288	63.1954
3272	63.4773
3256	63.4496
3240	63.2199
3224	63.1985
3208	63.2024
3192	63.1848
3176	63.1098
3160	63.0701
3144	63.0982
3128	62.7223
3112	63.3462
3096	63.0207
3080	63.0284
3064	62.9617
3048	62.7699
3032	62.9027
3016	62.7407
3000	62.7735
2984	62.7948
2968	62.6926
2952	62.6332
2936	62.5736
2920	62.1845
2904	62.4778
2888	62.4501
2872	62.529
2856	62.4576
2840	62.6232
2824	62.409
2808	62.5835
2792	62.494
2776	62.3343
2760	62.4367
2744	62.3636
2728	62.2938
2712	62.2444
2696	62.3798
2680	62.1056
2664	62.097
2648	62.0604
2632	62.101
2616	61.9701
2600	61.8737
2584	61.8583
2568	61.8804
2552	61.8453
2536	61.7478
2520	61.7773
2504	61.7213
2488	61.6026
2472	61.6395
2456	61.571
2440	61.3925
2424	61.226
2408	61.1682
2392	61.4331
2376	61.2933
2360	61.2531
2344	61.256
2328	61.1331
2312	61.1505
2296	61.0651
2280	61.0622
2264	61.0135
2248	61.044
2232	60.8429
2216	60.7647
2200	60.8556
2184	60.783
2168	60.6279
2152	60.4886
2136	60.5897
2120	60.5937
2104	60.4965
2088	60.6323
2072	60.2896
2056	60.1835
2040	60.2734
2024	60.2323
2008	60.2643
1992	60.2009
1976	60.1569
1960	60.0881
1944	59.9534
1928	60.0188
1912	59.9614
1896	59.8382
1880	59.8253
1864	59.7613
1848	59.8198
1832	59.6875
1816	59.4897
1800	59.5008
1784	59.4374
1768	59.393
1752	59.4451
1736	59.2522
1720	59.2041
1704	59.2458
1688	59.1047
1672	59.067
1656	59.0183
1640	58.8784
1624	58.7355
1608	58.8091
1592	58.7865
1576	58.7179
1560	58.6442
1544	58.5566
1528	58.6192
1512	58.7116
1496	58.5692
1480	58.5764
1464	58.0939
1448	58.4705
1432	58.2956
1416	58.1329
1400	57.9585
1384	58.0751
1368	57.808
1352	57.9371
1336	57.9341
1320	57.8124
1304	57.8584
1288	57.7427
1272	57.6926
1256	57.8177
1240	57.7397
1224	57.6005
1208	57.3953
1192	57.4396
1176	57.4612
1160	57.2846
1144	57.1551
1128	57.3151
1112	57.1279
1096	57.2292
1080	57.3028
1064	56.8592
1048	57.0606
1032	57.0065
1016	56.9954
1000	56.6063
984	 57.0548
968	 56.7439
952	 56.6982
936	 56.5873
920	 56.6953
904	 56.4263
888	 56.4614
872	 56.2954
856	 56.17
840	 55.8821
824	 55.97
808	 55.8854
792	 56.0664
776	 55.7087
760	 55.6416
744	 55.3411
728	 55.4403
712	 55.3643
696	 55.2509
680	 55.0596
664	 54.8293
648	 54.6313
632	 54.7867
616	 54.4147
600	 54.4057
584	 54.0874
568	 53.8506
552	 53.3977
536	 53.5435
520	 53.7129
504	 53.8882
488	 53.3411
472	 53.1493
456	 51.2712
440	 51.1914
424	 50.2339
408	 44.5331
392	 60.5756
376	 103.677
370	 56.5584

File: C-4040-8_t37.asc
PE IR       SPECTRUM    SPECTRUM    ASCII       PEDS        1.60
  -1
C-B136~1.ASC
17/03/27
17:30:04.00
17/03/27
17:30:30.00
tln
$C-4040-8_t0037$<tbV0>[5.2,-5.2,8.0,0.0,27,1,0]
27.028
64

2002,4.07
MIRTGS : RIGHTBACK : INTERNAL 2
MIR : ON : INTERNAL 2
OPTKBR

0.200000
8
8.000000
FILLER
RATIO
SPECTRUM
UNLOCKED 256

DOUBLE
64
COMBINED
1
0
0

0.002000
RATIO

1
0
TRUE
51149
0
LEFT NOT FITTED RIGHT NOT FITTED 0
NONE
NONE
15600
12
4.427000
51148
TRUE
1 0 8 72 0 0 0 0

15798

#HDR
-1
-1
#GR
µM
%T
2.38419e-05
0.0
2.000000
0.002000
12515
8
64.8404
-5.943586
#DATA
2.000000	 63.0311
2.084000	 62.6339
2.168000	 62.6269
2.252000	 63.1637
2.336000	 62.6558
2.420000	 61.6885
2.504000	 60.7238
2.588000	 60.525
2.672000	 59.9496
2.756000	 59.0828
2.840000	 58.4384
2.924000	 57.8095
3.008000	 57.2578
3.092000	 56.632
3.176000	 55.6537
3.260000	 55.0253
3.344000	 54.2961
3.428000	 53.2586
3.512000	 52.668
3.596000	 51.949
3.680000	 51.2627
3.764000	 50.5254
3.848000	 49.8356
3.932000	 49.2068
4.016000	 48.3641
4.100000	 47.7055
4.184000	 47.2524
4.268000	 46.4963
4.352000	 45.9041
4.436000	 45.346
4.520000	 44.8364
4.604000	 44.2585
4.688000	 43.6045
4.772000	 43.1846
4.856000	 42.436
4.940000	 42.2863
5.024000	 41.685
5.108000	 41.2243
5.192000	 40.8095
5.276000	 40.3384
5.359999	 39.9341
5.444000	 39.5755
5.528000	 38.9991
5.612000	 38.6477
5.696000	 38.413
5.780000	 37.787
5.864000	 37.6309
5.948000	 37.1904
6.032000	 36.9012
6.116000	 36.583
6.200000	 36.3017
6.284000	 35.9508
6.368000	 35.6684
6.452000	 35.4204
6.536000	 35.1652
6.620000	 34.7949
6.704000	 34.5938
6.788000	 34.3358
6.872000	 34.2745
6.956000	 33.7324
7.040000	 33.6946
7.124000	 33.3488
7.208000	 33.2637
7.292000	 32.9027
7.376000	 32.7379
7.460000	 32.4713
7.544000	 32.1423
7.628000	 32.0382
7.712000	 31.8268
7.796000	 31.8089
7.880000	 31.4936
7.964000	 31.372
8.048000	 31.2463
8.132000	 31.029
8.216000	 30.8327
8.300000	 30.6955
8.384000	 30.692
8.468000	 30.3607
8.552000	 30.0784
8.635999	 29.8611
8.719999	 29.7137
8.804000	 29.5015
8.888000	 29.1586
8.972000	 29.5598
9.056000	 29.2363
9.140000	 29.1241
9.224000	 29.3047
9.308000	 28.7927
9.391999	 28.4209
9.475999	 28.4539
9.560000	 28.2455
9.644000	 28.273
9.728000	 28.1772
9.812000	 28.0089
9.896000	 28.0487
9.980000	 27.9025
10.064	27.6944
10.148	27.3842
10.232	27.2228
10.316	27.0707
10.4	27.0896
10.484	27.0684
10.568	26.715
10.652	26.6737
10.736	26.7151
10.82	26.3085
10.904	26.2601
10.988	26.4495
11.072	25.9579
11.156	25.6388
11.24	25.7023
11.324	25.7305
11.408	25.6643
11.492	25.5149
11.576	25.461
11.66	25.3166
11.744	25.1061
11.828	24.9397
11.912	24.8611
11.996	24.8425
12.08	24.8372
12.164	24.6689
12.248	24.6314
12.332	24.5087
12.416	24.2273
12.5	24.1387
12.584	24.0383
12.668	24.0927
12.752	24.099
12.836	23.9463
12.92	23.6219
13.004	23.4584
13.088	23.5
13.172	23.4582
13.256	23.0355
13.34	22.8173
13.424	22.9755
13.508	23.0079
13.592	23.0549
13.676	23.184
13.76	23.0252
13.844	22.6527
13.928	22.473
14.012	22.3832
14.096	22.2158
14.18	21.98
14.264	21.6344
14.348	21.4498
14.432	21.4219
14.516	21.382
14.6	21.3803
14.684	21.4269
14.768	21.2432
14.852	20.8731
14.936	20.7931
15.02	20.9478
15.104	20.9118
15.188	20.6905
15.272	20.5225
15.356	20.4297
15.44	20.3549
15.524	20.2987
15.608	20.2231
15.692	20.1374
15.776	20.0767
15.86	19.9503
15.944	19.6908
16.028	19.4962
16.112	19.5161
16.196	19.5388
16.28	19.3555
16.364	19.0988
16.448	19.0274
16.532	19.2039
16.616	19.3899
16.7	19.2917
16.784	18.9574
16.868	18.7099
16.952	18.7138
17.036	18.8152
17.12	18.8046
17.204	18.6641
17.288	18.482
17.372	18.2886
17.456	18.0845
17.54	17.9146
17.624	17.7973
17.708	17.688
17.792	17.5733
17.876	17.4871
17.96	17.4305
18.044	17.3602
18.128	17.2455
18.212	17.0917
18.296	16.9223
18.38	16.7766
18.464	16.6835
18.548	16.615
18.632	16.5057
18.716	16.3365
18.8	16.1821
18.884	16.1503
18.968	16.2519
19.052	16.3503
19.136	16.2913
19.22	16.0691
19.304	15.8282
19.388	15.6973
19.472	15.6724
19.556	15.6719
19.64	15.6647
19.724	15.6885
19.808	15.7571
19.892	15.8101
19.976	15.7749
20.06	15.6601
20.144	15.5547
20.228	15.5201
20.312	15.4907
20.396	15.3145
20.48	14.9079
20.564	14.3638
20.648	13.8919
20.732	13.655
20.816	13.6533
20.9	13.7568
20.984	13.8321
21.068	13.8331
21.152	13.7899
21.236	13.745
21.32	13.7295
21.404	13.7612
21.488	13.847
21.572	13.9729
21.656	14.0992
21.74	14.1806
21.824	14.2
21.908	14.1796
21.992	14.1617
22.076	14.1846
22.16	14.2595
22.244	14.3658
22.328	14.4556
22.412	14.4571
22.496	14.2867
22.58	13.9002
22.664	13.3315
22.748	12.7175
22.832	12.2399
22.916	12.042
23	12.1296
23.084	12.3538
23.168	12.4648
23.252	12.2713
23.336	11.721
23.42	10.9227
23.504	10.0875
23.588	9.428815
23.672	9.064695
23.756	8.976445
23.84	9.044500
23.924	9.113950
24.008	9.082334
24.092	8.945477
24.176	8.778862
24.26	8.672353
24.344	8.620990
24.428	8.508348
24.512	8.203778
24.596	7.689725
24.68	7.082836
24.764	6.585622
24.848	6.427013
24.932	6.811483
25.016	7.804970
25.1	9.338257
25.184	10.9914
25.268	12.1702
25.352	12.4556
25.436	11.7221
25.52	10.3857
25.604	9.293765
25.688	9.092719
25.772	9.749726
25.856	10.5337
25.94	10.497
26.024	8.915071
26.108	5.721481
26.192	1.532577
26.276	-2.548424
26.36	-5.315477
26.444	-5.836991
26.528	-3.745460
26.612	0.689085
26.696	6.735346
26.78	13.3899
26.864	19.9726
26.948	26.4733
27.028	33.1064

File: C-4040-8_t37_cm-1.asc
PE IR       SPECTRUM    SPECTRUM    ASCII       PEDS        1.60
  -1
C-1BEF~1.ASC
17/03/27
17:30:04.00
17/03/27
17:30:04.00
tln
$C-4040-8_t0037$<tbV0>[5.2,-5.2,8.0,0.0,27,1,0]
370
64

2002,4.07
MIRTGS : RIGHTBACK : INTERNAL 2
MIR : ON : INTERNAL 2
OPTKBR

0.200000
8
8.000000
FILLER
RATIO
SPECTRUM
UNLOCKED 256

DOUBLE
64
COMBINED
1
0
0

1.000000
RATIO

1
0
TRUE
51149
0
LEFT NOT FITTED RIGHT NOT FITTED 0
NONE
NONE
15600
12
4.427000
51148
TRUE
1 0 8 72 0 0 0 0

15798

#HDR
-1
-1
#GR
CM-1
%T
2.38419e-05
0.0
5000
-1.000000
4631
8
65.1172
-5.736422
#DATA
5000	63.0311
4984	62.5326
4968	62.7491
4952	63.1642
4936	62.8093
4920	62.8499
4904	63.0702
4888	63.3042
4872	63.452
4856	62.4154
4840	62.8202
4824	63.1213
4808	62.8554
4792	62.5853
4776	62.3184
4760	62.4549
4744	62.5948
4728	62.3737
4712	62.6509
4696	62.2232
4680	62.5281
4664	62.2116
4648	62.0684
4632	62.2581
4616	62.5888
4600	62.4861
4584	62.1899
4568	62.3411
4552	62.6407
4536	62.4972
4520	62.2511
4504	63.0188
4488	63.1581
4472	63.0237
4456	63.0158
4440	63.1759
4424	63.2007
4408	63.1353
4392	63.9623
4376	63.9174
4360	40.6622
4344	64.6146
4328	62.8524
4312	63.63
4296	62.9137
4280	62.7127
4264	62.5201
4248	62.4715
4232	62.567
4216	62.1452
4200	61.8592
4184	61.3387
4168	61.2475
4152	61.3212
4136	61.8616
4120	61.2139
4104	60.8432
4088	60.9027
4072	60.9956
4056	60.607
4040	60.902
4024	60.7026
4008	60.7975
3992	60.717
3976	60.6848
3960	60.7676
3944	60.7095
3928	60.4783
3912	60.6425
3896	60.5374
3880	60.7244
3864	60.5245
3848	60.6662
3832	60.2596
3816	60.2968
3800	60.1971
3784	59.9309
3768	60.0367
3752	60.0376
3736	59.9411
3720	59.9065
3704	59.7366
3688	59.382
3672	59.4035
3656	59.1908
3640	59.2028
3624	59.2695
3608	59.1068
3592	58.9001
3576	58.8914
3560	58.3618
3544	58.5858
3528	58.4561
3512	58.6443
3496	58.5475
3480	58.3395
3464	58.147
3448	58.032
3432	58.2474
3416	57.8312
3400	57.656
3384	57.5941
3368	57.4734
3352	57.4248
3336	57.4958
3320	57.1574
3304	57.0047
3288	56.6546
3272	56.7905
3256	56.788
3240	56.7024
3224	56.3222
3208	56.0767
3192	56.1472
3176	55.9418
3160	55.8539
3144	55.6599
3128	55.5655
3112	55.7149
3096	55.1807
3080	55.0938
3064	54.9552
3048	54.7254
3032	54.6241
3016	54.5223
3000	54.4245
2984	54.1395
2968	54.0096
2952	53.6726
2936	53.6885
2920	53.256
2904	53.2531
2888	53.1622
2872	53.0222
2856	52.7167
2840	52.8399
2824	52.4595
2808	52.3731
2792	52.1214
2776	51.8483
2760	51.7071
2744	51.6962
2728	51.2414
2712	51.124
2696	50.9839
2680	50.7166
2664	50.6821
2648	50.3612
2632	50.2369
2616	49.9367
2600	49.8461
2584	49.6707
2568	49.4913
2552	49.2348
2536	49.1409
2520	49.0089
2504	48.7359
2488	48.3493
2472	48.1893
2456	48.2493
2440	47.7359
2424	47.5233
2408	47.1688
2392	47.2461
2376	46.9572
2360	46.8617
2344	46.5
2328	46.2777
2312	46.1
2296	45.8558
2280	45.6287
2264	45.4558
2248	45.2705
2232	45.096
2216	44.8377
2200	44.6671
2184	44.5022
2168	44.1086
2152	43.7765
2136	43.6414
2120	43.4114
2104	43.3288
2088	43.16
2072	42.6064
2056	42.524
2040	42.4585
2024	42.2804
2008	42.0377
1992	41.7035
1976	41.6196
1960	41.2452
1944	41.0507
1928	40.8371
1912	40.5705
1896	40.3497
1880	40.1905
1864	39.93
1848	39.7418
1832	39.4655
1816	39.1788
1800	38.8791
1784	38.6757
1768	38.5148
1752	38.3483
1736	37.91
1720	37.7036
1704	37.5994
1688	37.4061
1672	37.2116
1656	36.8638
1640	36.6795
1624	36.4721
1608	36.254
1592	35.9466
1576	35.7837
1560	35.4479
1544	35.3394
1528	35.1388
1512	34.8119
1496	34.6444
1480	34.432
1464	34.2991
1448	34.0108
1432	33.7159
1416	33.538
1400	33.3508
1384	33.1751
1368	32.856
1352	32.6739
1336	32.4626
1320	32.0552
1304	31.9767
1288	31.8176
1272	31.5524
1256	31.378
1240	31.2031
1224	30.9041
1208	30.7355
1192	30.6698
1176	30.3111
1160	29.8488
1144	29.7523
1128	29.1819
1112	29.5815
1096	29.0615
1080	29.0495
1064	28.4105
1048	28.3534
1032	28.3411
1016	28.0494
1000	27.8636
984	 27.3458
968	 27.0661
952	 26.9924
936	 26.7238
920	 26.2114
904	 26.0314
888	 25.7162
872	 25.5477
856	 25.2665
840	 24.8672
824	 24.7317
808	 24.3289
792	 24.0617
776	 23.7479
760	 23.4942
744	 22.9997
728	 23.1073
712	 22.3218
696	 21.4376
680	 21.4126
664	 20.9672
648	 20.3609
632	 20.0238
616	 19.4817
600	 19.3715
584	 18.8011
568	 17.8205
552	 17.2648
536	 16.4606
520	 16.0358
504	 15.785
488	 14.836
472	 13.7695
456	 14.1728
440	 12.8633
424	 9.448027
408	 8.214592
392	 10.5396
376	 -0.319862
370	 33.1064

File: C-4040-8_t38.asc
PE IR       SPECTRUM    SPECTRUM    ASCII       PEDS        1.60
  -1
C-C13A~1.ASC
17/03/27
17:34:40.00
17/03/27
17:35:06.00
tln
$C-4040-8_t0038$<tbV0>[2.6,-5.2,8.0,0.0,27,1,0]
27.028
64

2002,4.07
MIRTGS : RIGHTBACK : INTERNAL 2
MIR : ON : INTERNAL 2
OPTKBR

0.200000
8
8.000000
FILLER
RATIO
SPECTRUM
UNLOCKED 256

DOUBLE
64
COMBINED
1
0
0

0.002000
RATIO

1
0
TRUE
51149
0
LEFT NOT FITTED RIGHT NOT FITTED 0
NONE
NONE
15600
12
4.427000
51148
TRUE
1 0 8 72 0 0 0 0

15798

#HDR
-1
-1
#GR
µM
%T
2.38419e-05
0.0
2.000000
0.002000
12515
8
75.844
3.986572
#DATA
2.000000	 63.8367
2.084000	 62.7659
2.168000	 63.4196
2.252000	 62.3405
2.336000	 62.0377
2.420000	 61.949
2.504000	 61.7037
2.588000	 61.1831
2.672000	 60.6311
2.756000	 60.0494
2.840000	 59.3676
2.924000	 58.8023
3.008000	 58.1655
3.092000	 57.499
3.176000	 56.8405
3.260000	 56.3581
3.344000	 55.5903
3.428000	 54.449
3.512000	 54.0218
3.596000	 53.5113
3.680000	 52.9053
3.764000	 52.2128
3.848000	 51.4458
3.932000	 50.9897
4.016000	 50.2455
4.100000	 49.585
4.184000	 49.0936
4.268000	 48.5059
4.352000	 47.7541
4.436000	 47.3408
4.520000	 46.7347
4.604000	 46.2369
4.688000	 45.7436
4.772000	 45.1709
4.856000	 44.958
4.940000	 44.2936
5.024000	 43.7744
5.108000	 43.4434
5.192000	 42.9768
5.276000	 42.3466
5.359999	 42.115
5.444000	 41.7094
5.528000	 41.3284
5.612000	 40.8697
5.696000	 40.6543
5.780000	 40.1502
5.864000	 39.8313
5.948000	 39.5693
6.032000	 39.2065
6.116000	 38.9382
6.200000	 38.5456
6.284000	 38.2634
6.368000	 37.9411
6.452000	 37.5913
6.536000	 37.3201
6.620000	 37.1804
6.704000	 36.7852
6.788000	 36.4986
6.872000	 36.3361
6.956000	 36.0166
7.040000	 35.8672
7.124000	 35.6177
7.208000	 35.4337
7.292000	 35.1258
7.376000	 34.9195
7.460000	 34.8326
7.544000	 34.4688
7.628000	 34.3323
7.712000	 34.2145
7.796000	 34.0665
7.880000	 33.7492
7.964000	 33.6871
8.048000	 33.4187
8.132000	 33.2135
8.216000	 32.9122
8.300000	 32.7755
8.384000	 32.7113
8.468000	 32.6236
8.552000	 32.3744
8.635999	 32.1107
8.719999	 32.1146
8.804000	 31.722
8.888000	 31.6926
8.972000	 31.3229
9.056000	 31.7062
9.140000	 31.3945
9.224000	 31.016
9.308000	 30.8889
9.391999	 30.8429
9.475999	 30.6691
9.560000	 30.7011
9.644000	 30.3678
9.728000	 30.3732
9.812000	 30.1064
9.896000	 29.9668
9.980000	 29.8118
10.064	29.493
10.148	29.6199
10.232	29.6405
10.316	29.4779
10.4	29.1487
10.484	28.9691
10.568	28.9792
10.652	28.7391
10.736	28.6954
10.82	28.5246
10.904	28.513
10.988	28.194
11.072	28.2397
11.156	28.1499
11.24	27.9874
11.324	27.837
11.408	28.0001
11.492	27.875
11.576	27.5301
11.66	27.3923
11.744	27.0364
11.828	27.2076
11.912	27.2022
11.996	27.0674
12.08	26.8445
12.164	26.744
12.248	26.7406
12.332	26.6981
12.416	26.521
12.5	26.3788
12.584	26.2712
12.668	26.3289
12.752	26.2807
12.836	26.0303
12.92	25.7618
13.004	25.5169
13.088	25.3964
13.172	25.3984
13.256	25.2498
13.34	25.0599
13.424	25.0522
13.508	24.9459
13.592	24.9918
13.676	25.0724
13.76	24.7541
13.844	24.653
13.928	24.9172
14.012	24.9367
14.096	24.6445
14.18	24.3075
14.264	24.0959
14.348	23.935
14.432	23.772
14.516	23.5288
14.6	23.2716
14.684	23.1956
14.768	23.1733
14.852	23.0796
14.936	23.0673
15.02	23.0891
15.104	22.8973
15.188	22.6184
15.272	22.5605
15.356	22.6505
15.44	22.648
15.524	22.5474
15.608	22.4765
15.692	22.4659
15.776	22.3719
15.86	22.1093
15.944	21.8818
16.028	21.8572
16.112	21.858
16.196	21.6904
16.28	21.4515
16.364	21.289
16.448	21.1595
16.532	20.9921
16.616	20.8283
16.7	20.744
16.784	20.7971
16.868	20.9623
16.952	21.0495
17.036	20.8758
17.12	20.5206
17.204	20.2056
17.288	19.9998
17.372	19.835
17.456	19.7028
17.54	19.65
17.624	19.654
17.708	19.6714
17.792	19.7286
17.876	19.8199
17.96	19.8365
18.044	19.7293
18.128	19.624
18.212	19.627
18.296	19.6307
18.38	19.4341
18.464	19.0031
18.548	18.5243
18.632	18.2355
18.716	18.2276
18.8	18.3958
18.884	18.5652
18.968	18.6551
19.052	18.7217
19.136	18.8204
19.22	18.8831
19.304	18.7779
19.388	18.4817
19.472	18.1338
19.556	17.9095
19.64	17.8629
19.724	17.9074
19.808	17.9197
19.892	17.8323
19.976	17.652
20.06	17.4295
20.144	17.2167
20.228	17.0388
20.312	16.8941
20.396	16.7741
20.48	16.686
20.564	16.6426
20.648	16.629
20.732	16.589
20.816	16.4553
20.9	16.2138
20.984	15.934
21.068	15.7275
21.152	15.6654
21.236	15.723
21.32	15.7977
21.404	15.7806
21.488	15.6187
21.572	15.3397
21.656	15.0178
21.74	14.7434
21.824	14.5883
21.908	14.5749
21.992	14.6728
22.076	14.8121
22.16	14.9095
22.244	14.9198
22.328	14.8486
22.412	14.74
22.496	14.6429
22.58	14.5721
22.664	14.5185
22.748	14.5019
22.832	14.6075
22.916	14.9526
23	15.6202
23.084	16.5539
23.168	17.5343
23.252	18.2822
23.336	18.5464
23.42	18.212
23.504	17.3507
23.588	16.187
23.672	14.9961
23.756	14.0468
23.84	13.5014
23.924	13.3959
24.008	13.6609
24.092	14.148
24.176	14.6579
24.26	14.9643
24.344	14.8236
24.428	14.0569
24.512	12.5794
24.596	10.4928
24.68	8.111831
24.764	5.919322
24.848	4.398810
24.932	4.016882
25.016	5.046093
25.1	7.446756
25.184	10.8689
25.268	14.7284
25.352	18.36
25.436	21.1754
25.52	22.8465
25.604	23.3372
25.688	22.8018
25.772	21.5901
25.856	20.1869
25.94	18.9475
26.024	18.1274
26.108	17.9375
26.192	18.5292
26.276	19.972
26.36	22.3473
26.444	25.2992
26.528	28.0549
26.612	29.6752
26.696	29.4383
26.78	27.1756
26.864	23.414
26.948	19.0554
27.028	15.0346

File: C-4040-8_t38_cm-1.asc
PE IR       SPECTRUM    SPECTRUM    ASCII       PEDS        1.60
  -1
C-1B65~1.ASC
17/03/27
17:34:40.00
17/03/27
17:34:40.00
tln
$C-4040-8_t0038$<tbV0>[2.6,-5.2,8.0,0.0,27,1,0]
370
64

2002,4.07
MIRTGS : RIGHTBACK : INTERNAL 2
MIR : ON : INTERNAL 2
OPTKBR

0.200000
8
8.000000
FILLER
RATIO
SPECTRUM
UNLOCKED 256

DOUBLE
64
COMBINED
1
0
0

1.000000
RATIO

1
0
TRUE
51149
0
LEFT NOT FITTED RIGHT NOT FITTED 0
NONE
NONE
15600
12
4.427000
51148
TRUE
1 0 8 72 0 0 0 0

15798

#HDR
-1
-1
#GR
CM-1
%T
2.38419e-05
0.0
5000
-1.000000
4631
8
76.201
4.040956
#DATA
5000	63.8367
4984	63.0793
4968	63.2613
4952	63.4215
4936	63.2368
4920	63.2732
4904	63.5971
4888	63.2799
4872	63.0402
4856	62.8194
4840	63.1425
4824	63.3739
4808	62.9856
4792	62.8778
4776	63.043
4760	63.2015
4744	63.5472
4728	63.1356
4712	63.2993
4696	63.3498
4680	63.1078
4664	62.9303
4648	63.1888
4632	63.5558
4616	63.2397
4600	63.2402
4584	63.0576
4568	63.0343
4552	62.8148
4536	62.216
4520	62.4954
4504	62.5821
4488	62.9286
4472	62.4274
4456	62.8004
4440	62.3281
4424	61.9539
4408	62.3521
4392	62.8821
4376	62.6608
4360	63.9736
4344	70.5813
4328	62.0932
4312	61.6716
4296	62.1313
4280	62.0708
4264	62.5492
4248	61.8508
4232	61.9891
4216	62.198
4200	61.9314
4184	61.6816
4168	62.3342
4152	62.2213
4136	62.0009
4120	61.9773
4104	61.7132
4088	61.8356
4072	61.9942
4056	62.03
4040	62.0424
4024	62.0034
4008	61.545
3992	61.742
3976	61.7709
3960	61.5485
3944	61.3045
3928	61.2057
3912	61.2487
3896	61.1842
3880	61.3924
3864	61.1833
3848	61.3319
3832	60.8792
3816	60.9448
3800	60.8225
3784	60.7421
3768	60.8135
3752	60.9333
3736	60.6594
3720	60.6319
3704	60.4889
3688	60.4946
3672	60.1665
3656	60.3397
3640	60.2634
3624	60.1141
3608	60.0829
3592	59.9012
3576	59.9348
3560	59.9147
3544	59.6203
3528	59.6553
3512	59.6646
3496	59.4555
3480	59.2994
3464	59.4985
3448	59.3255
3432	59.1651
3416	58.7805
3400	58.8077
3384	58.5366
3368	58.6232
3352	58.6519
3336	58.4001
3320	58.2511
3304	58.4014
3288	58.154
3272	57.908
3256	57.6367
3240	57.6941
3224	57.6431
3208	57.3078
3192	57.3871
3176	56.9799
3160	56.8739
3144	56.8277
3128	56.5537
3112	56.8502
3096	56.4134
3080	56.4262
3064	56.2592
3048	55.9046
3032	55.8352
3016	55.7106
3000	55.6529
2984	55.4536
2968	55.3769
2952	55.0917
2936	54.8958
2920	54.4459
2904	54.6862
2888	54.4944
2872	54.5953
2856	54.0666
2840	54.2263
2824	54.0766
2808	53.97
2792	53.6987
2776	53.4615
2760	53.4453
2744	53.1261
2728	53.0216
2712	52.7953
2696	52.7336
2680	52.3918
2664	52.2926
2648	52.1671
2632	51.9893
2616	51.7272
2600	51.4934
2584	51.366
2568	51.1316
2552	50.997
2536	50.862
2520	50.6573
2504	50.4569
2488	50.2183
2472	49.9195
2456	49.7926
2440	49.6196
2424	49.4911
2408	49.0775
2392	49.0763
2376	48.8736
2360	48.6887
2344	48.5145
2328	48.3387
2312	47.961
2296	47.775
2280	47.6732
2264	47.3726
2248	47.2511
2232	47.0576
2216	46.7721
2200	46.5283
2184	46.4633
2168	46.1611
2152	45.9324
2136	45.7901
2120	45.5528
2104	45.3034
2088	45.2707
2072	44.9275
2056	44.9047
2040	44.4951
2024	44.2863
2008	44.0084
1992	43.7874
1976	43.5711
1960	43.4337
1944	43.1376
1928	43.0063
1912	42.7836
1896	42.3548
1880	42.1993
1864	42.1036
1848	41.8763
1832	41.6368
1816	41.4467
1800	41.268
1784	40.9099
1768	40.8074
1752	40.5271
1736	40.1384
1720	39.956
1704	39.8024
1688	39.7049
1672	39.3533
1656	39.1907
1640	38.9074
1624	38.7385
1608	38.5115
1592	38.2739
1576	38.094
1560	37.9013
1544	37.556
1528	37.3493
1512	37.1663
1496	36.8936
1480	36.6858
1464	36.4712
1448	36.1298
1432	35.9612
1416	35.8792
1400	35.6229
1384	35.4384
1368	35.0085
1352	34.8616
1336	34.7796
1320	34.394
1304	34.2871
1288	34.0521
1272	33.8002
1256	33.6928
1240	33.3963
1224	32.9725
1208	32.8367
1192	32.6742
1176	32.6206
1160	32.1179
1144	31.9617
1128	31.8926
1112	31.3683
1096	31.5928
1080	30.9085
1064	30.851
1048	30.669
1032	30.3949
1016	30.0517
1000	29.7464
984	 29.6641
968	 29.4486
952	 28.9781
936	 28.7068
920	 28.5561
904	 28.2376
888	 27.9143
872	 27.9732
856	 27.285
840	 27.2116
824	 26.7478
808	 26.6238
792	 26.2812
776	 25.8693
760	 25.3995
744	 25.0403
728	 24.8613
712	 24.8462
696	 23.8981
680	 23.1952
664	 23.0283
648	 22.6541
632	 22.2389
616	 21.5794
600	 20.7635
584	 20.5065
568	 19.6516
552	 19.6328
536	 18.2053
520	 18.8811
504	 17.8982
488	 16.6771
472	 15.6795
456	 14.5918
440	 14.4988
424	 16.2315
408	 12.6264
392	 22.7138
376	 29.4996
370	 15.0346