Folder: Masteroppgave/Bakgrunnsmateriale/MATLAB/FTIR/ftir_data/subBb/Mapping_121

File: C-4040-8_e122.asc
PE IR       SPECTRUM    SPECTRUM    ASCII       PEDS        1.60
  -1
C-4040~2.ASC
17/03/27
14:29:38.00
17/03/27
14:30:05.00
tln
$C-4040-8_e0122$<ebV0>[-23.3,12.1,10.0,0.0,27,1,0]
27.028
64

2002,4.07
MIRTGS : RIGHTBACK : INTERNAL 2
MIR : ON : INTERNAL 2
OPTKBR

0.200000
8
8.000000
FILLER
SINGLE
SPECTRUM
UNLOCKED 256

DOUBLE

COMBINED
1
0
0

0.002000
BACKG

1
0
TRUE
51149
0
LEFT NOT FITTED RIGHT NOT FITTED 0
NONE
NONE
15600
12
4.427000
51148
TRUE
1 0 8 72 0 0 0 0

15798

#HDR
-1
-1
#GR
µM
EGY
2.38419e-05
0.0
2.000000
0.002000
12515
8
2.455816
0.009918
#DATA
2.000000	 0.768876
2.084000	 0.867554
2.168000	 0.927145
2.252000	 0.952015
2.336000	 1.136967
2.420000	 1.230310
2.504000	 1.388469
2.588000	 1.442424
2.672000	 1.539388
2.756000	 1.566633
2.840000	 1.625492
2.924000	 1.587159
3.008000	 1.686573
3.092000	 1.783655
3.176000	 1.811323
3.260000	 1.930129
3.344000	 2.028895
3.428000	 1.835784
3.512000	 2.009586
3.596000	 2.214918
3.680000	 2.252413
3.764000	 2.219228
3.848000	 2.226212
3.932000	 2.293731
4.016000	 2.326144
4.100000	 2.281994
4.184000	 2.247081
4.268000	 2.264514
4.352000	 2.339268
4.436000	 2.378215
4.520000	 2.368263
4.604000	 2.337538
4.688000	 2.332771
4.772000	 2.336912
4.856000	 2.384298
4.940000	 2.443079
5.024000	 2.453698
5.108000	 2.428694
5.192000	 2.400911
5.276000	 2.368156
5.359999	 2.379170
5.444000	 2.405168
5.528000	 2.426642
5.612000	 2.422010
5.696000	 2.388834
5.780000	 2.311389
5.864000	 2.269307
5.948000	 2.224173
6.032000	 2.175531
6.116000	 2.128877
6.200000	 1.999781
6.284000	 2.013278
6.368000	 1.970980
6.452000	 1.946940
6.536000	 2.087950
6.620000	 2.065859
6.704000	 1.684676
6.788000	 1.964492
6.872000	 1.780140
6.956000	 1.856614
7.040000	 1.849814
7.124000	 1.725461
7.208000	 1.781682
7.292000	 1.812155
7.376000	 1.814320
7.460000	 1.812594
7.544000	 1.845174
7.628000	 1.854429
7.712000	 1.853063
7.796000	 1.849435
7.880000	 1.773720
7.964000	 1.758467
8.048000	 1.832141
8.132000	 1.821646
8.216000	 1.782840
8.300000	 1.740891
8.384000	 1.738112
8.468000	 1.711211
8.552000	 1.670566
8.635999	 1.619217
8.719999	 1.599478
8.804000	 1.571311
8.888000	 1.522815
8.972000	 1.467391
9.056000	 1.429974
9.140000	 1.424478
9.224000	 1.428014
9.308000	 1.430895
9.391999	 1.435635
9.475999	 1.356124
9.560000	 1.321970
9.644000	 1.381897
9.728000	 1.366312
9.812000	 1.358739
9.896000	 1.377183
9.980000	 1.394434
10.064	1.394358
10.148	1.381128
10.232	1.368029
10.316	1.346647
10.4	1.318649
10.484	1.292738
10.568	1.271005
10.652	1.256829
10.736	1.241013
10.82	1.225376
10.904	1.205927
10.988	1.178891
11.072	1.161069
11.156	1.151152
11.24	1.128406
11.324	1.077959
11.408	1.031839
11.492	1.047960
11.576	1.084603
11.66	1.091837
11.744	1.084647
11.828	1.076158
11.912	1.057010
11.996	0.993267
12.08	0.882813
12.164	0.851557
12.248	0.912843
12.332	0.947092
12.416	0.947451
12.5	0.945234
12.584	0.952227
12.668	0.964785
12.752	0.974067
12.836	0.976241
12.92	0.973482
13.004	0.969787
13.088	0.965956
13.172	0.961062
13.256	0.955100
13.34	0.947892
13.424	0.939233
13.508	0.932970
13.592	0.925134
13.676	0.911325
13.76	0.897614
13.844	0.885737
13.928	0.873022
14.012	0.860127
14.096	0.847953
14.18	0.834611
14.264	0.817283
14.348	0.794501
14.432	0.766417
14.516	0.740439
14.6	0.730712
14.684	0.733864
14.768	0.733950
14.852	0.727126
14.936	0.717625
15.02	0.708209
15.104	0.699693
15.188	0.691164
15.272	0.681632
15.356	0.671078
15.44	0.660249
15.524	0.650505
15.608	0.642367
15.692	0.634016
15.776	0.624842
15.86	0.616153
15.944	0.608239
16.028	0.600425
16.112	0.592005
16.196	0.581115
16.28	0.566514
16.364	0.549373
16.448	0.533647
16.532	0.524044
16.616	0.521661
16.7	0.522379
16.784	0.521275
16.868	0.517484
16.952	0.512900
17.036	0.508607
17.12	0.504706
17.204	0.501374
17.288	0.498895
17.372	0.496725
17.456	0.494413
17.54	0.491927
17.624	0.489159
17.708	0.485530
17.792	0.480957
17.876	0.476291
17.96	0.472299
18.044	0.468880
18.128	0.465196
18.212	0.460702
18.296	0.455443
18.38	0.450088
18.464	0.445172
18.548	0.440925
18.632	0.436906
18.716	0.432218
18.8	0.426329
18.884	0.419943
18.968	0.414313
19.052	0.410204
19.136	0.406839
19.22	0.402854
19.304	0.397704
19.388	0.391592
19.472	0.385273
19.556	0.379256
19.64	0.373807
19.724	0.368610
19.808	0.362686
19.892	0.355025
19.976	0.345552
20.06	0.335513
20.144	0.326724
20.228	0.319991
20.312	0.314709
20.396	0.309524
20.48	0.303308
20.564	0.295749
20.648	0.287263
20.732	0.278635
20.816	0.270454
20.9	0.263257
20.984	0.257329
21.068	0.252779
21.152	0.249398
21.236	0.246605
21.32	0.243437
21.404	0.239252
21.488	0.233743
21.572	0.227157
21.656	0.219877
21.74	0.212352
21.824	0.204805
21.908	0.197637
21.992	0.191048
22.076	0.185237
22.16	0.180035
22.244	0.175046
22.328	0.169994
22.412	0.164764
22.496	0.159668
22.58	0.155086
22.664	0.151177
22.748	0.147790
22.832	0.144587
22.916	0.141125
23	0.137135
23.084	0.132685
23.168	0.127733
23.252	0.122505
23.336	0.116979
23.42	0.111238
23.504	0.105368
23.588	0.099517
23.672	0.093877
23.756	0.088629
23.84	0.083832
23.924	0.079485
24.008	0.075519
24.092	0.071964
24.176	0.068735
24.26	0.065856
24.344	0.063171
24.428	0.060449
24.512	0.057471
24.596	0.054120
24.68	0.050413
24.764	0.046682
24.848	0.043268
24.932	0.040629
25.016	0.038853
25.1	0.037837
25.184	0.037230
25.268	0.036478
25.352	0.035275
25.436	0.033373
25.52	0.030722
25.604	0.027497
25.688	0.024062
25.772	0.020715
25.856	0.017793
25.94	0.015533
26.024	0.013978
26.108	0.013077
26.192	0.012668
26.276	0.012629
26.36	0.012743
26.444	0.012862
26.528	0.012922
26.612	0.012846
26.696	0.012606
26.78	0.012172
26.864	0.011547
26.948	0.010767
27.028	0.009918

File: C-4040-8_e122_cm-1.asc
PE IR       SPECTRUM    SPECTRUM    ASCII       PEDS        1.60
  -1
C-4040~1.ASC
17/03/27
14:29:38.00
17/03/27
14:29:38.00
tln
$C-4040-8_e0122$<ebV0>[-23.3,12.1,10.0,0.0,27,1,0]
370
64

2002,4.07
MIRTGS : RIGHTBACK : INTERNAL 2
MIR : ON : INTERNAL 2
OPTKBR

0.200000
8
8.000000
FILLER
SINGLE
SPECTRUM
UNLOCKED 256

DOUBLE

COMBINED
1
0
0

1.000000
BACKG

1
0
TRUE
51149
0
LEFT NOT FITTED RIGHT NOT FITTED 0
NONE
NONE
15600
12
4.427000
51148
TRUE
1 0 8 72 0 0 0 0

15798

#HDR
-1
-1
#GR
CM-1
EGY
2.38419e-05
0.0
5000
-1.000000
4631
8
2.455806
0.009918
#DATA
5000	0.768876
4984	0.772309
4968	0.783729
4952	0.793409
4936	0.800871
4920	0.802087
4904	0.795531
4888	0.808787
4872	0.818896
4856	0.827026
4840	0.833725
4824	0.850915
4808	0.863432
4792	0.871133
4776	0.878047
4760	0.890302
4744	0.893306
4728	0.902795
4712	0.904822
4696	0.906753
4680	0.907206
4664	0.911808
4648	0.915050
4632	0.918340
4616	0.924968
4600	0.934052
4584	0.947475
4568	0.959086
4552	0.971055
4536	0.984311
4520	0.989127
4504	0.992059
4488	1.005744
4472	1.001787
4456	0.978159
4440	0.958871
4424	1.024103
4408	1.020002
4392	1.028037
4376	1.037096
4360	1.045465
4344	1.061725
4328	1.083278
4312	1.104736
4296	1.119685
4280	1.137733
4264	1.152348
4248	1.166749
4232	1.177263
4216	1.185059
4200	1.192665
4184	1.206731
4168	1.212906
4152	1.218318
4136	1.229429
4120	1.241040
4104	1.260375
4088	1.276016
4072	1.300048
4056	1.319742
4040	1.341795
4024	1.359295
4008	1.374673
3992	1.389932
3976	1.408505
3960	1.409244
3944	1.411771
3928	1.417660
3912	1.423573
3896	1.424980
3880	1.437401
3864	1.442408
3848	1.453018
3832	1.475381
3816	1.491904
3800	1.503777
3784	1.539301
3768	1.544785
3752	1.532387
3736	1.547431
3720	1.566123
3704	1.571178
3688	1.560592
3672	1.552391
3656	1.566362
3640	1.579475
3624	1.574707
3608	1.583933
3592	1.590275
3576	1.604461
3560	1.612377
3544	1.620459
3528	1.621222
3512	1.629853
3496	1.622128
3480	1.609396
3464	1.602387
3448	1.591658
3432	1.583766
3416	1.587462
3400	1.597809
3384	1.606559
3368	1.621699
3352	1.646709
3336	1.667690
3320	1.693701
3304	1.716041
3288	1.737356
3272	1.753878
3256	1.772570
3240	1.782727
3224	1.785850
3208	1.786136
3192	1.795721
3176	1.798582
3160	1.803135
3144	1.816916
3128	1.836538
3112	1.853156
3096	1.883721
3080	1.915597
3064	1.933670
3048	1.961135
3032	1.976394
3016	1.961398
3000	2.023077
2984	2.024173
2968	1.959657
2952	1.920604
2936	1.810598
2920	1.801252
2904	1.947498
2888	1.994657
2872	1.984047
2856	1.926493
2840	2.063989
2824	2.126359
2808	2.164030
2792	2.193975
2776	2.225041
2760	2.242469
2744	2.250266
2728	2.253866
2712	2.250623
2696	2.238321
2680	2.233576
2664	2.222418
2648	2.217030
2632	2.215337
2616	2.221941
2600	2.225971
2584	2.238821
2568	2.264332
2552	2.283430
2536	2.303600
2520	2.314901
2504	2.325010
2488	2.325940
2472	2.316212
2456	2.303791
2440	2.282786
2424	2.272319
2408	2.263092
2392	2.248358
2376	2.239060
2360	2.232336
2344	2.263927
2328	2.282214
2312	2.315926
2296	2.342796
2280	2.361559
2264	2.372145
2248	2.379250
2232	2.379274
2216	2.370977
2200	2.358579
2184	2.347755
2168	2.335834
2152	2.333378
2136	2.331948
2120	2.334332
2104	2.338528
2088	2.334928
2072	2.360916
2056	2.392649
2040	2.420711
2024	2.443456
2008	2.451968
1992	2.453541
1976	2.446079
1960	2.429866
1944	2.415418
1928	2.403545
1912	2.383089
1896	2.368688
1880	2.374339
1864	2.381181
1848	2.389430
1832	2.405047
1816	2.421331
1800	2.426028
1784	2.422761
1768	2.403903
1752	2.377295
1736	2.313852
1720	2.295398
1704	2.259635
1688	2.236557
1672	2.214550
1656	2.158761
1640	2.145147
1624	2.097296
1608	1.968502
1592	2.013254
1576	1.973605
1560	1.909947
1544	1.939010
1528	2.095627
1512	2.075219
1496	1.696324
1480	1.954865
1464	1.926875
1448	1.779747
1432	1.865220
1416	1.837086
1400	1.727867
1384	1.781511
1368	1.814484
1352	1.812291
1336	1.824188
1320	1.848721
1304	1.852965
1288	1.851272
1272	1.806592
1256	1.754498
1240	1.833915
1224	1.810097
1208	1.745152
1192	1.737022
1176	1.697039
1160	1.625466
1144	1.593852
1128	1.537179
1112	1.454877
1096	1.424980
1080	1.428771
1064	1.434755
1048	1.303529
1032	1.377272
1016	1.365065
1000	1.395726
984	 1.378726
968	 1.341867
952	 1.287102
936	 1.251578
920	 1.215243
904	 1.162552
888	 1.118326
872	 1.037597
856	 1.090407
840	 1.059746
824	 0.846529
808	 0.949096
792	 0.958395
776	 0.974893
760	 0.961971
744	 0.937724
728	 0.901222
712	 0.855326
696	 0.788331
680	 0.734639
664	 0.704026
648	 0.661253
632	 0.619864
616	 0.574970
600	 0.522089
584	 0.504565
568	 0.489807
552	 0.465774
536	 0.435638
520	 0.402259
504	 0.359916
488	 0.302314
472	 0.248241
456	 0.195860
440	 0.148582
424	 0.099730
408	 0.057554
392	 0.031065
376	 0.012874
370	 0.009918

File: C-4040-8_e123.asc
PE IR       SPECTRUM    SPECTRUM    ASCII       PEDS        1.60
  -1
C-78C3~1.ASC
17/03/27
16:18:59.00
17/03/27
16:19:26.00
tln
$C-4040-8_e0123$<ebV0>[-23.3,12.1,10.0,0.0,27,1,0]
27.028
64

2002,4.07
MIRTGS : RIGHTBACK : INTERNAL 2
MIR : ON : INTERNAL 2
OPTKBR

0.200000
8
8.000000
FILLER
SINGLE
SPECTRUM
UNLOCKED 256

DOUBLE

COMBINED
1
0
0

0.002000
BACKG

1
0
TRUE
51149
0
LEFT NOT FITTED RIGHT NOT FITTED 0
NONE
NONE
15600
12
4.427000
51148
TRUE
1 0 8 72 0 0 0 0

15798

#HDR
-1
-1
#GR
µM
EGY
2.38419e-05
0.0
2.000000
0.002000
12515
8
2.455999
0.008106
#DATA
2.000000	 0.769138
2.084000	 0.868033
2.168000	 0.928707
2.252000	 1.010591
2.336000	 1.138180
2.420000	 1.230179
2.504000	 1.394549
2.588000	 1.450144
2.672000	 1.551965
2.756000	 1.574354
2.840000	 1.628183
2.924000	 1.590452
3.008000	 1.689147
3.092000	 1.781991
3.176000	 1.815220
3.260000	 1.933647
3.344000	 2.031171
3.428000	 1.840317
3.512000	 2.013668
3.596000	 2.216589
3.680000	 2.254841
3.764000	 2.221360
3.848000	 2.228031
3.932000	 2.293339
4.016000	 2.330116
4.100000	 2.288759
4.184000	 2.248191
4.268000	 2.265204
4.352000	 2.343096
4.436000	 2.380840
4.520000	 2.370594
4.604000	 2.337986
4.688000	 2.333481
4.772000	 2.339709
4.856000	 2.383678
4.940000	 2.443921
5.024000	 2.454355
5.108000	 2.429662
5.192000	 2.401531
5.276000	 2.374081
5.359999	 2.380935
5.444000	 2.405656
5.528000	 2.432175
5.612000	 2.429789
5.696000	 2.397912
5.780000	 2.323987
5.864000	 2.280658
5.948000	 2.238949
6.032000	 2.190296
6.116000	 2.138900
6.200000	 2.007277
6.284000	 2.014276
6.368000	 1.979820
6.452000	 1.957241
6.536000	 2.098634
6.620000	 2.082106
6.704000	 1.689173
6.788000	 1.975575
6.872000	 1.790196
6.956000	 1.863092
7.040000	 1.857157
7.124000	 1.728680
7.208000	 1.787352
7.292000	 1.817131
7.376000	 1.815159
7.460000	 1.817691
7.544000	 1.850114
7.628000	 1.856272
7.712000	 1.856684
7.796000	 1.851136
7.880000	 1.773772
7.964000	 1.758803
8.048000	 1.831857
8.132000	 1.823317
8.216000	 1.784029
8.300000	 1.745909
8.384000	 1.740490
8.468000	 1.713806
8.552000	 1.672569
8.635999	 1.621866
8.719999	 1.601496
8.804000	 1.572486
8.888000	 1.525775
8.972000	 1.470947
9.056000	 1.429698
9.140000	 1.419691
9.224000	 1.424597
9.308000	 1.430015
9.391999	 1.440096
9.475999	 1.360751
9.560000	 1.324895
9.644000	 1.385087
9.728000	 1.367104
9.812000	 1.356742
9.896000	 1.379875
9.980000	 1.400466
10.064	1.401335
10.148	1.379987
10.232	1.369968
10.316	1.348947
10.4	1.324486
10.484	1.292823
10.568	1.269296
10.652	1.258458
10.736	1.241867
10.82	1.227187
10.904	1.204391
10.988	1.176575
11.072	1.158324
11.156	1.148594
11.24	1.128034
11.324	1.076882
11.408	1.030371
11.492	1.047326
11.576	1.082353
11.66	1.092691
11.744	1.086597
11.828	1.076898
11.912	1.058180
11.996	0.991765
12.08	0.882019
12.164	0.852149
12.248	0.915242
12.332	0.948437
12.416	0.947635
12.5	0.946164
12.584	0.953914
12.668	0.966381
12.752	0.975695
12.836	0.977639
12.92	0.976703
13.004	0.973958
13.088	0.968004
13.172	0.963951
13.256	0.962001
13.34	0.955757
13.424	0.945240
13.508	0.933969
13.592	0.923065
13.676	0.910640
13.76	0.898016
13.844	0.885747
13.928	0.873505
14.012	0.861533
14.096	0.847248
14.18	0.831288
14.264	0.815715
14.348	0.797513
14.432	0.769919
14.516	0.740995
14.6	0.730484
14.684	0.734528
14.768	0.735855
14.852	0.730125
14.936	0.720040
15.02	0.710161
15.104	0.702554
15.188	0.694880
15.272	0.685868
15.356	0.676176
15.44	0.666007
15.524	0.656394
15.608	0.648201
15.692	0.639614
15.776	0.629673
15.86	0.620139
15.944	0.611334
16.028	0.602145
16.112	0.592624
16.196	0.582694
16.28	0.569992
16.364	0.553162
16.448	0.536308
16.532	0.525333
16.616	0.521799
16.7	0.522045
16.784	0.521767
16.868	0.519356
16.952	0.515490
17.036	0.511469
17.12	0.508046
17.204	0.505235
17.288	0.502601
17.372	0.499818
17.456	0.496966
17.54	0.494000
17.624	0.490846
17.708	0.487423
17.792	0.483613
17.876	0.479387
17.96	0.474763
18.044	0.469781
18.128	0.464478
18.212	0.459320
18.296	0.454619
18.38	0.450414
18.464	0.446386
18.548	0.442228
18.632	0.437793
18.716	0.433145
18.8	0.428132
18.884	0.422598
18.968	0.416557
19.052	0.410307
19.136	0.404366
19.22	0.398959
19.304	0.393998
19.388	0.389150
19.472	0.384132
19.556	0.378802
19.64	0.373270
19.724	0.367560
19.808	0.361705
19.892	0.355629
19.976	0.349343
20.06	0.342894
20.144	0.336139
20.228	0.328913
20.312	0.321303
20.396	0.313569
20.48	0.305863
20.564	0.298358
20.648	0.290927
20.732	0.283628
20.816	0.276491
20.9	0.269768
20.984	0.263601
21.068	0.257976
21.152	0.252761
21.236	0.247650
21.32	0.242338
21.404	0.236617
21.488	0.230512
21.572	0.224106
21.656	0.217673
21.74	0.211292
21.824	0.205004
21.908	0.198741
21.992	0.192460
22.076	0.186352
22.16	0.180568
22.244	0.175351
22.328	0.170695
22.412	0.166516
22.496	0.162507
22.58	0.158433
22.664	0.154100
22.748	0.149490
22.832	0.144495
22.916	0.139277
23	0.133890
23.084	0.128488
23.168	0.123329
23.252	0.118511
23.336	0.114118
23.42	0.110039
23.504	0.106077
23.588	0.102083
23.672	0.097902
23.756	0.093514
23.84	0.089043
23.924	0.084634
24.008	0.080490
24.092	0.076652
24.176	0.073131
24.26	0.069776
24.344	0.066485
24.428	0.063185
24.512	0.059926
24.596	0.056867
24.68	0.054132
24.764	0.051762
24.848	0.049596
24.932	0.047348
25.016	0.044649
25.1	0.041389
25.184	0.037484
25.268	0.033163
25.352	0.028784
25.436	0.024711
25.52	0.021264
25.604	0.018616
25.688	0.016731
25.772	0.015510
25.856	0.014849
25.94	0.014510
26.024	0.014300
26.108	0.014095
26.192	0.013757
26.276	0.013203
26.36	0.012489
26.444	0.011653
26.528	0.010797
26.612	0.010054
26.696	0.009491
26.78	0.009059
26.864	0.008741
26.948	0.008440
27.028	0.008106

File: C-4040-8_e123_cm-1.asc
PE IR       SPECTRUM    SPECTRUM    ASCII       PEDS        1.60
  -1
C-38CF~1.ASC
17/03/27
16:18:59.00
17/03/27
16:18:59.00
tln
$C-4040-8_e0123$<ebV0>[-23.3,12.1,10.0,0.0,27,1,0]
370
64

2002,4.07
MIRTGS : RIGHTBACK : INTERNAL 2
MIR : ON : INTERNAL 2
OPTKBR

0.200000
8
8.000000
FILLER
SINGLE
SPECTRUM
UNLOCKED 256

DOUBLE

COMBINED
1
0
0

1.000000
BACKG

1
0
TRUE
51149
0
LEFT NOT FITTED RIGHT NOT FITTED 0
NONE
NONE
15600
12
4.427000
51148
TRUE
1 0 8 72 0 0 0 0

15798

#HDR
-1
-1
#GR
CM-1
EGY
2.38419e-05
0.0
5000
-1.000000
4631
8
2.455997
0.008106
#DATA
5000	0.769138
4984	0.778508
4968	0.784015
4952	0.785040
4936	0.793123
4920	0.801181
4904	0.805640
4888	0.812411
4872	0.821590
4856	0.829195
4840	0.840616
4824	0.847244
4808	0.861310
4792	0.870847
4776	0.883030
4760	0.887346
4744	0.893044
4728	0.901126
4712	0.901865
4696	0.906968
4680	0.909852
4664	0.909709
4648	0.916552
4632	0.920605
4616	0.927615
4600	0.935935
4584	0.948739
4568	0.958514
4552	0.971007
4536	0.984930
4520	0.987720
4504	0.997972
4488	1.002097
4472	1.008200
4456	1.006817
4440	1.010465
4424	1.014018
4408	1.018238
4392	1.006436
4376	0.998258
4360	1.035237
4344	1.069378
4328	1.091313
4312	1.102995
4296	1.121401
4280	1.138710
4264	1.152586
4248	1.168036
4232	1.174998
4216	1.184773
4200	1.193952
4184	1.207137
4168	1.208114
4152	1.217770
4136	1.225948
4120	1.243829
4104	1.263213
4088	1.279592
4072	1.299619
4056	1.325702
4040	1.344585
4024	1.364660
4008	1.383447
3992	1.395225
3976	1.403450
3960	1.412487
3944	1.420164
3928	1.422357
3912	1.431179
3896	1.431274
3880	1.435208
3864	1.450133
3848	1.463508
3832	1.482105
3816	1.495552
3800	1.514720
3784	1.542711
3768	1.552295
3752	1.546120
3736	1.559877
3720	1.571965
3704	1.574587
3688	1.569795
3672	1.566267
3656	1.574182
3640	1.579880
3624	1.578021
3608	1.587057
3592	1.595497
3576	1.606798
3560	1.617741
3544	1.624774
3528	1.624846
3512	1.626205
3496	1.622343
3480	1.615309
3464	1.606893
3448	1.594090
3432	1.584196
3416	1.591348
3400	1.599717
3384	1.609611
3368	1.623630
3352	1.646304
3336	1.670432
3320	1.693463
3304	1.717495
3288	1.740217
3272	1.756644
3256	1.769518
3240	1.779890
3224	1.787877
3208	1.793432
3192	1.791930
3176	1.797652
3160	1.806521
3144	1.818823
3128	1.838660
3112	1.850152
3096	1.885056
3080	1.917576
3064	1.939153
3048	1.966667
3032	1.976966
3016	1.966619
3000	2.026772
2984	2.025294
2968	1.957201
2952	1.921224
2936	1.815962
2920	1.805615
2904	1.947307
2888	1.997876
2872	1.983070
2856	1.929998
2840	2.067732
2824	2.129936
2808	2.165317
2792	2.194499
2776	2.225899
2760	2.243852
2744	2.252316
2728	2.258944
2712	2.253198
2696	2.241659
2680	2.236080
2664	2.222800
2648	2.220273
2632	2.217030
2616	2.222871
2600	2.227520
2584	2.240777
2568	2.265357
2552	2.283668
2536	2.302312
2520	2.317905
2504	2.328777
2488	2.328491
2472	2.320742
2456	2.306222
2440	2.289247
2424	2.273392
2408	2.263855
2392	2.249097
2376	2.243709
2360	2.237749
2344	2.264666
2328	2.286505
2312	2.317953
2296	2.345871
2280	2.364253
2264	2.377820
2248	2.382111
2232	2.380251
2216	2.374386
2200	2.358579
2184	2.345204
2168	2.336740
2152	2.338051
2136	2.333879
2120	2.336764
2104	2.339720
2088	2.337145
2072	2.359771
2056	2.390050
2040	2.426004
2024	2.444195
2008	2.453899
1992	2.454590
1976	2.446651
1960	2.432060
1944	2.421665
1928	2.403306
1912	2.388167
1896	2.374505
1880	2.376985
1864	2.382755
1848	2.395057
1832	2.407789
1816	2.427053
1800	2.432560
1784	2.429962
1768	2.413082
1752	2.386164
1736	2.327489
1720	2.311420
1704	2.273607
1688	2.250409
1672	2.226066
1656	2.179241
1640	2.153396
1624	2.106451
1608	1.972389
1592	2.014136
1576	1.983833
1560	1.931500
1544	1.958584
1528	2.107572
1512	2.090430
1496	1.701521
1480	1.958584
1464	1.937580
1448	1.781034
1432	1.869678
1416	1.843237
1400	1.732897
1384	1.785278
1368	1.819610
1352	1.814556
1336	1.825928
1320	1.854157
1304	1.855111
1288	1.854515
1272	1.804924
1256	1.754808
1240	1.833128
1224	1.811718
1208	1.748442
1192	1.739478
1176	1.697134
1160	1.629567
1144	1.596260
1128	1.539230
1112	1.458358
1096	1.419711
1080	1.425361
1064	1.439332
1048	1.306056
1032	1.376342
1016	1.362109
1000	1.402187
984	 1.377177
968	 1.344847
952	 1.285338
936	 1.253199
920	 1.215171
904	 1.159906
888	 1.118206
872	 1.036858
856	 1.092171
840	 1.061010
824	 0.846672
808	 0.949549
792	 0.960063
776	 0.977134
760	 0.964331
744	 0.942945
728	 0.901484
712	 0.856304
696	 0.791954
680	 0.735545
664	 0.706338
648	 0.666975
632	 0.624227
616	 0.577497
600	 0.521850
584	 0.507926
568	 0.491547
552	 0.465250
536	 0.436449
520	 0.398302
504	 0.359320
488	 0.304794
472	 0.250673
456	 0.197124
440	 0.150656
424	 0.102233
408	 0.060009
392	 0.021624
376	 0.010180
370	 0.008106