Folder: Masteroppgave/Bakgrunnsmateriale/MATLAB/FTIR/ftir_data/subBb/Mapping_121 (part 3)

File: C-4040-8_e126.asc
PE IR       SPECTRUM    SPECTRUM    ASCII       PEDS        1.60
  -1
C-74D3~1.ASC
17/03/27
21:45:55.00
17/03/27
21:46:22.00
tln
$C-4040-8_e0126$<ebV0>[-23.3,12.1,10.0,0.0,27,1,0]
27.028
64

2002,4.07
MIRTGS : RIGHTBACK : INTERNAL 2
MIR : ON : INTERNAL 2
OPTKBR

0.200000
8
8.000000
FILLER
SINGLE
SPECTRUM
UNLOCKED 256

DOUBLE

COMBINED
1
0
0

0.002000
BACKG

1
0
TRUE
51149
0
LEFT NOT FITTED RIGHT NOT FITTED 0
NONE
NONE
15600
12
4.427000
51148
TRUE
1 0 8 72 0 0 0 0

15798

#HDR
-1
-1
#GR
µM
EGY
2.38419e-05
0.0
2.000000
0.002000
12515
8
2.458306
0.003146
#DATA
2.000000	 0.763607
2.084000	 0.862976
2.168000	 0.924221
2.252000	 1.015750
2.336000	 1.142709
2.420000	 1.229136
2.504000	 1.389997
2.588000	 1.445684
2.672000	 1.547997
2.756000	 1.571377
2.840000	 1.622467
2.924000	 1.585397
3.008000	 1.685232
3.092000	 1.783884
3.176000	 1.813394
3.260000	 1.931483
3.344000	 2.027325
3.428000	 1.837347
3.512000	 2.012611
3.596000	 2.213332
3.680000	 2.251244
3.764000	 2.216946
3.848000	 2.227008
3.932000	 2.292673
4.016000	 2.319689
4.100000	 2.290437
4.184000	 2.248540
4.268000	 2.263896
4.352000	 2.341025
4.436000	 2.379734
4.520000	 2.370593
4.604000	 2.338219
4.688000	 2.332461
4.772000	 2.340124
4.856000	 2.385240
4.940000	 2.442775
5.024000	 2.457184
5.108000	 2.430907
5.192000	 2.401009
5.276000	 2.372681
5.359999	 2.382488
5.444000	 2.402863
5.528000	 2.430522
5.612000	 2.430370
5.696000	 2.402008
5.780000	 2.327910
5.864000	 2.279961
5.948000	 2.240695
6.032000	 2.191950
6.116000	 2.139629
6.200000	 2.009200
6.284000	 2.017525
6.368000	 1.983193
6.452000	 1.956456
6.536000	 2.098660
6.620000	 2.084747
6.704000	 1.690164
6.788000	 1.975215
6.872000	 1.792320
6.956000	 1.863578
7.040000	 1.856497
7.124000	 1.723328
7.208000	 1.786509
7.292000	 1.815663
7.376000	 1.814884
7.460000	 1.816361
7.544000	 1.847737
7.628000	 1.861207
7.712000	 1.853413
7.796000	 1.849964
7.880000	 1.775989
7.964000	 1.759113
8.048000	 1.832759
8.132000	 1.826697
8.216000	 1.784619
8.300000	 1.743757
8.384000	 1.739209
8.468000	 1.711900
8.552000	 1.672046
8.635999	 1.620622
8.719999	 1.604363
8.804000	 1.574278
8.888000	 1.526017
8.972000	 1.468022
9.056000	 1.432676
9.140000	 1.429012
9.224000	 1.433009
9.308000	 1.430676
9.391999	 1.438455
9.475999	 1.359829
9.560000	 1.324174
9.644000	 1.388092
9.728000	 1.368377
9.812000	 1.361209
9.896000	 1.386932
9.980000	 1.401802
10.064	1.399002
10.148	1.385427
10.232	1.370582
10.316	1.346829
10.4	1.320395
10.484	1.292432
10.568	1.272631
10.652	1.258671
10.736	1.241191
10.82	1.218302
10.904	1.200974
10.988	1.177684
11.072	1.160743
11.156	1.150651
11.24	1.128507
11.324	1.078957
11.408	1.032231
11.492	1.046420
11.576	1.082081
11.66	1.091135
11.744	1.085499
11.828	1.079460
11.912	1.059802
11.996	0.993451
12.08	0.881804
12.164	0.852583
12.248	0.914357
12.332	0.946426
12.416	0.949113
12.5	0.948143
12.584	0.954147
12.668	0.970258
12.752	0.982201
12.836	0.983056
12.92	0.978558
13.004	0.972359
13.088	0.967539
13.172	0.964576
13.256	0.957925
13.34	0.949849
13.424	0.943352
13.508	0.939331
13.592	0.930926
13.676	0.915903
13.76	0.900829
13.844	0.887347
13.928	0.875729
14.012	0.865123
14.096	0.851293
14.18	0.834641
14.264	0.817713
14.348	0.798482
14.432	0.769796
14.516	0.739956
14.6	0.729096
14.684	0.732789
14.768	0.733490
14.852	0.728110
14.936	0.720953
15.02	0.713332
15.104	0.705199
15.188	0.696477
15.272	0.686583
15.356	0.675589
15.44	0.664836
15.524	0.655083
15.608	0.646192
15.692	0.637906
15.776	0.629576
15.86	0.620316
15.944	0.610348
16.028	0.600471
16.112	0.591161
16.196	0.581738
16.28	0.569790
16.364	0.554034
16.448	0.538223
16.532	0.528425
16.616	0.525603
16.7	0.525413
16.784	0.523649
16.868	0.520186
16.952	0.516385
17.036	0.512924
17.12	0.509653
17.204	0.506330
17.288	0.502937
17.372	0.499642
17.456	0.496662
17.54	0.494070
17.624	0.491479
17.708	0.488255
17.792	0.484124
17.876	0.479170
17.96	0.473646
18.044	0.468178
18.128	0.463374
18.212	0.459370
18.296	0.455911
18.38	0.452498
18.464	0.448744
18.548	0.444284
18.632	0.439308
18.716	0.434262
18.8	0.429285
18.884	0.424199
18.968	0.418952
19.052	0.413743
19.136	0.408501
19.22	0.402895
19.304	0.396850
19.388	0.390674
19.472	0.384715
19.556	0.379025
19.64	0.373539
19.724	0.368133
19.808	0.362717
19.892	0.357019
19.976	0.350629
20.06	0.343269
20.144	0.335090
20.228	0.326679
20.312	0.318655
20.396	0.311224
20.48	0.304353
20.564	0.297709
20.648	0.291153
20.732	0.284632
20.816	0.278240
20.9	0.272003
20.984	0.265946
21.068	0.260185
21.152	0.254777
21.236	0.249788
21.32	0.245083
21.404	0.240467
21.488	0.235517
21.572	0.229957
21.656	0.223447
21.74	0.215997
21.824	0.207809
21.908	0.199494
21.992	0.191633
22.076	0.184799
22.16	0.179153
22.244	0.174583
22.328	0.170649
22.412	0.166972
22.496	0.163272
22.58	0.159373
22.664	0.155192
22.748	0.150804
22.832	0.146289
22.916	0.141694
23	0.137012
23.084	0.132165
23.168	0.127100
23.252	0.121858
23.336	0.116499
23.42	0.111147
23.504	0.105841
23.588	0.100713
23.672	0.095770
23.756	0.091078
23.84	0.086681
23.924	0.082682
24.008	0.079061
24.092	0.075743
24.176	0.072684
24.26	0.069699
24.344	0.066774
24.428	0.063779
24.512	0.060491
24.596	0.056815
24.68	0.052567
24.764	0.047822
24.848	0.042859
24.932	0.038218
25.016	0.034369
25.1	0.031608
25.184	0.029967
25.268	0.029075
25.352	0.028480
25.436	0.027679
25.52	0.026355
25.604	0.024595
25.688	0.022636
25.772	0.020766
25.856	0.019206
25.94	0.017954
26.024	0.016902
26.108	0.015830
26.192	0.014486
26.276	0.012786
26.36	0.010828
26.444	0.008838
26.528	0.006951
26.612	0.005403
26.696	0.004260
26.78	0.003548
26.864	0.003225
26.948	0.003146
27.028	0.003218

File: C-4040-8_e126_cm-1.asc
PE IR       SPECTRUM    SPECTRUM    ASCII       PEDS        1.60
  -1
C-3BCF~1.ASC
17/03/27
21:45:55.00
17/03/27
21:45:55.00
tln
$C-4040-8_e0126$<ebV0>[-23.3,12.1,10.0,0.0,27,1,0]
370
64

2002,4.07
MIRTGS : RIGHTBACK : INTERNAL 2
MIR : ON : INTERNAL 2
OPTKBR

0.200000
8
8.000000
FILLER
SINGLE
SPECTRUM
UNLOCKED 256

DOUBLE

COMBINED
1
0
0

1.000000
BACKG

1
0
TRUE
51149
0
LEFT NOT FITTED RIGHT NOT FITTED 0
NONE
NONE
15600
12
4.427000
51148
TRUE
1 0 8 72 0 0 0 0

15798

#HDR
-1
-1
#GR
CM-1
EGY
2.38419e-05
0.0
5000
-1.000000
4631
8
2.458310
0.003147
#DATA
5000	0.763607
4984	0.772309
4968	0.780916
4952	0.785183
4936	0.794124
4920	0.796246
4904	0.804281
4888	0.806784
4872	0.814366
4856	0.827121
4840	0.837731
4824	0.846195
4808	0.856184
4792	0.865197
4776	0.876903
4760	0.883960
4744	0.892782
4728	0.895190
4712	0.898814
4696	0.901412
4680	0.903296
4664	0.905299
4648	0.905799
4632	0.913763
4616	0.921249
4600	0.934171
4584	0.939750
4568	0.956320
4552	0.963568
4536	0.989389
4520	0.988483
4504	1.001238
4488	1.004195
4472	1.008749
4456	1.014852
4440	1.015806
4424	1.011705
4408	1.003623
4392	0.911283
4376	1.044917
4360	1.064181
4344	1.076436
4328	1.087069
4312	1.108622
4296	1.127958
4280	1.143264
4264	1.149940
4248	1.170897
4232	1.177835
4216	1.185870
4200	1.196169
4184	1.203346
4168	1.208829
4152	1.214528
4136	1.223826
4120	1.237440
4104	1.252627
4088	1.276063
4072	1.299214
4056	1.319003
4040	1.340031
4024	1.355576
4008	1.375675
3992	1.390838
3976	1.401257
3960	1.408076
3944	1.415133
3928	1.421117
3912	1.422619
3896	1.430201
3880	1.438975
3864	1.445674
3848	1.462411
3832	1.482486
3816	1.492428
3800	1.514339
3784	1.536107
3768	1.545667
3752	1.543354
3736	1.556253
3720	1.567983
3704	1.572608
3688	1.563096
3672	1.561260
3656	1.569676
3640	1.574993
3624	1.573204
3608	1.584553
3592	1.589989
3576	1.602792
3560	1.609444
3544	1.622104
3528	1.621127
3512	1.623392
3496	1.621699
3480	1.617193
3464	1.602411
3448	1.595830
3432	1.581454
3416	1.586365
3400	1.596164
3384	1.608753
3368	1.621794
3352	1.644992
3336	1.669979
3320	1.694250
3304	1.717686
3288	1.739454
3272	1.753544
3256	1.768636
3240	1.779580
3224	1.785683
3208	1.784968
3192	1.795530
3176	1.794981
3160	1.800131
3144	1.815629
3128	1.826310
3112	1.854109
3096	1.881575
3080	1.916241
3064	1.938009
3048	1.962399
3032	1.973462
3016	1.962041
3000	2.021908
2984	2.024674
2968	1.958012
2952	1.918411
2936	1.811146
2920	1.803421
2904	1.944303
2888	1.995444
2872	1.982617
2856	1.924252
2840	2.069926
2824	2.128958
2808	2.166223
2792	2.188777
2776	2.223062
2760	2.243256
2744	2.252793
2728	2.254033
2712	2.249264
2696	2.241373
2680	2.232980
2664	2.216935
2648	2.215409
2632	2.217483
2616	2.219128
2600	2.226281
2584	2.237176
2568	2.264595
2552	2.283358
2536	2.302694
2520	2.318000
2504	2.324676
2488	2.319931
2472	2.314400
2456	2.303576
2440	2.291274
2424	2.278614
2408	2.255797
2392	2.249050
2376	2.241468
2360	2.236127
2344	2.263569
2328	2.285003
2312	2.316737
2296	2.343320
2280	2.360820
2264	2.375578
2248	2.380537
2232	2.380681
2216	2.371263
2200	2.361845
2184	2.345538
2168	2.334451
2152	2.330160
2136	2.332448
2120	2.337336
2104	2.338719
2088	2.342963
2072	2.344489
2056	2.397847
2040	2.422308
2024	2.443051
2008	2.454257
1992	2.457714
1976	2.446079
1960	2.431654
1944	2.418804
1928	2.402710
1912	2.390646
1896	2.373051
1880	2.375268
1864	2.384090
1848	2.392983
1832	2.405214
1816	2.425241
1800	2.431488
1784	2.431702
1768	2.412390
1752	2.389717
1736	2.331042
1720	2.313184
1704	2.273964
1688	2.252221
1672	2.225685
1656	2.181935
1640	2.153801
1624	2.106547
1608	1.974558
1592	2.017307
1576	1.985025
1560	1.936459
1544	1.956963
1528	2.107977
1512	2.092051
1496	1.700568
1480	1.960825
1464	1.934504
1448	1.781988
1432	1.872634
1416	1.842093
1400	1.728773
1384	1.783514
1368	1.816916
1352	1.812314
1336	1.828837
1320	1.852917
1304	1.855874
1288	1.853156
1272	1.805257
1256	1.755285
1240	1.834201
1224	1.814174
1208	1.747083
1192	1.738286
1176	1.697278
1160	1.627922
1144	1.598000
1128	1.541876
1112	1.455569
1096	1.429009
1080	1.429963
1064	1.437759
1048	1.304936
1032	1.380586
1016	1.370096
1000	1.403141
984	 1.383209
968	 1.341867
952	 1.286363
936	 1.253557
920	 1.207661
904	 1.161670
888	 1.118826
872	 1.036691
856	 1.090049
840	 1.062703
824	 0.846600
808	 0.949311
792	 0.961565
776	 0.980663
760	 0.965261
744	 0.942420
728	 0.904870
712	 0.860166
696	 0.792717
680	 0.733661
664	 0.709486
648	 0.665807
632	 0.624561
616	 0.576829
600	 0.525498
584	 0.509524
568	 0.492072
552	 0.464010
536	 0.437831
520	 0.402140
504	 0.360512
488	 0.303411
472	 0.252699
456	 0.197386
440	 0.151896
424	 0.100898
408	 0.060582
392	 0.026535
376	 0.005674
370	 0.003218

File: C-4040-8_e127.asc
PE IR       SPECTRUM    SPECTRUM    ASCII       PEDS        1.60
  -1
C-78D3~1.ASC
17/03/27
23:34:24.00
17/03/27
23:34:51.00
tln
$C-4040-8_e0127$<ebV0>[-23.3,12.1,10.0,0.0,27,1,0]
27.028
64

2002,4.07
MIRTGS : RIGHTBACK : INTERNAL 2
MIR : ON : INTERNAL 2
OPTKBR

0.200000
8
8.000000
FILLER
SINGLE
SPECTRUM
UNLOCKED 256

DOUBLE

COMBINED
1
0
0

0.002000
BACKG

1
0
TRUE
51149
0
LEFT NOT FITTED RIGHT NOT FITTED 0
NONE
NONE
15600
12
4.427000
51148
TRUE
1 0 8 72 0 0 0 0

15798

#HDR
-1
-1
#GR
µM
EGY
2.38419e-05
0.0
2.000000
0.002000
12515
8
2.459777
0.008606
#DATA
2.000000	 0.766658
2.084000	 0.864634
2.168000	 0.929469
2.252000	 0.992354
2.336000	 1.128404
2.420000	 1.229874
2.504000	 1.390182
2.588000	 1.444807
2.672000	 1.546952
2.756000	 1.572766
2.840000	 1.623352
2.924000	 1.585509
3.008000	 1.686498
3.092000	 1.783421
3.176000	 1.812881
3.260000	 1.930724
3.344000	 2.024063
3.428000	 1.837518
3.512000	 2.010807
3.596000	 2.217005
3.680000	 2.252623
3.764000	 2.220721
3.848000	 2.225044
3.932000	 2.294152
4.016000	 2.326753
4.100000	 2.285948
4.184000	 2.246927
4.268000	 2.262121
4.352000	 2.339643
4.436000	 2.380966
4.520000	 2.368110
4.604000	 2.337182
4.688000	 2.335610
4.772000	 2.337645
4.856000	 2.376680
4.940000	 2.441483
5.024000	 2.456724
5.108000	 2.430601
5.192000	 2.402946
5.276000	 2.373994
5.359999	 2.385992
5.444000	 2.408437
5.528000	 2.435293
5.612000	 2.431403
5.696000	 2.400570
5.780000	 2.330768
5.864000	 2.282864
5.948000	 2.241148
6.032000	 2.194412
6.116000	 2.139192
6.200000	 2.008753
6.284000	 2.016529
6.368000	 1.983033
6.452000	 1.958307
6.536000	 2.095540
6.620000	 2.084773
6.704000	 1.689615
6.788000	 1.973590
6.872000	 1.791654
6.956000	 1.864985
7.040000	 1.855675
7.124000	 1.725779
7.208000	 1.786383
7.292000	 1.815091
7.376000	 1.815980
7.460000	 1.817718
7.544000	 1.847605
7.628000	 1.855259
7.712000	 1.857282
7.796000	 1.851986
7.880000	 1.775041
7.964000	 1.760952
8.048000	 1.834490
8.132000	 1.825419
8.216000	 1.783358
8.300000	 1.744198
8.384000	 1.738802
8.468000	 1.710171
8.552000	 1.672185
8.635999	 1.622024
8.719999	 1.601879
8.804000	 1.569633
8.888000	 1.525663
8.972000	 1.467148
9.056000	 1.426331
9.140000	 1.423612
9.224000	 1.427809
9.308000	 1.427533
9.391999	 1.436707
9.475999	 1.361303
9.560000	 1.324774
9.644000	 1.384820
9.728000	 1.371546
9.812000	 1.361135
9.896000	 1.380581
9.980000	 1.398986
10.064	1.398036
10.148	1.382548
10.232	1.369316
10.316	1.347780
10.4	1.320105
10.484	1.292588
10.568	1.270578
10.652	1.258154
10.736	1.239721
10.82	1.222903
10.904	1.204494
10.988	1.175569
11.072	1.156202
11.156	1.151207
11.24	1.133596
11.324	1.082388
11.408	1.033910
11.492	1.048348
11.576	1.086776
11.66	1.100949
11.744	1.090623
11.828	1.077536
11.912	1.051623
11.996	0.987086
12.08	0.880778
12.164	0.848592
12.248	0.910567
12.332	0.946181
12.416	0.948531
12.5	0.948095
12.584	0.953417
12.668	0.967080
12.752	0.976870
12.836	0.977211
12.92	0.976655
13.004	0.972431
13.088	0.968375
13.172	0.964249
13.256	0.958326
13.34	0.949211
13.424	0.937038
13.508	0.927514
13.592	0.919844
13.676	0.912152
13.76	0.901354
13.844	0.886647
13.928	0.874491
14.012	0.864540
14.096	0.851457
14.18	0.834697
14.264	0.816756
14.348	0.796133
14.432	0.766746
14.516	0.738135
14.6	0.730564
14.684	0.736673
14.768	0.736262
14.852	0.728235
14.936	0.718225
15.02	0.709609
15.104	0.703459
15.188	0.696334
15.272	0.686198
15.356	0.674959
15.44	0.664969
15.524	0.656538
15.608	0.647562
15.692	0.636929
15.776	0.626570
15.86	0.618177
15.944	0.610637
16.028	0.602503
16.112	0.593343
16.196	0.582735
16.28	0.569511
16.364	0.553072
16.448	0.536667
16.532	0.526223
16.616	0.523813
16.7	0.524537
16.784	0.523221
16.868	0.519500
16.952	0.515376
17.036	0.511900
17.12	0.509211
17.204	0.506968
17.288	0.504430
17.372	0.501086
17.456	0.497303
17.54	0.493682
17.624	0.490503
17.708	0.487347
17.792	0.483546
17.876	0.478849
17.96	0.473656
18.044	0.468609
18.128	0.463985
18.212	0.459813
18.296	0.455696
18.38	0.451172
18.464	0.446275
18.548	0.441614
18.632	0.437364
18.716	0.433271
18.8	0.428768
18.884	0.423708
18.968	0.417892
19.052	0.411455
19.136	0.404944
19.22	0.399014
19.304	0.394088
19.388	0.389907
19.472	0.386007
19.556	0.381995
19.64	0.377456
19.724	0.372210
19.808	0.366192
19.892	0.359758
19.976	0.353149
20.06	0.346313
20.144	0.338856
20.228	0.330633
20.312	0.322059
20.396	0.313862
20.48	0.306452
20.564	0.299654
20.648	0.292972
20.732	0.286079
20.816	0.279126
20.9	0.272336
20.984	0.265844
21.068	0.259538
21.152	0.253288
21.236	0.247019
21.32	0.240804
21.404	0.234582
21.488	0.228196
21.572	0.221517
21.656	0.214621
21.74	0.207759
21.824	0.201194
21.908	0.195042
21.992	0.189411
22.076	0.184338
22.16	0.179804
22.244	0.175745
22.328	0.171936
22.412	0.168087
22.496	0.163869
22.58	0.159347
22.664	0.154520
22.748	0.149513
22.832	0.144448
22.916	0.139408
23	0.134322
23.084	0.129236
23.168	0.123985
23.252	0.118643
23.336	0.113228
23.42	0.107906
23.504	0.102852
23.588	0.098082
23.672	0.093645
23.756	0.089499
23.84	0.085542
23.924	0.081584
24.008	0.077464
24.092	0.073096
24.176	0.068467
24.26	0.063730
24.344	0.059004
24.428	0.054585
24.512	0.050612
24.596	0.047040
24.68	0.043867
24.764	0.041043
24.848	0.038522
24.932	0.036326
25.016	0.034531
25.1	0.033247
25.184	0.032435
25.268	0.031998
25.352	0.031669
25.436	0.031208
25.52	0.030397
25.604	0.029086
25.688	0.027247
25.772	0.025065
25.856	0.022808
25.94	0.020624
26.024	0.018703
26.108	0.017052
26.192	0.015714
26.276	0.014533
26.36	0.013434
26.444	0.012427
26.528	0.011485
26.612	0.010648
26.696	0.009977
26.78	0.009507
26.864	0.009148
26.948	0.008865
27.028	0.008606

File: C-4040-8_e127_cm-1.asc
PE IR       SPECTRUM    SPECTRUM    ASCII       PEDS        1.60
  -1
C-3CCF~1.ASC
17/03/27
23:34:24.00
17/03/27
23:34:24.00
tln
$C-4040-8_e0127$<ebV0>[-23.3,12.1,10.0,0.0,27,1,0]
370
64

2002,4.07
MIRTGS : RIGHTBACK : INTERNAL 2
MIR : ON : INTERNAL 2
OPTKBR

0.200000
8
8.000000
FILLER
SINGLE
SPECTRUM
UNLOCKED 256

DOUBLE

COMBINED
1
0
0

1.000000
BACKG

1
0
TRUE
51149
0
LEFT NOT FITTED RIGHT NOT FITTED 0
NONE
NONE
15600
12
4.427000
51148
TRUE
1 0 8 72 0 0 0 0

15798

#HDR
-1
-1
#GR
CM-1
EGY
2.38419e-05
0.0
5000
-1.000000
4631
8
2.459764
0.008606
#DATA
5000	0.766658
4984	0.769519
4968	0.779771
4952	0.787901
4936	0.789499
4920	0.795507
4904	0.802588
4888	0.810098
4872	0.822806
4856	0.825667
4840	0.836920
4824	0.849843
4808	0.857543
4792	0.868701
4776	0.878238
4760	0.889110
4744	0.891256
4728	0.900149
4712	0.900506
4696	0.904560
4680	0.908422
4664	0.907993
4648	0.913023
4632	0.919580
4616	0.928544
4600	0.933289
4584	0.942230
4568	0.952863
4552	0.959968
4536	0.977468
4520	0.985670
4504	0.990462
4488	0.992560
4472	0.996565
4456	0.990200
4440	0.991940
4424	0.980091
4408	0.971674
4392	1.212453
4376	1.022458
4360	1.041078
4344	1.058769
4328	1.076221
4312	1.094198
4296	1.114201
4280	1.129508
4264	1.149058
4248	1.159858
4232	1.172780
4216	1.176857
4200	1.187348
4184	1.205778
4168	1.212906
4152	1.217770
4136	1.229047
4120	1.239371
4104	1.260900
4088	1.275110
4072	1.296138
4056	1.321411
4040	1.345109
4024	1.364827
4008	1.380515
3992	1.391601
3976	1.397895
3960	1.408147
3944	1.412558
3928	1.417636
3912	1.424765
3896	1.430225
3880	1.435351
3864	1.444792
3848	1.457452
3832	1.479554
3816	1.491594
3800	1.510190
3784	1.531314
3768	1.547908
3752	1.544952
3736	1.554608
3720	1.570296
3704	1.572012
3688	1.565098
3672	1.561760
3656	1.571536
3640	1.577782
3624	1.577234
3608	1.584744
3592	1.594686
3576	1.605892
3560	1.612997
3544	1.623344
3528	1.622986
3512	1.626944
3496	1.619768
3480	1.613640
3464	1.601052
3448	1.594161
3432	1.583337
3416	1.588988
3400	1.595997
3384	1.606774
3368	1.620125
3352	1.646280
3336	1.669979
3320	1.692485
3304	1.718759
3288	1.735162
3272	1.757812
3256	1.764869
3240	1.784491
3224	1.786708
3208	1.789045
3192	1.792502
3176	1.794505
3160	1.803398
3144	1.817274
3128	1.833939
3112	1.851177
3096	1.884150
3080	1.912689
3064	1.934623
3048	1.963233
3032	1.972198
3016	1.962327
3000	2.020645
2984	2.022337
2968	1.957750
2952	1.917719
2936	1.813912
2920	1.802110
2904	1.944375
2888	1.996064
2872	1.982712
2856	1.929545
2840	2.070307
2824	2.129268
2808	2.164697
2792	2.194881
2776	2.227210
2760	2.242112
2744	2.255535
2728	2.256345
2712	2.250623
2696	2.240252
2680	2.232360
2664	2.223825
2648	2.216362
2632	2.218246
2616	2.219724
2600	2.224516
2584	2.240324
2568	2.263331
2552	2.279806
2536	2.301025
2520	2.315664
2504	2.325034
2488	2.325010
2472	2.317214
2456	2.302098
2440	2.287387
2424	2.278852
2408	2.250337
2392	2.248644
2376	2.240657
2360	2.236080
2344	2.261161
2328	2.282381
2312	2.318525
2296	2.343010
2280	2.364110
2264	2.373266
2248	2.379798
2232	2.382540
2216	2.371788
2200	2.355718
2184	2.345824
2168	2.334809
2152	2.333688
2136	2.335143
2120	2.336192
2104	2.337479
2088	2.339935
2072	2.354073
2056	2.392411
2040	2.425336
2024	2.441787
2008	2.454137
1992	2.457928
1976	2.444481
1960	2.432417
1944	2.420377
1928	2.406263
1912	2.385020
1896	2.374362
1880	2.375555
1864	2.388215
1848	2.393722
1832	2.408385
1816	2.426981
1800	2.431750
1784	2.433133
1768	2.414822
1752	2.388119
1736	2.333807
1720	2.309441
1704	2.276897
1688	2.252864
1672	2.228045
1656	2.183079
1640	2.156400
1624	2.107119
1608	1.974725
1592	2.016067
1576	1.989078
1560	1.933836
1544	1.959276
1528	2.105641
1512	2.092814
1496	1.701116
1480	1.957273
1464	1.934862
1448	1.783943
1432	1.868438
1416	1.843690
1400	1.731514
1384	1.785492
1368	1.817083
1352	1.814866
1336	1.827192
1320	1.851415
1304	1.855516
1288	1.858353
1272	1.805019
1256	1.757073
1240	1.835298
1224	1.812505
1208	1.747083
1192	1.737499
1176	1.698255
1160	1.628398
1144	1.595091
1128	1.538848
1112	1.453399
1096	1.422929
1080	1.427006
1064	1.436448
1048	1.305818
1032	1.378917
1016	1.365900
1000	1.401352
984	 1.380443
968	 1.343441
952	 1.286458
936	 1.252293
920	 1.213455
904	 1.157426
888	 1.124143
872	 1.038384
856	 1.099705
840	 1.054978
824	 0.844001
808	 0.949001
792	 0.959610
776	 0.977015
760	 0.965118
744	 0.934815
728	 0.904965
712	 0.859951
696	 0.790071
680	 0.737571
664	 0.706505
648	 0.665831
632	 0.621700
616	 0.577211
600	 0.524282
584	 0.509119
568	 0.491166
552	 0.464606
536	 0.436162
520	 0.398325
504	 0.363683
488	 0.305461
472	 0.250720
456	 0.193524
440	 0.150752
424	 0.098252
408	 0.050711
392	 0.030517
376	 0.010800
370	 0.008606

File: C-4040-8_t01.asc
PE IR       SPECTRUM    SPECTRUM    ASCII       PEDS        1.60
  -1
C-4040~4.ASC
17/03/27
14:35:34.00
17/03/27
14:36:00.00
tln
$C-4040-8_t0001$<tbV0>[13.0,-13.0,8.0,0.0,27,1,0]
27.028
64

2002,4.07
MIRTGS : RIGHTBACK : INTERNAL 2
MIR : ON : INTERNAL 2
OPTKBR

0.200000
8
8.000000
FILLER
RATIO
SPECTRUM
UNLOCKED 256

DOUBLE
64
COMBINED
1
0
0

0.002000
RATIO

1
0
TRUE
51149
0
LEFT NOT FITTED RIGHT NOT FITTED 0
NONE
NONE
15600
12
4.427000
51148
TRUE
1 0 8 72 0 0 0 0

15798

#HDR
-1
-1
#GR
µM
%T
2.38419e-05
0.0
2.000000
0.002000
12515
8
70.1284
36.6913
#DATA
2.000000	 62.916
2.084000	 64.5498
2.168000	 65.5187
2.252000	 45.7563
2.336000	 65.3138
2.420000	 64.8206
2.504000	 65.1549
2.588000	 65.3856
2.672000	 65.2045
2.756000	 64.9984
2.840000	 65.2601
2.924000	 64.8581
3.008000	 65.0997
3.092000	 65.0822
3.176000	 64.9716
3.260000	 65.1512
3.344000	 65.0433
3.428000	 64.9265
3.512000	 65.0141
3.596000	 65.1448
3.680000	 65.1491
3.764000	 65.1576
3.848000	 65.1721
3.932000	 65.3034
4.016000	 65.1417
4.100000	 65.1487
4.184000	 65.2166
4.268000	 65.0289
4.352000	 65.2183
4.436000	 65.2052
4.520000	 65.3532
4.604000	 65.2569
4.688000	 65.2673
4.772000	 65.1667
4.856000	 65.1387
4.940000	 65.2746
5.024000	 65.1703
5.108000	 65.2844
5.192000	 65.163
5.276000	 65.2643
5.359999	 65.1311
5.444000	 65.0634
5.528000	 65.2111
5.612000	 65.3681
5.696000	 65.3544
5.780000	 65.1094
5.864000	 65.241
5.948000	 65.2155
6.032000	 65.4158
6.116000	 65.2867
6.200000	 65.1802
6.284000	 65.0713
6.368000	 65.1553
6.452000	 65.2164
6.536000	 65.1282
6.620000	 65.2511
6.704000	 65.2495
6.788000	 65.1184
6.872000	 65.3631
6.956000	 65.3244
7.040000	 65.17
7.124000	 65.0026
7.208000	 65.1831
7.292000	 65.0681
7.376000	 65.0522
7.460000	 64.9834
7.544000	 65.0484
7.628000	 64.941
7.712000	 64.9779
7.796000	 64.9514
7.880000	 64.8901
7.964000	 64.9383
8.048000	 64.9823
8.132000	 65.0614
8.216000	 64.9913
8.300000	 65.0431
8.384000	 64.9618
8.468000	 64.958
8.552000	 64.9354
8.635999	 64.9524
8.719999	 64.927
8.804000	 64.8427
8.888000	 64.7233
8.972000	 64.8269
9.056000	 64.8152
9.140000	 64.6175
9.224000	 64.763
9.308000	 64.5632
9.391999	 64.7368
9.475999	 64.8494
9.560000	 64.8097
9.644000	 64.708
9.728000	 64.6396
9.812000	 64.7006
9.896000	 64.818
9.980000	 64.8919
10.064	64.7592
10.148	64.8018
10.232	64.6373
10.316	64.4647
10.4	64.6324
10.484	64.5128
10.568	64.5285
10.652	64.6281
10.736	64.4897
10.82	64.4673
10.904	64.492
10.988	64.4845
11.072	64.3283
11.156	64.3609
11.24	64.4565
11.324	64.3373
11.408	64.4727
11.492	64.4514
11.576	64.4924
11.66	64.5262
11.744	64.6948
11.828	64.4422
11.912	64.1817
11.996	63.9814
12.08	63.9398
12.164	64.1293
12.248	64.4052
12.332	64.1529
12.416	63.9274
12.5	63.94
12.584	64.0084
12.668	64.1414
12.752	64.1978
12.836	64.1354
12.92	64.0769
13.004	63.9477
13.088	63.9046
13.172	63.9676
13.256	64.0294
13.34	64.0769
13.424	63.8892
13.508	63.3884
13.592	63.1385
13.676	63.4114
13.76	63.595
13.844	63.5427
13.928	63.4975
14.012	63.4475
14.096	63.3693
14.18	63.1463
14.264	63.0205
14.348	63.2193
14.432	63.2853
14.516	63.0696
14.6	62.8682
14.684	62.7138
14.768	62.5841
14.852	62.6168
14.936	62.8415
15.02	63.0392
15.104	63.0566
15.188	63.095
15.272	63.2227
15.356	63.3067
15.44	63.3956
15.524	63.3685
15.608	63.1185
15.692	62.9831
15.776	63.0263
15.86	62.9899
15.944	62.9941
16.028	63.1184
16.112	63.0482
16.196	62.7046
16.28	62.4113
16.364	62.3823
16.448	62.5072
16.532	62.5663
16.616	62.5497
16.7	62.6216
16.784	62.7634
16.868	62.8112
16.952	62.7165
17.036	62.4491
17.12	61.9567
17.204	61.4798
17.288	61.4551
17.372	61.9468
17.456	62.4848
17.54	62.5846
17.624	62.3237
17.708	62.2005
17.792	62.4573
17.876	62.7771
17.96	62.747
18.044	62.414
18.128	62.1925
18.212	62.2833
18.296	62.4727
18.38	62.4687
18.464	62.2195
18.548	61.8609
18.632	61.5515
18.716	61.3998
18.8	61.4118
18.884	61.4117
18.968	61.1718
19.052	60.7022
19.136	60.2946
19.22	60.2393
19.304	60.5551
19.388	61.0153
19.472	61.3429
19.556	61.3349
19.64	60.9305
19.724	60.2788
19.808	59.7306
19.892	59.6309
19.976	60.0615
20.06	60.7799
20.144	61.404
20.228	61.677
20.312	61.582
20.396	61.2806
20.48	60.9853
20.564	60.8616
20.648	60.9786
20.732	61.2888
20.816	61.6581
20.9	61.901
20.984	61.8308
21.068	61.3498
21.152	60.5211
21.236	59.575
21.32	58.8037
21.404	58.389
21.488	58.3088
21.572	58.3841
21.656	58.434
21.74	58.3848
21.824	58.2548
21.908	58.0743
21.992	57.8445
22.076	57.5755
22.16	57.3475
22.244	57.2875
22.328	57.4709
22.412	57.831
22.496	58.1532
22.58	58.2264
22.664	57.9668
22.748	57.4783
22.832	56.969
22.916	56.6342
23	56.5463
23.084	56.6879
23.168	57.0005
23.252	57.4294
23.336	57.935
23.42	58.5387
23.504	59.2294
23.588	59.9651
23.672	60.6985
23.756	61.3729
23.84	61.907
23.924	62.1613
24.008	61.9798
24.092	61.2646
24.176	60.0482
24.26	58.5065
24.344	56.9976
24.428	55.9797
24.512	55.9564
24.596	57.2149
24.68	59.4823
24.764	61.7962
24.848	62.8451
24.932	61.4892
25.016	57.4655
25.1	51.5729
25.184	45.3606
25.268	40.3644
25.352	37.447
25.436	36.6994
25.52	37.4985
25.604	38.9586
25.688	40.2509
25.772	40.9296
25.856	41.0131
25.94	40.9004
26.024	41.1642
26.108	42.2275
26.192	44.1889
26.276	46.7702
26.36	49.3803
26.444	51.3913
26.528	52.4059
26.612	52.3873
26.696	51.6557
26.78	50.775
26.864	50.2728
26.948	50.3619
27.028	50.7752