Folder: Masteroppgave/Bakgrunnsmateriale/MATLAB/FTIR/ftir_data/subBb/Mapping_121 (part 27)

File: C-4040-8_t59.asc
PE IR       SPECTRUM    SPECTRUM    ASCII       PEDS        1.60
  -1
C-C93E~1.ASC
17/03/27
19:19:09.00
17/03/27
19:19:35.00
tln
$C-4040-8_t0059$<tbV0>[5.2,0.0,8.0,0.0,27,1,0]
27.028
64

2002,4.07
MIRTGS : RIGHTBACK : INTERNAL 2
MIR : ON : INTERNAL 2
OPTKBR

0.200000
8
8.000000
FILLER
RATIO
SPECTRUM
UNLOCKED 256

DOUBLE
64
COMBINED
1
0
0

0.002000
RATIO

1
0
TRUE
51149
0
LEFT NOT FITTED RIGHT NOT FITTED 0
NONE
NONE
15600
12
4.427000
51148
TRUE
1 0 8 72 0 0 0 0

15798

#HDR
-1
-1
#GR
µM
%T
2.38419e-05
0.0
2.000000
0.002000
12515
8
116.407
34.3527
#DATA
2.000000	 64.9382
2.084000	 65.2571
2.168000	 64.1851
2.252000	 66.1381
2.336000	 66.7419
2.420000	 65.119
2.504000	 64.8468
2.588000	 65.3233
2.672000	 65.2262
2.756000	 65.2336
2.840000	 65.1897
2.924000	 65.2403
3.008000	 65.3725
3.092000	 65.0874
3.176000	 65.1407
3.260000	 65.2079
3.344000	 65.2052
3.428000	 64.9745
3.512000	 65.4089
3.596000	 65.2609
3.680000	 65.1517
3.764000	 65.2986
3.848000	 65.3223
3.932000	 65.4783
4.016000	 65.202
4.100000	 65.3674
4.184000	 65.3563
4.268000	 65.3276
4.352000	 65.4394
4.436000	 65.4735
4.520000	 65.3152
4.604000	 65.2628
4.688000	 65.4676
4.772000	 65.3081
4.856000	 65.1484
4.940000	 65.3195
5.024000	 65.3056
5.108000	 65.2953
5.192000	 65.3765
5.276000	 65.3795
5.359999	 65.293
5.444000	 65.3292
5.528000	 65.4232
5.612000	 65.0748
5.696000	 65.2095
5.780000	 64.9849
5.864000	 65.0728
5.948000	 65.2225
6.032000	 65.2044
6.116000	 65.1687
6.200000	 65.2778
6.284000	 65.0311
6.368000	 65.1329
6.452000	 65.0055
6.536000	 65.0489
6.620000	 65.1886
6.704000	 65.1626
6.788000	 65.0628
6.872000	 64.813
6.956000	 65.0874
7.040000	 65.1151
7.124000	 64.9504
7.208000	 64.9697
7.292000	 65.11
7.376000	 65.0801
7.460000	 65.0884
7.544000	 65.0331
7.628000	 65.0323
7.712000	 65.0382
7.796000	 65.0733
7.880000	 64.9038
7.964000	 64.9193
8.048000	 65.0165
8.132000	 64.8808
8.216000	 64.8323
8.300000	 65.0096
8.384000	 64.9162
8.468000	 64.8229
8.552000	 64.8433
8.635999	 64.8251
8.719999	 65.2807
8.804000	 65.0837
8.888000	 64.661
8.972000	 64.6876
9.056000	 64.6442
9.140000	 64.5121
9.224000	 64.6525
9.308000	 64.9138
9.391999	 64.7771
9.475999	 64.6014
9.560000	 64.5547
9.644000	 64.7477
9.728000	 64.5095
9.812000	 64.4187
9.896000	 64.6485
9.980000	 64.6641
10.064	64.4657
10.148	64.6052
10.232	64.5879
10.316	64.553
10.4	64.4153
10.484	64.2746
10.568	64.374
10.652	64.4263
10.736	64.4816
10.82	64.3618
10.904	64.3706
10.988	64.2495
11.072	64.3316
11.156	64.1988
11.24	64.2101
11.324	64.2415
11.408	64.1688
11.492	63.9162
11.576	64.2069
11.66	64.4092
11.744	64.3931
11.828	64.2788
11.912	64.2872
11.996	64.5053
12.08	64.3194
12.164	63.9696
12.248	63.7795
12.332	64.1241
12.416	64.1007
12.5	63.9861
12.584	63.7481
12.668	63.4922
12.752	63.587
12.836	63.7389
12.92	63.8675
13.004	63.7697
13.088	63.5867
13.172	63.7179
13.256	64.0679
13.34	64.0798
13.424	63.6718
13.508	63.3837
13.592	63.4161
13.676	63.5553
13.76	63.4699
13.844	63.3305
13.928	63.5064
14.012	63.6265
14.096	63.3887
14.18	63.3449
14.264	63.5256
14.348	63.5103
14.432	63.2946
14.516	62.8664
14.6	62.5743
14.684	62.6922
14.768	62.8719
14.852	62.9268
14.936	62.842
15.02	62.6897
15.104	62.7412
15.188	63.0315
15.272	63.2129
15.356	63.0244
15.44	62.5637
15.524	62.1448
15.608	61.9402
15.692	61.8373
15.776	61.8596
15.86	62.1432
15.944	62.4579
16.028	62.5415
16.112	62.534
16.196	62.5858
16.28	62.5733
16.364	62.4236
16.448	62.3277
16.532	62.3919
16.616	62.3841
16.7	62.1363
16.784	61.8638
16.868	61.7623
16.952	61.7317
17.036	61.6873
17.12	61.7257
17.204	61.8478
17.288	61.8421
17.372	61.5801
17.456	61.2315
17.54	61.068
17.624	61.1347
17.708	61.2353
17.792	61.212
17.876	61.1038
17.96	61.0167
18.044	60.9723
18.128	60.9431
18.212	60.9211
18.296	60.8912
18.38	60.8466
18.464	60.8526
18.548	60.9892
18.632	61.1809
18.716	61.2286
18.8	61.0556
18.884	60.8156
18.968	60.6824
19.052	60.6223
19.136	60.4978
19.22	60.3179
19.304	60.2663
19.388	60.4568
19.472	60.753
19.556	60.865
19.64	60.621
19.724	60.1386
19.808	59.711
19.892	59.5402
19.976	59.5733
20.06	59.5851
20.144	59.4148
20.228	59.1144
20.312	58.8974
20.396	58.9458
20.48	59.2564
20.564	59.6515
20.648	59.9011
20.732	59.8785
20.816	59.632
20.9	59.3299
20.984	59.148
21.068	59.1597
21.152	59.2945
21.236	59.3939
21.32	59.3098
21.404	58.9856
21.488	58.4918
21.572	57.9968
21.656	57.7152
21.74	57.8189
21.824	58.3293
21.908	59.0558
21.992	59.6688
22.076	59.8673
22.16	59.5467
22.244	58.8639
22.328	58.1315
22.412	57.6256
22.496	57.4357
22.58	57.4495
22.664	57.4772
22.748	57.3715
22.832	57.0949
22.916	56.7146
23	56.33
23.084	56.0145
23.168	55.8014
23.252	55.7032
23.336	55.7545
23.42	56.0224
23.504	56.6284
23.588	57.6036
23.672	58.8172
23.756	60.0207
23.84	60.9214
23.924	61.3049
24.008	61.1875
24.092	60.8704
24.176	60.8088
24.26	61.3782
24.344	62.7198
24.428	64.644
24.512	66.6498
24.596	68.231
24.68	69.0075
24.764	68.8615
24.848	67.9398
24.932	67.0015
25.016	67.2522
25.1	69.8175
25.184	75.2168
25.268	82.8602
25.352	91.1579
25.436	98.1166
25.52	102.205
25.604	102.847
25.688	100.228
25.772	95.1219
25.856	88.6035
25.94	82.1058
26.024	77.4219
26.108	76.3197
26.192	79.7899
26.276	87.5238
26.36	97.7359
26.444	107.688
26.528	114.525
26.612	116.276
26.696	111.997
26.78	101.94
26.864	87.2986
26.948	69.9573
27.028	53.2821

File: C-4040-8_t59_cm-1.asc
PE IR       SPECTRUM    SPECTRUM    ASCII       PEDS        1.60
  -1
C-1CE0~1.ASC
17/03/27
19:19:09.00
17/03/27
19:19:09.00
tln
$C-4040-8_t0059$<tbV0>[5.2,0.0,8.0,0.0,27,1,0]
370
64

2002,4.07
MIRTGS : RIGHTBACK : INTERNAL 2
MIR : ON : INTERNAL 2
OPTKBR

0.200000
8
8.000000
FILLER
RATIO
SPECTRUM
UNLOCKED 256

DOUBLE
64
COMBINED
1
0
0

1.000000
RATIO

1
0
TRUE
51149
0
LEFT NOT FITTED RIGHT NOT FITTED 0
NONE
NONE
15600
12
4.427000
51148
TRUE
1 0 8 72 0 0 0 0

15798

#HDR
-1
-1
#GR
CM-1
%T
2.38419e-05
0.0
5000
-1.000000
4631
8
116.406
33.6645
#DATA
5000	64.9382
4984	65.2464
4968	64.6284
4952	65.6675
4936	65.3588
4920	65.1345
4904	65.8102
4888	65.1949
4872	65.0378
4856	65.1832
4840	64.6328
4824	64.5886
4808	65.0841
4792	64.8048
4776	64.807
4760	64.8058
4744	64.145
4728	64.7004
4712	64.913
4696	64.3931
4680	64.4374
4664	64.5576
4648	64.1732
4632	64.672
4616	64.2054
4600	64.6827
4584	65.1467
4568	65.0021
4552	65.1244
4536	64.6226
4520	65.0849
4504	65.4736
4488	65.7104
4472	65.9239
4456	66.0707
4440	66.1429
4424	66.2729
4408	67.0865
4392	66.2043
4376	66.4767
4360	38.8573
4344	63.1167
4328	66.6612
4312	66.398
4296	66.2378
4280	66.7228
4264	65.8482
4248	65.6749
4232	65.8303
4216	65.8165
4200	65.5008
4184	64.5854
4168	65.5401
4152	65.0083
4136	65.2888
4120	64.887
4104	64.9638
4088	64.7151
4072	64.7331
4056	65.0882
4040	64.9529
4024	64.9412
4008	64.832
3992	64.8016
3976	64.9383
3960	64.9931
3944	65.1553
3928	64.9318
3912	65.094
3896	65.0348
3880	65.2
3864	65.3234
3848	65.3061
3832	65.3022
3816	65.4069
3800	65.2337
3784	65.3316
3768	65.1397
3752	65.2105
3736	65.0405
3720	65.0756
3704	65.007
3688	65.1857
3672	65.0405
3656	65.2646
3640	65.0946
3624	65.2121
3608	64.9683
3592	64.9338
3576	65.4745
3560	65.1701
3544	64.9429
3528	65.1212
3512	65.0378
3496	64.8658
3480	65.3269
3464	65.5548
3448	65.2469
3432	65.2887
3416	65.1788
3400	65.2589
3384	65.3564
3368	65.2844
3352	65.2549
3336	65.3686
3320	65.3615
3304	65.2187
3288	65.1492
3272	64.9904
3256	65.3801
3240	64.9303
3224	64.9304
3208	64.9544
3192	64.9741
3176	65.3432
3160	65.0512
3144	65.0577
3128	65.0854
3112	64.84
3096	65.2678
3080	65.1772
3064	65.2604
3048	65.4171
3032	65.2471
3016	65.1459
3000	65.255
2984	65.187
2968	65.2987
2952	65.3016
2936	65.2135
2920	64.9668
2904	65.1936
2888	65.1389
2872	65.2594
2856	65.3411
2840	65.3905
2824	65.1467
2808	65.2113
2792	65.4078
2776	65.2494
2760	65.3236
2744	65.2251
2728	65.1819
2712	65.1608
2696	65.113
2680	65.2194
2664	65.3649
2648	65.2427
2632	65.3048
2616	65.3897
2600	65.33
2584	65.4024
2568	65.1592
2552	65.545
2536	65.2718
2520	65.2654
2504	65.3339
2488	65.2704
2472	65.3163
2456	65.2846
2440	65.3865
2424	65.484
2408	65.1612
2392	65.351
2376	65.3193
2360	65.4462
2344	65.3364
2328	65.376
2312	65.2096
2296	65.4192
2280	65.336
2264	65.2638
2248	65.4603
2232	65.3471
2216	65.2717
2200	65.3219
2184	65.3221
2168	65.2883
2152	65.408
2136	65.5146
2120	65.3498
2104	65.3392
2088	65.2749
2072	65.2217
2056	65.2708
2040	65.3002
2024	65.3129
2008	65.3859
1992	65.2734
1976	65.3413
1960	65.2613
1944	65.3368
1928	65.3679
1912	65.3053
1896	65.3809
1880	65.4212
1864	65.292
1848	65.2873
1832	65.4155
1816	65.3632
1800	65.3067
1784	65.1061
1768	65.3508
1752	65.2675
1736	65.0394
1720	64.9967
1704	65.1012
1688	65.1397
1672	65.3154
1656	65.1801
1640	65.3445
1624	65.1053
1608	65.1659
1592	65.0294
1576	65.0818
1560	64.9112
1544	65.0167
1528	65.0245
1512	65.1522
1496	65.3224
1480	65.1451
1464	65.2879
1448	64.9768
1432	65.1221
1416	65.0563
1400	64.9251
1384	65.0336
1368	65.0898
1352	65.0125
1336	65.1227
1320	64.9749
1304	64.9631
1288	65.0096
1272	64.8978
1256	64.9237
1240	64.9893
1224	64.9721
1208	64.8683
1192	64.9129
1176	64.8455
1160	64.8758
1144	65.2626
1128	64.6852
1112	64.6058
1096	64.7551
1080	64.6289
1064	64.7479
1048	64.6784
1032	64.658
1016	64.4148
1000	64.5929
984	 64.6363
968	 64.5405
952	 64.292
936	 64.4546
920	 64.3613
904	 64.3169
888	 64.2091
872	 63.9226
856	 64.4278
840	 64.2673
824	 64.0928
808	 64.188
792	 63.5673
776	 63.8342
760	 63.6683
744	 63.5891
728	 63.52
712	 63.5548
696	 63.4767
680	 62.7478
664	 62.6754
648	 62.6104
632	 61.9904
616	 62.599
600	 62.2558
584	 61.7297
568	 61.1086
552	 60.9468
536	 61.2182
520	 60.3
504	 59.6094
488	 59.3117
472	 59.3497
456	 59.2405
440	 57.4144
424	 57.5627
408	 66.6017
392	 101.905
376	 116.406
370	 53.2821

File: C-4040-8_t60.asc
PE IR       SPECTRUM    SPECTRUM    ASCII       PEDS        1.60
  -1
C-AD3A~1.ASC
17/03/27
19:23:46.00
17/03/27
19:24:12.00
tln
$C-4040-8_t0060$<tbV0>[2.6,0.0,8.0,0.0,27,1,0]
27.028
64

2002,4.07
MIRTGS : RIGHTBACK : INTERNAL 2
MIR : ON : INTERNAL 2
OPTKBR

0.200000
8
8.000000
FILLER
RATIO
SPECTRUM
UNLOCKED 256

DOUBLE
64
COMBINED
1
0
0

0.002000
RATIO

1
0
TRUE
51149
0
LEFT NOT FITTED RIGHT NOT FITTED 0
NONE
NONE
15600
12
4.427000
51148
TRUE
1 0 8 72 0 0 0 0

15798

#HDR
-1
-1
#GR
µM
%T
2.38419e-05
0.0
2.000000
0.002000
12515
8
93.5537
41.2796
#DATA
2.000000	 65.136
2.084000	 64.9074
2.168000	 64.678
2.252000	 65.6695
2.336000	 65.9756
2.420000	 64.7949
2.504000	 64.9144
2.588000	 65.117
2.672000	 65.3066
2.756000	 64.9699
2.840000	 65.0972
2.924000	 65.2831
3.008000	 65.3505
3.092000	 65.2565
3.176000	 65.1582
3.260000	 65.2452
3.344000	 65.2042
3.428000	 64.9259
3.512000	 64.842
3.596000	 65.1445
3.680000	 65.1556
3.764000	 65.3202
3.848000	 65.2995
3.932000	 65.2354
4.016000	 65.0793
4.100000	 65.2326
4.184000	 65.2678
4.268000	 65.117
4.352000	 65.3275
4.436000	 65.3076
4.520000	 65.2669
4.604000	 65.4564
4.688000	 65.4995
4.772000	 65.1819
4.856000	 64.9512
4.940000	 65.4116
5.024000	 65.2181
5.108000	 65.1715
5.192000	 65.3073
5.276000	 65.202
5.359999	 65.1493
5.444000	 65.2819
5.528000	 65.3537
5.612000	 65.2541
5.696000	 65.0826
5.780000	 65.0653
5.864000	 65.1529
5.948000	 65.268
6.032000	 65.1496
6.116000	 65.1403
6.200000	 64.9873
6.284000	 64.9589
6.368000	 65.102
6.452000	 65.1247
6.536000	 64.9677
6.620000	 65.0257
6.704000	 65.0097
6.788000	 65.1137
6.872000	 64.6492
6.956000	 64.9736
7.040000	 65.1278
7.124000	 65.0607
7.208000	 64.9367
7.292000	 64.7958
7.376000	 64.9937
7.460000	 65.0203
7.544000	 65.0467
7.628000	 64.9853
7.712000	 65.0127
7.796000	 64.9983
7.880000	 64.9571
7.964000	 64.828
8.048000	 64.999
8.132000	 64.8377
8.216000	 64.8494
8.300000	 64.7749
8.384000	 64.854
8.468000	 64.7569
8.552000	 64.8209
8.635999	 64.8874
8.719999	 65.0333
8.804000	 64.6167
8.888000	 64.9834
8.972000	 64.8729
9.056000	 64.9218
9.140000	 64.8356
9.224000	 64.9723
9.308000	 64.8467
9.391999	 64.636
9.475999	 64.6852
9.560000	 64.5961
9.644000	 64.4778
9.728000	 64.6042
9.812000	 64.5995
9.896000	 64.7973
9.980000	 64.5707
10.064	64.6517
10.148	64.6938
10.232	64.6076
10.316	64.5408
10.4	64.542
10.484	64.3085
10.568	64.2955
10.652	64.1619
10.736	64.1757
10.82	64.4578
10.904	64.5142
10.988	64.3792
11.072	64.459
11.156	64.2435
11.24	64.1484
11.324	64.3554
11.408	64.2365
11.492	63.8447
11.576	63.9122
11.66	63.9728
11.744	64.1081
11.828	64.2272
11.912	64.1508
11.996	64.0801
12.08	64.0126
12.164	64.0825
12.248	64.0216
12.332	63.9448
12.416	63.9052
12.5	64.0211
12.584	64.1043
12.668	63.8159
12.752	63.6762
12.836	63.7485
12.92	63.7874
13.004	63.8552
13.088	63.848
13.172	63.8764
13.256	63.7504
13.34	63.9806
13.424	63.8182
13.508	63.5914
13.592	63.826
13.676	63.7809
13.76	63.3963
13.844	63.1163
13.928	63.1513
14.012	63.2874
14.096	63.4347
14.18	63.6684
14.264	63.8448
14.348	63.8265
14.432	63.5011
14.516	62.9766
14.6	62.693
14.684	62.7296
14.768	62.8862
14.852	62.9423
14.936	62.8507
15.02	62.8734
15.104	63.1031
15.188	63.3253
15.272	63.3349
15.356	63.1034
15.44	62.7475
15.524	62.4454
15.608	62.2444
15.692	62.0663
15.776	62.1136
15.86	62.538
15.944	62.924
16.028	62.9075
16.112	62.7299
16.196	62.7176
16.28	62.7988
16.364	62.7781
16.448	62.7083
16.532	62.6495
16.616	62.4473
16.7	62.087
16.784	61.8675
16.868	61.9331
16.952	62.0407
17.036	61.9936
17.12	61.872
17.204	61.6899
17.288	61.3103
17.372	60.8398
17.456	60.6764
17.54	61.0129
17.624	61.5678
17.708	61.9296
17.792	61.9682
17.876	61.865
17.96	61.817
18.044	61.8395
18.128	61.8488
18.212	61.8332
18.296	61.8596
18.38	61.9743
18.464	62.1225
18.548	62.1739
18.632	62.0219
18.716	61.7079
18.8	61.4404
18.884	61.4223
18.968	61.6261
19.052	61.766
19.136	61.5711
19.22	61.0625
19.304	60.5388
19.388	60.2681
19.472	60.2512
19.556	60.2803
19.64	60.1927
19.724	60.0281
19.808	59.929
19.892	59.9356
19.976	59.9404
20.06	59.8301
20.144	59.613
20.228	59.3869
20.312	59.2434
20.396	59.2063
20.48	59.2462
20.564	59.3328
20.648	59.4614
20.732	59.6508
20.816	59.8974
20.9	60.1436
20.984	60.3073
21.068	60.3463
21.152	60.3024
21.236	60.2736
21.32	60.3123
21.404	60.3511
21.488	60.2459
21.572	59.9086
21.656	59.4298
21.74	59.0529
21.824	59.0162
21.908	59.357
21.992	59.866
22.076	60.2266
22.16	60.2115
22.244	59.841
22.328	59.3427
22.412	58.9981
22.496	58.9641
22.58	59.1853
22.664	59.4606
22.748	59.5494
22.832	59.302
22.916	58.6993
23	57.8702
23.084	56.9894
23.168	56.2084
23.252	55.6032
23.336	55.1981
23.42	54.9611
23.504	54.92
23.588	55.089
23.672	55.4118
23.756	55.7904
23.84	56.1127
23.924	56.234
24.008	56.113
24.092	55.9054
24.176	55.8425
24.26	56.0068
24.344	56.1901
24.428	56.0136
24.512	55.2015
24.596	53.8019
24.68	52.1537
24.764	50.7603
24.848	50.0755
24.932	50.8307
25.016	53.9015
25.1	60.0984
25.184	69.2026
25.268	79.5528
25.352	88.4991
25.436	93.2429
25.52	92.2237
25.604	85.7236
25.688	75.5141
25.772	64.1247
25.856	53.8138
25.94	46.2225
26.024	42.1249
26.108	41.3532
26.192	43.032
26.276	45.8643
26.36	48.325
26.444	49.2558
26.528	48.348
26.612	46.0567
26.696	43.8095
26.78	43.5668
26.864	47.2201
26.948	55.7521
27.028	67.7962

File: C-4040-8_t60_cm-1.asc
PE IR       SPECTRUM    SPECTRUM    ASCII       PEDS        1.60
  -1
C-9C61~1.ASC
17/03/27
19:23:46.00
17/03/27
19:23:46.00
tln
$C-4040-8_t0060$<tbV0>[2.6,0.0,8.0,0.0,27,1,0]
370
64

2002,4.07
MIRTGS : RIGHTBACK : INTERNAL 2
MIR : ON : INTERNAL 2
OPTKBR

0.200000
8
8.000000
FILLER
RATIO
SPECTRUM
UNLOCKED 256

DOUBLE
64
COMBINED
1
0
0

1.000000
RATIO

1
0
TRUE
51149
0
LEFT NOT FITTED RIGHT NOT FITTED 0
NONE
NONE
15600
12
4.427000
51148
TRUE
1 0 8 72 0 0 0 0

15798

#HDR
-1
-1
#GR
CM-1
%T
2.38419e-05
0.0
5000
-1.000000
4631
8
93.423
39.5074
#DATA
5000	65.136
4984	64.8387
4968	65.3248
4952	65.2358
4936	64.8295
4920	65.2811
4904	65.1307
4888	64.9515
4872	64.7679
4856	64.7225
4840	65.0372
4824	64.5126
4808	64.9241
4792	65.2698
4776	65.3912
4760	64.3011
4744	64.5955
4728	64.5065
4712	64.7104
4696	65.0207
4680	64.4559
4664	64.3375
4648	64.5406
4632	64.834
4616	64.5183
4600	64.9137
4584	65.2684
4568	64.9241
4552	64.6665
4536	65.3047
4520	64.9365
4504	65.4189
4488	65.0166
4472	65.3452
4456	65.6849
4440	65.677
4424	65.9874
4408	65.8756
4392	65.7462
4376	65.7798
4360	40.8295
4344	68.5806
4328	65.4179
4312	66.0782
4296	65.7079
4280	65.9389
4264	65.586
4248	65.2591
4232	64.9926
4216	65.0792
4200	65.3179
4184	65.5886
4168	64.6067
4152	65.2775
4136	64.8563
4120	64.8356
4104	65.138
4088	64.8557
4072	64.8756
4056	64.7234
4040	64.9677
4024	64.9447
4008	65.0115
3992	64.8549
3976	65.1569
3960	64.9424
3944	64.948
3928	65.0767
3912	65.0523
3896	64.9565
3880	65.143
3864	65.1175
3848	65.2323
3832	64.728
3816	65.0314
3800	65.2512
3784	65.3141
3768	65.277
3752	65.086
3736	65.2618
3720	65.2899
3704	65.0121
3688	65.2377
3672	65.1891
3656	65.1605
3640	65.1047
3624	64.8433
3608	65.0454
3592	64.9176
3576	65.34
3560	65.0603
3544	65.1273
3528	65.0455
3512	65.2205
3496	65.2445
3480	65.1674
3464	65.4618
3448	65.0705
3432	65.1885
3416	65.192
3400	65.4365
3384	65.0711
3368	65.1649
3352	65.2513
3336	65.2832
3320	65.3872
3304	65.1743
3288	65.2444
3272	65.2663
3256	65.2309
3240	65.0412
3224	65.2734
3208	65.2859
3192	65.0914
3176	65.2853
3160	65.0026
3144	64.9834
3128	64.8085
3112	65.1085
3096	65.102
3080	65.1944
3064	65.2082
3048	65.2949
3032	65.0827
3016	65.1353
3000	65.13
2984	65.1982
2968	65.2786
2952	65.0171
2936	64.939
2920	64.9726
2904	65.1651
2888	65.1866
2872	64.9916
2856	64.9155
2840	64.9022
2824	64.9952
2808	65.2024
2792	65.2329
2776	65.2143
2760	65.1235
2744	65.2138
2728	65.2464
2712	65.2284
2696	65.2059
2680	65.1609
2664	65.218
2648	65.2918
2632	65.1479
2616	65.3909
2600	65.2774
2584	65.2134
2568	65.3187
2552	65.2639
2536	65.1922
2520	65.2968
2504	65.2972
2488	65.1972
2472	65.146
2456	65.1146
2440	65.255
2424	65.926
2408	65.0602
2392	65.3067
2376	65.2056
2360	65.2572
2344	65.1219
2328	65.2854
2312	65.0824
2296	65.3223
2280	65.2545
2264	65.2402
2248	65.301
2232	65.2143
2216	65.2563
2200	65.096
2184	65.2699
2168	65.4031
2152	65.1347
2136	65.3951
2120	65.3482
2104	65.3166
2088	65.2748
2072	65.2191
2056	65.0526
2040	65.1685
2024	65.4091
2008	65.2372
1992	65.2255
1976	65.1773
1960	65.1292
1944	65.1623
1928	65.3243
1912	65.3445
1896	65.1901
1880	65.2835
1864	65.1633
1848	65.3292
1832	65.2881
1816	65.284
1800	65.2234
1784	65.2641
1768	65.1656
1752	65.0935
1736	65.002
1720	64.8363
1704	65.1831
1688	65.0844
1672	65.2162
1656	65.1589
1640	65.1033
1624	65.1706
1608	65.0941
1592	64.961
1576	65.1377
1560	65.0312
1544	65.0417
1528	64.9275
1512	65.0293
1496	64.9936
1480	65.1192
1464	65.1165
1448	64.7486
1432	65.0203
1416	65.0496
1400	65.1262
1384	64.8838
1368	64.8254
1352	65.0828
1336	64.8524
1320	64.94
1304	64.9454
1288	64.9883
1272	65.0102
1256	64.8361
1240	65.0171
1224	64.8337
1208	64.8366
1192	64.8436
1176	64.7955
1160	64.9093
1144	64.9289
1128	64.9908
1112	64.9999
1096	64.8109
1080	64.9542
1064	64.6515
1048	64.7229
1032	64.6201
1016	64.5791
1000	64.571
984	 64.6454
968	 64.5343
952	 64.2856
936	 64.1127
920	 64.5211
904	 64.4699
888	 64.1742
872	 63.9048
856	 63.9811
840	 64.1511
824	 64.0787
808	 63.9012
792	 63.9943
776	 63.7632
760	 63.8881
744	 63.733
728	 63.5149
712	 63.3372
696	 63.7816
680	 62.7671
664	 62.9673
648	 62.7813
632	 62.3189
616	 62.7579
600	 62.2328
584	 61.8667
568	 61.4511
552	 61.85
536	 61.9392
520	 60.9892
504	 59.9226
488	 59.256
472	 60.2833
456	 59.4853
440	 59.5553
424	 55.0798
408	 55.2309
392	 92.6419
376	 46.5385
370	 67.7962

File: C-4040-8_t61.asc
PE IR       SPECTRUM    SPECTRUM    ASCII       PEDS        1.60
  -1
C-AD3E~1.ASC
17/03/27
19:28:22.00
17/03/27
19:28:49.00
tln
$C-4040-8_t0061$<tbV0>[0.0,0.0,8.0,0.0,27,1,0]
27.028
64

2002,4.07
MIRTGS : RIGHTBACK : INTERNAL 2
MIR : ON : INTERNAL 2
OPTKBR

0.200000
8
8.000000
FILLER
RATIO
SPECTRUM
UNLOCKED 256

DOUBLE
64
COMBINED
1
0
0

0.002000
RATIO

1
0
TRUE
51149
0
LEFT NOT FITTED RIGHT NOT FITTED 0
NONE
NONE
15600
12
4.427000
51148
TRUE
1 0 8 72 0 0 0 0

15798

#HDR
-1
-1
#GR
µM
%T
2.38419e-05
0.0
2.000000
0.002000
12515
8
122.252
38.7729
#DATA
2.000000	 64.952
2.084000	 64.7736
2.168000	 64.1764
2.252000	 66.1972
2.336000	 66.5841
2.420000	 64.7168
2.504000	 64.7965
2.588000	 64.9326
2.672000	 65.1908
2.756000	 64.9352
2.840000	 65.1459
2.924000	 65.2964
3.008000	 65.2696
3.092000	 65.1268
3.176000	 64.9304
3.260000	 65.188
3.344000	 65.2344
3.428000	 64.8796
3.512000	 65.0158
3.596000	 65.1744
3.680000	 65.2654
3.764000	 65.3037
3.848000	 65.2758
3.932000	 65.2732
4.016000	 65.2633
4.100000	 65.4401
4.184000	 65.2634
4.268000	 65.3304
4.352000	 65.3591
4.436000	 65.3448
4.520000	 65.2902
4.604000	 65.2049
4.688000	 65.4684
4.772000	 65.3813
4.856000	 65.4311
4.940000	 65.345
5.024000	 65.4075
5.108000	 65.3306
5.192000	 65.3906
5.276000	 65.4047
5.359999	 65.3964
5.444000	 65.4068
5.528000	 65.373
5.612000	 65.2465
5.696000	 65.2174
5.780000	 65.0462
5.864000	 65.2996
5.948000	 65.2725
6.032000	 65.1923
6.116000	 65.4104
6.200000	 65.1405
6.284000	 65.0757
6.368000	 65.3016
6.452000	 65.1876
6.536000	 65.0949
6.620000	 65.133
6.704000	 64.8561
6.788000	 65.1597
6.872000	 64.9772
6.956000	 65.1954
7.040000	 65.1864
7.124000	 65.1113
7.208000	 65.2685
7.292000	 65.1039
7.376000	 65.1455
7.460000	 65.1319
7.544000	 65.021
7.628000	 65.0162
7.712000	 65.0676
7.796000	 64.9319
7.880000	 64.9903
7.964000	 65.0432
8.048000	 65.0666
8.132000	 65.0057
8.216000	 65.1039
8.300000	 65.0813
8.384000	 65.1416
8.468000	 64.9938
8.552000	 64.9486
8.635999	 64.8447
8.719999	 65.0591
8.804000	 64.5238
8.888000	 64.745
8.972000	 64.6875
9.056000	 65.1794
9.140000	 64.9873
9.224000	 65.0548
9.308000	 64.408
9.391999	 64.3496
9.475999	 64.776
9.560000	 64.4267
9.644000	 64.5989
9.728000	 64.4914
9.812000	 64.4237
9.896000	 64.699
9.980000	 64.9888
10.064	65.2122
10.148	65.0011
10.232	64.912
10.316	64.4665
10.4	64.5241
10.484	64.6664
10.568	64.6518
10.652	64.5212
10.736	64.7125
10.82	64.6821
10.904	64.6598
10.988	64.5289
11.072	64.3564
11.156	64.2458
11.24	64.4462
11.324	64.5138
11.408	64.1783
11.492	64.4244
11.576	64.6905
11.66	64.635
11.744	64.4925
11.828	64.6653
11.912	64.6983
11.996	64.4331
12.08	64.3955
12.164	64.3766
12.248	64.4006
12.332	64.6817
12.416	64.419
12.5	64.1669
12.584	64.1545
12.668	64.0882
12.752	64.1737
12.836	64.3454
12.92	64.4319
13.004	64.2958
13.088	64.0298
13.172	63.845
13.256	63.5642
13.34	63.7699
13.424	63.497
13.508	62.8364
13.592	62.8181
13.676	63.1708
13.76	63.5363
13.844	63.5077
13.928	63.4919
14.012	63.6109
14.096	63.7059
14.18	63.9973
14.264	64.2198
14.348	64.0549
14.432	63.8284
14.516	63.6716
14.6	63.4249
14.684	63.2095
14.768	63.1451
14.852	63.1236
14.936	63.0253
15.02	62.968
15.104	63.1405
15.188	63.379
15.272	63.3603
15.356	63.111
15.44	62.8424
15.524	62.7159
15.608	62.8114
15.692	62.8944
15.776	62.7439
15.86	62.5372
15.944	62.5749
16.028	62.8565
16.112	63.073
16.196	63.0366
16.28	62.8558
16.364	62.63
16.448	62.4149
16.532	62.2411
16.616	62.0141
16.7	61.7112
16.784	61.5678
16.868	61.764
16.952	62.1182
17.036	62.326
17.12	62.3257
17.204	62.241
17.288	62.1282
17.372	62.0183
17.456	62.0354
17.54	62.2351
17.624	62.4457
17.708	62.4587
17.792	62.2912
17.876	62.1395
17.96	62.1105
18.044	62.1323
18.128	62.1022
18.212	62.0067
18.296	61.8737
18.38	61.7191
18.464	61.5976
18.548	61.5874
18.632	61.6501
18.716	61.6202
18.8	61.4004
18.884	61.0838
18.968	60.8196
19.052	60.6327
19.136	60.4815
19.22	60.4121
19.304	60.5272
19.388	60.8177
19.472	61.1166
19.556	61.2301
19.64	61.1093
19.724	60.8897
19.808	60.7484
19.892	60.7255
19.976	60.6983
20.06	60.54
20.144	60.2775
20.228	60.0736
20.312	60.055
20.396	60.1748
20.48	60.2714
20.564	60.2266
20.648	60.0548
20.732	59.8459
20.816	59.6712
20.9	59.529
20.984	59.4018
21.068	59.3227
21.152	59.3914
21.236	59.7127
21.32	60.2952
21.404	60.9997
21.488	61.5702
21.572	61.7712
21.656	61.5324
21.74	60.9883
21.824	60.3773
21.908	59.8637
21.992	59.4389
22.076	58.9824
22.16	58.3999
22.244	57.7346
22.328	57.169
22.412	56.9059
22.496	57.0551
22.58	57.5634
22.664	58.2621
22.748	58.9338
22.832	59.3897
22.916	59.5048
23	59.2716
23.084	58.7582
23.168	58.1014
23.252	57.4731
23.336	57.0574
23.42	56.9602
23.504	57.2853
23.588	58.0525
23.672	59.1975
23.756	60.6462
23.84	62.2344
23.924	63.7554
24.008	65.0907
24.092	66.277
24.176	67.4233
24.26	68.5104
24.344	69.2662
24.428	69.2846
24.512	68.2402
24.596	66.1668
24.68	63.5106
24.764	61.0399
24.848	59.4372
24.932	59.5574
25.016	62.2744
25.1	68.2633
25.184	77.5372
25.268	89.1177
25.352	101.213
25.436	111.701
25.52	118.914
25.604	122.105
25.688	121.221
25.772	116.878
25.856	110.166
25.94	102.711
26.024	96.4797
26.108	93.2154
26.192	93.6609
26.276	97.1329
26.36	101.506
26.444	104.117
26.528	102.918
26.612	97.2288
26.696	88.0336
26.78	77.6818
26.864	68.9277
26.948	63.892
27.028	63.2499