Folder: Masteroppgave/Bakgrunnsmateriale/MATLAB/FTIR/ftir_data/subBb/Mapping_121 (part 5)

File: C-4040-8_t04.asc
PE IR       SPECTRUM    SPECTRUM    ASCII       PEDS        1.60
  -1
C-B52A~1.ASC
17/03/27
14:49:25.00
17/03/27
14:49:51.00
tln
$C-4040-8_t0004$<tbV0>[5.2,-13.0,8.0,0.0,27,1,0]
27.028
64

2002,4.07
MIRTGS : RIGHTBACK : INTERNAL 2
MIR : ON : INTERNAL 2
OPTKBR

0.200000
8
8.000000
FILLER
RATIO
SPECTRUM
UNLOCKED 256

DOUBLE
64
COMBINED
1
0
0

0.002000
RATIO

1
0
TRUE
51149
0
LEFT NOT FITTED RIGHT NOT FITTED 0
NONE
NONE
15600
12
4.427000
51148
TRUE
1 0 8 72 0 0 0 0

15798

#HDR
-1
-1
#GR
µM
%T
2.38419e-05
0.0
2.000000
0.002000
12515
8
69.624
-0.073742
#DATA
2.000000	 63.5407
2.084000	 62.9603
2.168000	 63.2424
2.252000	 66.3176
2.336000	 62.8322
2.420000	 62.8055
2.504000	 62.6987
2.588000	 62.2462
2.672000	 62.288
2.756000	 61.6214
2.840000	 61.0915
2.924000	 60.5457
3.008000	 60.0827
3.092000	 59.7188
3.176000	 59.3682
3.260000	 59.0116
3.344000	 58.4238
3.428000	 57.7436
3.512000	 57.2674
3.596000	 57.0606
3.680000	 56.6152
3.764000	 56.0387
3.848000	 55.5841
3.932000	 55.2077
4.016000	 54.6485
4.100000	 54.5679
4.184000	 53.8532
4.268000	 53.3164
4.352000	 53.1466
4.436000	 52.6783
4.520000	 52.2466
4.604000	 51.9529
4.688000	 51.5737
4.772000	 51.1484
4.856000	 50.8092
4.940000	 50.4526
5.024000	 50.2111
5.108000	 49.8245
5.192000	 49.4887
5.276000	 49.2385
5.359999	 48.8282
5.444000	 48.56
5.528000	 48.2496
5.612000	 48.0596
5.696000	 47.8293
5.780000	 47.565
5.864000	 47.3079
5.948000	 47.0945
6.032000	 46.912
6.116000	 46.5344
6.200000	 46.2544
6.284000	 46.0444
6.368000	 45.8364
6.452000	 45.655
6.536000	 45.4235
6.620000	 45.3637
6.704000	 44.9647
6.788000	 44.6879
6.872000	 44.8068
6.956000	 44.4172
7.040000	 44.3123
7.124000	 44.0173
7.208000	 43.8317
7.292000	 43.646
7.376000	 43.4897
7.460000	 43.1598
7.544000	 43.1362
7.628000	 42.9385
7.712000	 42.8247
7.796000	 42.5416
7.880000	 42.3898
7.964000	 42.3185
8.048000	 42.058
8.132000	 42.2105
8.216000	 41.7898
8.300000	 41.6801
8.384000	 41.5404
8.468000	 41.3486
8.552000	 41.2572
8.635999	 41.1969
8.719999	 40.9633
8.804000	 41.0308
8.888000	 40.8582
8.972000	 40.5739
9.056000	 40.5736
9.140000	 40.3025
9.224000	 40.2038
9.308000	 40.1292
9.391999	 40.0496
9.475999	 39.9172
9.560000	 39.9636
9.644000	 39.7915
9.728000	 39.6161
9.812000	 39.6823
9.896000	 39.543
9.980000	 39.1739
10.064	39.2046
10.148	39.2897
10.232	39.0544
10.316	38.6695
10.4	38.7987
10.484	38.7624
10.568	38.6668
10.652	38.5319
10.736	38.1251
10.82	38.0252
10.904	38.2653
10.988	38.1234
11.072	37.8798
11.156	37.7895
11.24	37.9638
11.324	37.776
11.408	37.7093
11.492	37.4033
11.576	37.1186
11.66	37.3321
11.744	37.19
11.828	36.774
11.912	36.9546
11.996	36.9023
12.08	36.5325
12.164	36.0924
12.248	36.4698
12.332	36.6632
12.416	36.4754
12.5	36.2086
12.584	36.1595
12.668	35.9107
12.752	35.7978
12.836	35.8548
12.92	35.7186
13.004	35.4099
13.088	34.9888
13.172	34.8778
13.256	35.5299
13.34	35.8625
13.424	35.9451
13.508	35.6405
13.592	34.7353
13.676	34.3611
13.76	34.6468
13.844	34.7774
13.928	34.888
14.012	34.9975
14.096	34.6432
14.18	33.8932
14.264	33.4387
14.348	33.6407
14.432	33.9086
14.516	33.6836
14.6	33.2871
14.684	33.2351
14.768	33.4353
14.852	33.5143
14.936	33.458
15.02	33.4347
15.104	33.4395
15.188	33.4498
15.272	33.3878
15.356	33.1553
15.44	32.8265
15.524	32.4999
15.608	32.2407
15.692	32.1319
15.776	32.2012
15.86	32.4015
15.944	32.5494
16.028	32.4878
16.112	32.3401
16.196	32.2967
16.28	32.285
16.364	32.0968
16.448	31.7343
16.532	31.4305
16.616	31.3069
16.7	31.2726
16.784	31.2551
16.868	31.2208
16.952	31.1031
17.036	30.8912
17.12	30.6791
17.204	30.5754
17.288	30.6325
17.372	30.775
17.456	30.8212
17.54	30.6807
17.624	30.4789
17.708	30.4002
17.792	30.471
17.876	30.5242
17.96	30.3574
18.044	29.9353
18.128	29.4711
18.212	29.2381
18.296	29.2986
18.38	29.4626
18.464	29.5265
18.548	29.4706
18.632	29.4033
18.716	29.384
18.8	29.359
18.884	29.2304
18.968	28.9607
19.052	28.6211
19.136	28.3418
19.22	28.2128
19.304	28.2121
19.388	28.2369
19.472	28.194
19.556	28.0576
19.64	27.8569
19.724	27.6371
19.808	27.4451
19.892	27.3266
19.976	27.3144
20.06	27.394
20.144	27.4911
20.228	27.5081
20.312	27.3859
20.396	27.1447
20.48	26.8717
20.564	26.669
20.648	26.5885
20.732	26.6248
20.816	26.7422
20.9	26.9015
20.984	27.0466
21.068	27.0936
21.152	26.9474
21.236	26.561
21.32	25.9717
21.404	25.2905
21.488	24.6486
21.572	24.1525
21.656	23.8872
21.74	23.9154
21.824	24.258
21.908	24.8497
21.992	25.5292
22.076	26.1011
22.16	26.4265
22.244	26.4955
22.328	26.4145
22.412	26.3175
22.496	26.2851
22.58	26.2982
22.664	26.2873
22.748	26.199
22.832	26.0269
22.916	25.7957
23	25.5343
23.084	25.2281
23.168	24.8556
23.252	24.4323
23.336	24.0175
23.42	23.7555
23.504	23.7826
23.588	24.1383
23.672	24.7429
23.756	25.4345
23.84	26.0774
23.924	26.6612
24.008	27.2675
24.092	27.9662
24.176	28.7378
24.26	29.4327
24.344	29.8036
24.428	29.6005
24.512	28.5872
24.596	26.6504
24.68	23.8067
24.764	20.2167
24.848	16.1164
24.932	11.9126
25.016	8.137172
25.1	5.291764
25.184	3.787308
25.268	3.794319
25.352	5.210650
25.436	7.795154
25.52	11.2614
25.604	15.3304
25.688	19.5367
25.772	23.2336
25.856	25.7921
25.94	26.9523
26.024	27.013
26.108	26.7702
26.192	26.9755
26.276	27.9289
26.36	29.2762
26.444	30.2383
26.528	29.9628
26.612	28.09
26.696	24.5603
26.78	19.5468
26.864	13.3341
26.948	6.401305
27.028	-0.073742

File: C-4040-8_t04_cm-1.asc
PE IR       SPECTRUM    SPECTRUM    ASCII       PEDS        1.60
  -1
C-996F~1.ASC
17/03/27
14:49:25.00
17/03/27
14:49:25.00
tln
$C-4040-8_t0004$<tbV0>[5.2,-13.0,8.0,0.0,27,1,0]
370
64

2002,4.07
MIRTGS : RIGHTBACK : INTERNAL 2
MIR : ON : INTERNAL 2
OPTKBR

0.200000
8
8.000000
FILLER
RATIO
SPECTRUM
UNLOCKED 256

DOUBLE
64
COMBINED
1
0
0

1.000000
RATIO

1
0
TRUE
51149
0
LEFT NOT FITTED RIGHT NOT FITTED 0
NONE
NONE
15600
12
4.427000
51148
TRUE
1 0 8 72 0 0 0 0

15798

#HDR
-1
-1
#GR
CM-1
%T
2.38419e-05
0.0
5000
-1.000000
4631
8
69.9467
-0.073742
#DATA
5000	63.5407
4984	63.1537
4968	62.9625
4952	63.3184
4936	62.608
4920	63.3767
4904	64.1479
4888	63.5059
4872	63.317
4856	63.5303
4840	63.6736
4824	62.9054
4808	63.1032
4792	63.3483
4776	63.4513
4760	63.112
4744	63.3031
4728	62.958
4712	63.4173
4696	63.2273
4680	63.4282
4664	63.1341
4648	63.0893
4632	63.3363
4616	63.2895
4600	63.4527
4584	63.2674
4568	63.397
4552	62.7249
4536	63.2415
4520	63.4972
4504	63.6868
4488	63.0153
4472	63.1047
4456	65.0905
4440	65.806
4424	60.4306
4408	65.8713
4392	65.8905
4376	64.3931
4360	63.5396
4344	63.4118
4328	63.0383
4312	63.0354
4296	63.0272
4280	62.8598
4264	62.8472
4248	62.7847
4232	62.8308
4216	62.8901
4200	62.77
4184	62.6417
4168	62.457
4152	62.3297
4136	62.7716
4120	62.5448
4104	62.6849
4088	62.7556
4072	62.4051
4056	62.8142
4040	62.549
4024	62.6033
4008	62.7552
3992	62.6525
3976	62.1505
3960	62.5036
3944	62.579
3928	62.6597
3912	62.3989
3896	62.6393
3880	62.1069
3864	62.2467
3848	62.3535
3832	62.2417
3816	62.1694
3800	62.3392
3784	62.078
3768	62.2134
3752	62.1022
3736	62.1119
3720	61.7926
3704	62.0452
3688	61.9989
3672	61.9434
3656	61.765
3640	61.3571
3624	61.5033
3608	61.3415
3592	61.5098
3576	61.4232
3560	61.2241
3544	61.2303
3528	61.2216
3512	60.9196
3496	60.9502
3480	61.1345
3464	60.9271
3448	60.8883
3432	60.7441
3416	60.5896
3400	60.4453
3384	60.5113
3368	60.3397
3352	60.3071
3336	60.2639
3320	60.0745
3304	60.0525
3288	59.9224
3272	60.0032
3256	59.763
3240	59.595
3224	59.7161
3208	59.8059
3192	59.6826
3176	59.3443
3160	59.3681
3144	59.3659
3128	59.1485
3112	59.1813
3096	59.1018
3080	58.8866
3064	58.9863
3048	58.8437
3032	58.7415
3016	58.6265
3000	58.5699
2984	58.3664
2968	58.2131
2952	58.0662
2936	58.0217
2920	57.7789
2904	57.6376
2888	57.6176
2872	57.63
2856	57.4314
2840	57.5483
2824	57.3299
2808	57.2494
2792	56.9889
2776	56.9673
2760	56.8477
2744	56.8842
2728	56.6712
2712	56.4944
2696	56.3934
2680	56.2631
2664	56.2373
2648	55.9421
2632	55.9129
2616	55.6173
2600	55.6188
2584	55.4517
2568	55.364
2552	55.259
2536	55.126
2520	55.0008
2504	54.9895
2488	54.6669
2472	54.6924
2456	54.5261
2440	54.5675
2424	54.2471
2408	54.0759
2392	53.8265
2376	53.8939
2360	53.7055
2344	53.3179
2328	53.3517
2312	53.2822
2296	53.1116
2280	52.9351
2264	52.8824
2248	52.6887
2232	52.4945
2216	52.2666
2200	52.1848
2184	51.968
2168	51.9448
2152	51.6948
2136	51.6489
2120	51.3185
2104	51.3344
2088	51.1566
2072	50.8349
2056	50.79
2040	50.5953
2024	50.4406
2008	50.3839
1992	50.2689
1976	50.0038
1960	49.8635
1944	49.6979
1928	49.4866
1912	49.3642
1896	49.2362
1880	48.9897
1864	48.7968
1848	48.7095
1832	48.5353
1816	48.4123
1800	48.2248
1784	48.0725
1768	47.9497
1752	47.7163
1736	47.6616
1720	47.4001
1704	47.3305
1688	47.1852
1672	47.0043
1656	46.9969
1640	46.5614
1624	46.4674
1608	46.211
1592	46.0419
1576	45.8156
1560	45.9021
1544	45.7
1528	45.4297
1512	45.3196
1496	45.0632
1480	44.73
1464	44.5528
1448	44.6274
1432	44.2755
1416	44.1939
1400	44.0544
1384	43.7422
1368	43.5958
1352	43.3752
1336	43.1155
1320	43.0954
1304	42.9478
1288	42.7324
1272	42.3681
1256	42.3232
1240	42.0334
1224	42.032
1208	41.6309
1192	41.5331
1176	41.2941
1160	41.2312
1144	40.9604
1128	40.9631
1112	40.4842
1096	40.329
1080	40.0869
1064	40.0359
1048	39.9221
1032	39.5896
1016	39.6683
1000	39.1976
984	 39.3045
968	 38.6782
952	 38.7423
936	 38.3805
920	 38.1458
904	 37.8909
888	 37.964
872	 37.5321
856	 37.3516
840	 36.9282
824	 36.1967
808	 36.5764
792	 36.064
776	 35.8066
760	 34.8289
744	 35.9421
728	 34.5584
712	 34.9284
696	 33.7304
680	 33.2796
664	 33.4361
648	 32.8583
632	 32.305
616	 32.3011
600	 31.2826
584	 30.6725
568	 30.5176
552	 29.5284
536	 29.3931
520	 28.2071
504	 27.3869
488	 26.8371
472	 26.8179
456	 25.0259
440	 26.2292
424	 24.1202
408	 28.6253
392	 10.821
376	 28.5837
370	 -0.073742

File: C-4040-8_t05.asc
PE IR       SPECTRUM    SPECTRUM    ASCII       PEDS        1.60
  -1
C-B52E~1.ASC
17/03/27
14:54:02.00
17/03/27
14:54:28.00
tln
$C-4040-8_t0005$<tbV0>[2.6,-13.0,8.0,0.0,27,1,0]
27.028
64

2002,4.07
MIRTGS : RIGHTBACK : INTERNAL 2
MIR : ON : INTERNAL 2
OPTKBR

0.200000
8
8.000000
FILLER
RATIO
SPECTRUM
UNLOCKED 256

DOUBLE
64
COMBINED
1
0
0

0.002000
RATIO

1
0
TRUE
51149
0
LEFT NOT FITTED RIGHT NOT FITTED 0
NONE
NONE
15600
12
4.427000
51148
TRUE
1 0 8 72 0 0 0 0

15798

#HDR
-1
-1
#GR
µM
%T
2.38419e-05
0.0
2.000000
0.002000
12515
8
70.2186
16.9963
#DATA
2.000000	 63.3142
2.084000	 63.019
2.168000	 63.9505
2.252000	 67.685
2.336000	 63.5891
2.420000	 63.3631
2.504000	 63.0715
2.588000	 63.2354
2.672000	 63.1362
2.756000	 62.5607
2.840000	 62.0773
2.924000	 61.6974
3.008000	 61.3821
3.092000	 61.042
3.176000	 60.9836
3.260000	 60.6432
3.344000	 60.3282
3.428000	 59.7776
3.512000	 59.481
3.596000	 59.2788
3.680000	 58.8984
3.764000	 58.556
3.848000	 58.144
3.932000	 57.9831
4.016000	 57.5061
4.100000	 57.3065
4.184000	 57.0161
4.268000	 56.6896
4.352000	 56.4557
4.436000	 56.057
4.520000	 55.8624
4.604000	 55.5211
4.688000	 55.3354
4.772000	 55.0102
4.856000	 54.6621
4.940000	 54.3889
5.024000	 54.3309
5.108000	 54.0487
5.192000	 53.7824
5.276000	 53.6609
5.359999	 53.3097
5.444000	 53.0877
5.528000	 52.9143
5.612000	 52.6995
5.696000	 52.5808
5.780000	 52.3361
5.864000	 52.1317
5.948000	 52.0673
6.032000	 51.9631
6.116000	 51.6065
6.200000	 51.4259
6.284000	 51.0937
6.368000	 51.0101
6.452000	 50.9516
6.536000	 50.8183
6.620000	 50.7239
6.704000	 50.4842
6.788000	 50.33
6.872000	 50.137
6.956000	 49.9128
7.040000	 49.9349
7.124000	 49.5654
7.208000	 49.5565
7.292000	 49.2138
7.376000	 49.1289
7.460000	 48.9812
7.544000	 48.9006
7.628000	 48.7494
7.712000	 48.664
7.796000	 48.4734
7.880000	 48.4312
7.964000	 48.3202
8.048000	 48.2517
8.132000	 48.1593
8.216000	 48.0254
8.300000	 47.8768
8.384000	 47.7972
8.468000	 47.5776
8.552000	 47.4301
8.635999	 47.4885
8.719999	 47.3693
8.804000	 47.2532
8.888000	 47.1731
8.972000	 46.957
9.056000	 46.9177
9.140000	 47.0041
9.224000	 46.8688
9.308000	 46.6212
9.391999	 46.688
9.475999	 46.4903
9.560000	 46.5922
9.644000	 46.517
9.728000	 46.3271
9.812000	 46.2648
9.896000	 46.193
9.980000	 46.114
10.064	45.9431
10.148	45.8801
10.232	45.7207
10.316	45.5724
10.4	45.5764
10.484	45.369
10.568	45.2067
10.652	45.3232
10.736	45.3065
10.82	45.0842
10.904	45.1012
10.988	44.8323
11.072	44.7431
11.156	44.5615
11.24	44.6145
11.324	44.6953
11.408	44.5371
11.492	44.2205
11.576	43.8845
11.66	44.2951
11.744	44.5656
11.828	44.2026
11.912	43.8601
11.996	43.6985
12.08	43.9616
12.164	44.2652
12.248	44.0677
12.332	43.6574
12.416	43.5031
12.5	43.7296
12.584	43.2792
12.668	43.0446
12.752	43.6092
12.836	43.6967
12.92	43.5193
13.004	43.549
13.088	43.1566
13.172	42.6388
13.256	42.6366
13.34	42.8478
13.424	42.9418
13.508	42.7032
13.592	42.2851
13.676	42.2289
13.76	42.3459
13.844	42.2218
13.928	42.157
14.012	42.1182
14.096	41.9959
14.18	41.8038
14.264	41.7253
14.348	41.857
14.432	41.842
14.516	41.6526
14.6	41.4386
14.684	41.1401
14.768	40.8683
14.852	40.8081
14.936	40.9189
15.02	41.0204
15.104	41.183
15.188	41.3951
15.272	41.3427
15.356	41.072
15.44	40.9015
15.524	40.7868
15.608	40.5497
15.692	40.378
15.776	40.4627
15.86	40.5538
15.944	40.4632
16.028	40.3366
16.112	40.2431
16.196	40.1408
16.28	40.0763
16.364	40.0531
16.448	39.9666
16.532	39.7663
16.616	39.5519
16.7	39.4429
16.784	39.4066
16.868	39.332
16.952	39.196
17.036	39.0137
17.12	38.7802
17.204	38.5838
17.288	38.5267
17.372	38.5363
17.456	38.4777
17.54	38.389
17.624	38.4113
17.708	38.5229
17.792	38.53
17.876	38.3082
17.96	37.9562
18.044	37.6751
18.128	37.5782
18.212	37.6304
18.296	37.7316
18.38	37.8078
18.464	37.8274
18.548	37.7927
18.632	37.7485
18.716	37.7599
18.8	37.8313
18.884	37.8492
18.968	37.666
19.052	37.2543
19.136	36.7482
19.22	36.3217
19.304	36.0658
19.388	35.9707
19.472	35.9851
19.556	36.0326
19.64	36.0313
19.724	35.9575
19.808	35.8976
19.892	35.9807
19.976	36.2338
20.06	36.5075
20.144	36.5695
20.228	36.2804
20.312	35.6869
20.396	34.9817
20.48	34.4013
20.564	34.1309
20.648	34.2305
20.732	34.6208
20.816	35.1267
20.9	35.5517
20.984	35.7494
21.068	35.6666
21.152	35.351
21.236	34.9216
21.32	34.512
21.404	34.198
21.488	33.9595
21.572	33.7281
21.656	33.4923
21.74	33.3436
21.824	33.4082
21.908	33.7221
21.992	34.1743
22.076	34.5721
22.16	34.7716
22.244	34.7579
22.328	34.6052
22.412	34.3941
22.496	34.1433
22.58	33.8493
22.664	33.5428
22.748	33.2966
22.832	33.1628
22.916	33.1109
23	33.0436
23.084	32.8787
23.168	32.6502
23.252	32.5187
23.336	32.6831
23.42	33.2562
23.504	34.1687
23.588	35.1532
23.672	35.8737
23.756	36.0641
23.84	35.6199
23.924	34.6427
24.008	33.3355
24.092	31.8954
24.176	30.4966
24.26	29.2191
24.344	28.0973
24.428	27.1478
24.512	26.3633
24.596	25.6764
24.68	24.9602
24.764	24.0688
24.848	22.8763
24.932	21.3734
25.016	19.7272
25.1	18.2388
25.184	17.2513
25.268	17.0176
25.352	17.6473
25.436	19.1567
25.52	21.4911
25.604	24.5711
25.688	28.3123
25.772	32.6284
25.856	37.3879
25.94	42.3017
26.024	46.8859
26.108	50.5453
26.192	52.7542
26.276	53.1479
26.36	51.6856
26.444	48.5164
26.528	43.9989
26.612	38.6599
26.696	33.3097
26.78	28.98
26.864	26.7496
26.948	27.3343
27.028	30.4032

File: C-4040-8_t05_cm-1.asc
PE IR       SPECTRUM    SPECTRUM    ASCII       PEDS        1.60
  -1
C-99EE~1.ASC
17/03/27
14:54:02.00
17/03/27
14:54:02.00
tln
$C-4040-8_t0005$<tbV0>[2.6,-13.0,8.0,0.0,27,1,0]
370
64

2002,4.07
MIRTGS : RIGHTBACK : INTERNAL 2
MIR : ON : INTERNAL 2
OPTKBR

0.200000
8
8.000000
FILLER
RATIO
SPECTRUM
UNLOCKED 256

DOUBLE
64
COMBINED
1
0
0

1.000000
RATIO

1
0
TRUE
51149
0
LEFT NOT FITTED RIGHT NOT FITTED 0
NONE
NONE
15600
12
4.427000
51148
TRUE
1 0 8 72 0 0 0 0

15798

#HDR
-1
-1
#GR
CM-1
%T
2.38419e-05
0.0
5000
-1.000000
4631
8
70.4488
16.997
#DATA
5000	63.3142
4984	63.8811
4968	63.8256
4952	63.4072
4936	62.9945
4920	63.4508
4904	64.6278
4888	63.2759
4872	63.5288
4856	63.9899
4840	63.4878
4824	63.1753
4808	63.2612
4792	63.0666
4776	63.7427
4760	62.9088
4744	63.589
4728	62.9801
4712	63.3653
4696	63.4044
4680	63.3091
4664	63.0658
4648	63.6903
4632	63.7449
4616	63.8345
4600	63.8542
4584	64.1421
4568	63.7303
4552	63.7911
4536	63.7911
4520	63.7574
4504	63.6963
4488	63.5541
4472	64.1748
4456	65.0048
4440	67.2169
4424	63.8055
4408	58.082
4392	59.2633
4376	65.4197
4360	64.2967
4344	64.2225
4328	63.7467
4312	63.6072
4296	63.5009
4280	63.6569
4264	63.6535
4248	63.272
4232	63.467
4216	63.4047
4200	63.3454
4184	62.9989
4168	62.2797
4152	62.7532
4136	63.1601
4120	63.1122
4104	63.0859
4088	63.4503
4072	62.9943
4056	63.305
4040	63.3676
4024	63.2333
4008	63.2491
3992	63.0197
3976	62.7833
3960	63.189
3944	63.2418
3928	63.109
3912	63.163
3896	63.1361
3880	62.7214
3864	63.2353
3848	63.2159
3832	62.9326
3816	62.6994
3800	63.0382
3784	62.8237
3768	62.7421
3752	63.0463
3736	63.186
3720	62.8488
3704	62.6294
3688	62.8408
3672	62.7395
3656	62.7192
3640	62.2353
3624	62.513
3608	62.5959
3592	62.41
3576	62.2982
3560	62.4495
3544	62.2021
3528	62.164
3512	62.0187
3496	62.1068
3480	62.0319
3464	62.0507
3448	62.1436
3432	61.7707
3416	61.7971
3400	61.7263
3384	61.8281
3368	61.6769
3352	61.6587
3336	61.6587
3320	61.2856
3304	61.4172
3288	61.3321
3272	61.3975
3256	61.2378
3240	61.0609
3224	61.065
3208	61.2679
3192	60.893
3176	60.9484
3160	60.864
3144	60.8744
3128	60.7343
3112	60.7792
3096	60.716
3080	60.657
3064	60.662
3048	60.6
3032	60.4482
3016	60.5401
3000	60.3072
2984	60.2311
2968	60.0999
2952	59.8762
2936	60.0257
2920	59.8033
2904	59.6582
2888	59.6793
2872	59.688
2856	59.6057
2840	59.6407
2824	59.5294
2808	59.366
2792	59.3377
2776	59.1789
2760	59.1136
2744	59.0683
2728	58.9987
2712	58.8039
2696	58.9887
2680	58.7273
2664	58.5314
2648	58.4779
2632	58.4646
2616	58.2685
2600	58.1669
2584	58.1485
2568	58.0138
2552	58.0167
2536	57.8849
2520	57.7768
2504	57.7239
2488	57.4776
2472	57.5426
2456	57.337
2440	57.3072
2424	56.8843
2408	56.8002
2392	57.0435
2376	56.992
2360	56.7906
2344	56.7018
2328	56.5837
2312	56.4982
2296	56.3987
2280	56.1526
2264	56.2502
2248	55.9971
2232	55.9366
2216	55.8164
2200	55.6209
2184	55.6215
2168	55.4762
2152	55.378
2136	55.4187
2120	55.1468
2104	55.1203
2088	55.0483
2072	54.8438
2056	54.6441
2040	54.7966
2024	54.3836
2008	54.3896
1992	54.3747
1976	54.0926
1960	54.0583
1944	53.8732
1928	53.7922
1912	53.7662
1896	53.6587
1880	53.3981
1864	53.3229
1848	53.2479
1832	53.0874
1816	53.014
1800	52.8855
1784	52.738
1768	52.5835
1752	52.5587
1736	52.4068
1720	52.3077
1704	52.1801
1688	52.0935
1672	51.9762
1656	52.0499
1640	51.6622
1624	51.4153
1608	51.375
1592	51.0831
1576	51.2072
1560	51.1838
1544	51.092
1528	50.8056
1512	50.696
1496	50.544
1480	50.3184
1464	50.2829
1448	49.9536
1432	49.8225
1416	49.8496
1400	49.5375
1384	49.5167
1368	49.2108
1352	49.105
1336	48.9363
1320	48.9482
1304	48.6885
1288	48.5491
1272	48.4259
1256	48.3215
1240	48.1497
1224	48.1367
1208	47.9168
1192	47.79
1176	47.5039
1160	47.5184
1144	47.3318
1128	47.2726
1112	46.9087
1096	46.9818
1080	46.7489
1064	46.669
1048	46.5543
1032	46.3159
1016	46.2454
1000	46.1032
984	 45.8793
968	 45.584
952	 45.3144
936	 45.3372
920	 45.1207
904	 44.7576
888	 44.6259
872	 44.3115
856	 44.456
840	 43.8862
824	 44.2236
808	 43.4941
792	 43.0305
776	 43.5529
760	 42.6939
744	 42.9248
728	 42.3367
712	 42.0793
696	 41.8786
680	 41.0577
664	 41.0806
648	 40.9113
632	 40.5347
616	 40.1035
600	 39.4717
584	 38.7709
568	 38.394
552	 37.5809
536	 37.7438
520	 36.2788
504	 35.9079
488	 34.3417
472	 35.1802
456	 33.8337
440	 33.3474
424	 35.1204
408	 26.3823
392	 21.1794
376	 39.7163
370	 30.4032

File: C-4040-8_t06.asc
PE IR       SPECTRUM    SPECTRUM    ASCII       PEDS        1.60
  -1
C-B522~1.ASC
17/03/27
14:58:38.00
17/03/27
14:59:05.00
tln
$C-4040-8_t0006$<tbV0>[0.0,-13.0,8.0,0.0,27,1,0]
27.028
64

2002,4.07
MIRTGS : RIGHTBACK : INTERNAL 2
MIR : ON : INTERNAL 2
OPTKBR

0.200000
8
8.000000
FILLER
RATIO
SPECTRUM
UNLOCKED 256

DOUBLE
64
COMBINED
1
0
0

0.002000
RATIO

1
0
TRUE
51149
0
LEFT NOT FITTED RIGHT NOT FITTED 0
NONE
NONE
15600
12
4.427000
51148
TRUE
1 0 8 72 0 0 0 0

15798

#HDR
-1
-1
#GR
µM
%T
2.38419e-05
0.0
2.000000
0.002000
12515
8
70.5742
-7.871649
#DATA
2.000000	 64.118
2.084000	 63.7429
2.168000	 64.1176
2.252000	 67.6489
2.336000	 63.547
2.420000	 63.5829
2.504000	 63.4411
2.588000	 63.4949
2.672000	 63.4157
2.756000	 63.1456
2.840000	 62.6962
2.924000	 62.4453
3.008000	 62.2719
3.092000	 61.972
3.176000	 61.7832
3.260000	 61.5124
3.344000	 61.2972
3.428000	 60.8352
3.512000	 60.8412
3.596000	 60.3709
3.680000	 60.2686
3.764000	 59.9127
3.848000	 59.6441
3.932000	 59.5466
4.016000	 59.344
4.100000	 59.1786
4.184000	 58.7924
4.268000	 58.469
4.352000	 58.3838
4.436000	 58.1521
4.520000	 57.8079
4.604000	 57.5565
4.688000	 57.3539
4.772000	 57.3013
4.856000	 56.9948
4.940000	 56.6823
5.024000	 56.6179
5.108000	 56.4177
5.192000	 56.2945
5.276000	 56.1286
5.359999	 55.8496
5.444000	 55.5744
5.528000	 55.5351
5.612000	 55.4753
5.696000	 55.37
5.780000	 55.1891
5.864000	 55.0729
5.948000	 54.9812
6.032000	 54.9124
6.116000	 54.5439
6.200000	 54.3114
6.284000	 54.2132
6.368000	 54.145
6.452000	 54.0902
6.536000	 53.8661
6.620000	 53.9689
6.704000	 53.6926
6.788000	 53.5575
6.872000	 53.493
6.956000	 53.2288
7.040000	 53.0022
7.124000	 52.8283
7.208000	 52.7922
7.292000	 52.6632
7.376000	 52.5248
7.460000	 52.4336
7.544000	 52.4254
7.628000	 52.2629
7.712000	 52.1107
7.796000	 52.0819
7.880000	 51.842
7.964000	 51.8901
8.048000	 51.6569
8.132000	 51.6711
8.216000	 51.5873
8.300000	 51.5155
8.384000	 51.3849
8.468000	 51.3149
8.552000	 51.2962
8.635999	 51.2139
8.719999	 51.2113
8.804000	 51.1334
8.888000	 50.9425
8.972000	 50.7839
9.056000	 50.6572
9.140000	 50.6616
9.224000	 50.5751
9.308000	 50.3829
9.391999	 50.442
9.475999	 50.4558
9.560000	 50.3593
9.644000	 50.2524
9.728000	 50.2263
9.812000	 50.3263
9.896000	 49.9416
9.980000	 49.9128
10.064	49.8662
10.148	49.9799
10.232	49.8415
10.316	49.5986
10.4	49.4329
10.484	49.4935
10.568	49.3538
10.652	49.3124
10.736	49.1462
10.82	49.0151
10.904	48.9771
10.988	48.8685
11.072	48.9968
11.156	49.1443
11.24	49.1768
11.324	49.1009
11.408	48.6592
11.492	48.8841
11.576	49.0078
11.66	48.8708
11.744	48.5533
11.828	48.3967
11.912	48.2597
11.996	48.502
12.08	48.2146
12.164	47.5547
12.248	47.3618
12.332	47.4995
12.416	47.4846
12.5	47.4173
12.584	47.5347
12.668	47.5076
12.752	47.5538
12.836	47.9375
12.92	47.9163
13.004	47.7692
13.088	47.6694
13.172	47.6279
13.256	47.5438
13.34	47.385
13.424	47.2073
13.508	47.1085
13.592	47.2468
13.676	47.1725
13.76	46.796
13.844	46.775
13.928	46.9344
14.012	46.6758
14.096	46.3767
14.18	46.2892
14.264	46.2508
14.348	46.2865
14.432	46.2299
14.516	46.093
14.6	45.992
14.684	45.9274
14.768	46.0458
14.852	46.19
14.936	46.1328
15.02	46.0434
15.104	46.009
15.188	45.9379
15.272	45.7892
15.356	45.5993
15.44	45.4749
15.524	45.3826
15.608	45.2722
15.692	45.271
15.776	45.3042
15.86	45.1743
15.944	45.0348
16.028	45.0748
16.112	45.1508
16.196	45.0753
16.28	44.8877
16.364	44.7796
16.448	44.8042
16.532	44.7837
16.616	44.618
16.7	44.4399
16.784	44.3484
16.868	44.2885
16.952	44.2165
17.036	44.2004
17.12	44.3057
17.204	44.464
17.288	44.5385
17.372	44.488
17.456	44.3663
17.54	44.1966
17.624	44.0073
17.708	43.9182
17.792	44.0086
17.876	44.1491
17.96	44.1024
18.044	43.8129
18.128	43.4966
18.212	43.3581
18.296	43.3564
18.38	43.3234
18.464	43.2011
18.548	43.0673
18.632	42.9928
18.716	42.9583
18.8	42.894
18.884	42.7477
18.968	42.5424
19.052	42.3806
19.136	42.3581
19.22	42.4624
19.304	42.5866
19.388	42.6492
19.472	42.6587
19.556	42.6403
19.64	42.5713
19.724	42.4368
19.808	42.325
19.892	42.3805
19.976	42.6485
20.06	42.9915
20.144	43.1771
20.228	43.0507
20.312	42.6202
20.396	42.0176
20.48	41.4211
20.564	40.9988
20.648	40.8756
20.732	41.0829
20.816	41.5314
20.9	42.0217
20.984	42.3231
21.068	42.2897
21.152	41.9379
21.236	41.4288
21.32	40.9742
21.404	40.7134
21.488	40.6629
21.572	40.7471
21.656	40.8658
21.74	40.945
21.824	40.9345
21.908	40.7978
21.992	40.5332
22.076	40.1987
22.16	39.9141
22.244	39.8016
22.328	39.8898
22.412	40.0759
22.496	40.1582
22.58	39.9645
22.664	39.4448
22.748	38.7245
22.832	38.03
22.916	37.5805
23	37.4821
23.084	37.7116
23.168	38.1354
23.252	38.5819
23.336	38.892
23.42	38.9987
23.504	38.8933
23.588	38.6208
23.672	38.268
23.756	37.9621
23.84	37.8234
23.924	37.9351
24.008	38.2843
24.092	38.7199
24.176	38.9841
24.26	38.8847
24.344	38.3487
24.428	37.4915
24.512	36.7011
24.596	36.4374
24.68	36.9004
24.764	37.7991
24.848	38.4437
24.932	38.1148
25.016	36.5515
25.1	34.1794
25.184	31.738
25.268	29.8932
25.352	29.0039
25.436	29.288
25.52	30.845
25.604	33.6209
25.688	36.9608
25.772	39.5238
25.856	39.6997
25.94	36.2962
26.024	29.1641
26.108	19.5199
26.192	9.329543
26.276	0.608861
26.36	-5.223266
26.444	-7.719199
26.528	-7.258059
26.612	-4.565136
26.696	-0.275526
26.78	5.300680
26.864	12.16
26.948	20.3531
27.028	29.0739