Folder: Masteroppgave/Bakgrunnsmateriale/MATLAB/FTIR/ftir_data/subBb/Mapping_36 (part 13)

File: C-4040-8_t27_cm-1.asc
PE IR       SPECTRUM    SPECTRUM    ASCII       PEDS        1.60
  -1
C-9AEF~1.ASC
17/05/02
13:11:19.00
17/05/02
13:11:19.00
tln
$C-4040-8_t0027$<tbV0>[2.5,7.0,8.0,0.0,22,1,0]
370
64

2002,4.07
MIRTGS : RIGHTBACK : INTERNAL 2
MIR : ON : INTERNAL 2
OPTKBR

0.200000
8
8.000000
FILLER
RATIO
SPECTRUM
UNLOCKED 256

DOUBLE
64
COMBINED
1
0
0

1.000000
RATIO

1
0
TRUE
51149
0
LEFT NOT FITTED RIGHT NOT FITTED 0
NONE
NONE
15600
12
4.427000
51148
TRUE
1 0 8 72 0 0 0 0

15798

#HDR
-1
-1
#GR
CM-1
%T
2.38419e-05
0.0
7800
-1.000000
7431
8
87.6974
36.4154
#DATA
7800	87.236
7775	63.6271
7750	72.4441
7725	64.6379
7700	70.7599
7675	77.657
7650	73.1232
7625	65.4519
7600	66.1311
7575	70.5077
7550	70.1603
7525	66.518
7500	61.6242
7475	65.0243
7450	66.1931
7425	67.8012
7400	64.7328
7375	63.2544
7350	66.8509
7325	66.4844
7300	62.1534
7275	66.4953
7250	62.6863
7225	69.5188
7200	66.5507
7175	62.6615
7150	66.0203
7125	64.4122
7100	63.1462
7075	67.081
7050	62.7491
7025	64.3293
7000	65.6118
6975	63.543
6950	64.4418
6925	64.7352
6900	65.1838
6875	65.5503
6850	65.8612
6825	63.1048
6800	65.6732
6775	64.6995
6750	63.8375
6725	61.9938
6700	64.2775
6675	63.204
6650	65.1049
6625	66.0297
6600	65.412
6575	65.3019
6550	63.6729
6525	63.9031
6500	65.2335
6475	64.5282
6450	64.5698
6425	65.3076
6400	66.0961
6375	65.1552
6350	66.1733
6325	65.4337
6300	65.6464
6275	65.7692
6250	65.4227
6225	64.8249
6200	66.6483
6175	64.4356
6150	65.205
6125	64.4307
6100	63.9935
6075	64.3737
6050	66.1681
6025	63.9674
6000	64.5217
5975	64.3676
5950	64.7952
5925	65.0889
5900	65.6929
5875	65.1568
5850	65.0091
5825	64.9233
5800	64.9528
5775	64.8444
5750	65.656
5725	64.3747
5700	64.7966
5675	65.7655
5650	65.8125
5625	65.6589
5600	65.888
5575	65.0264
5550	64.7254
5525	65.1217
5500	65.1251
5475	65.0564
5450	65.6707
5425	65.754
5400	65.3762
5375	66.0273
5350	65.1046
5325	64.8969
5300	64.1343
5275	62.9777
5250	65.124
5225	64.5309
5200	64.8819
5175	64.8864
5150	64.9643
5125	65.3179
5100	65.1758
5075	64.9201
5050	64.9751
5025	65.2795
5000	65.5238
4975	64.9356
4950	64.797
4925	64.9595
4900	64.8071
4875	64.7829
4850	65.1125
4825	65.1726
4800	64.9054
4775	65.2922
4750	64.9535
4725	64.7073
4700	64.8351
4675	65.1133
4650	65.001
4625	65.0736
4600	65.0817
4575	65.3802
4550	65.151
4525	65.4732
4500	65.2994
4475	65.3903
4450	65.6553
4425	65.6309
4400	64.6315
4375	64.5901
4350	65.5531
4325	65.4311
4300	65.5941
4275	65.0081
4250	65.1657
4225	65.1893
4200	64.9022
4175	65.1977
4150	65.2792
4125	65.2203
4100	65.3749
4075	65.1047
4050	65.3979
4025	65.1862
4000	65.2334
3975	64.9643
3950	65.2087
3925	65.4462
3900	65.1522
3875	65.3564
3850	65.279
3825	65.4096
3800	65.0174
3775	65.275
3750	65.4046
3725	65.2836
3700	65.3173
3675	65.2119
3650	65.1863
3625	65.1211
3600	65.2241
3575	65.3706
3550	65.3002
3525	65.2514
3500	65.0844
3475	64.9953
3450	65.4126
3425	65.4193
3400	65.2436
3375	65.3288
3350	65.4518
3325	65.3646
3300	65.295
3275	65.33
3250	65.2949
3225	65.2942
3200	65.1696
3175	65.4071
3150	65.3407
3125	65.2267
3100	65.2362
3075	65.2927
3050	65.3431
3025	65.2444
3000	65.4989
2975	65.3007
2950	65.1862
2925	64.9276
2900	65.0288
2875	65.0494
2850	65.0457
2825	65.3084
2800	65.3173
2775	65.2518
2750	65.1668
2725	65.4194
2700	65.478
2675	65.3722
2650	65.3176
2625	65.4731
2600	65.2948
2575	65.3332
2550	65.5363
2525	65.5005
2500	65.565
2475	65.3487
2450	65.3429
2425	65.2681
2400	65.3009
2375	65.389
2350	65.4263
2325	65.3207
2300	65.4551
2275	65.3463
2250	65.4539
2225	65.3352
2200	65.3795
2175	65.4172
2150	65.3865
2125	65.4397
2100	65.4302
2075	65.435
2050	65.3986
2025	65.4146
2000	65.4845
1975	65.5685
1950	65.4548
1925	65.506
1900	65.3196
1875	65.4495
1850	65.3838
1825	65.37
1800	65.4569
1775	65.3376
1750	65.2598
1725	65.122
1700	65.35
1675	65.2845
1650	65.2745
1625	65.3138
1600	65.275
1575	65.1185
1550	65.1155
1525	65.1997
1500	65.2393
1475	65.1955
1450	65.0417
1425	65.2147
1400	65.1475
1375	65.1601
1350	65.1873
1325	65.1022
1300	65.126
1275	65.1831
1250	65.0807
1225	65.1358
1200	65.1334
1175	65.0196
1150	64.8776
1125	65.1072
1100	64.9469
1075	64.9439
1050	64.7926
1025	64.6061
1000	64.9653
975	 65.0297
950	 64.6004
925	 65.0834
900	 63.4697
875	 64.4732
850	 64.5181
825	 64.6439
800	 64.211
775	 64.1952
750	 63.9837
725	 63.8917
700	 63.3003
675	 63.2293
650	 63.2763
625	 63.1928
600	 62.8595
575	 62.4754
550	 62.5795
525	 61.6848
500	 61.3092
475	 59.8594
450	 59.9343
425	 59.9665
400	 62.0912
375	 41.6457
370	 36.9885

File: C-4040-8_t28.asc
PE IR       SPECTRUM    SPECTRUM    ASCII       PEDS        1.60
  -1
C-CD2A~1.ASC
17/05/02
13:16:01.00
17/05/02
13:16:27.00
tln
$C-4040-8_t0028$<tbV0>[-2.5,7.0,8.0,0.0,22,1,0]
27.028
64

2002,4.07
MIRTGS : RIGHTBACK : INTERNAL 2
MIR : ON : INTERNAL 2
OPTKBR

0.200000
8
8.000000
FILLER
RATIO
SPECTRUM
UNLOCKED 256

DOUBLE
64
COMBINED
1
0
0

0.002000
RATIO

1
0
TRUE
51149
0
LEFT NOT FITTED RIGHT NOT FITTED 0
NONE
NONE
15600
12
4.427000
51148
TRUE
1 0 8 72 0 0 0 0

15798

#HDR
-1
-1
#GR
µM
%T
2.38419e-05
0.0
1.282000
0.002000
12874
8
76.7479
36.9513
#DATA
1.282000	 76.7479
1.368000	 63.4504
1.454000	 65.7731
1.540000	 65.3402
1.626000	 65.3693
1.712000	 65.2114
1.798000	 64.7902
1.884000	 65.1047
1.970000	 65.2468
2.056000	 65.1165
2.142000	 65.1223
2.228000	 64.9849
2.314000	 64.9836
2.400000	 64.6431
2.486000	 65.0616
2.572000	 65.2893
2.658000	 65.1909
2.744000	 65.2724
2.830000	 65.182
2.916000	 65.3286
3.002000	 65.1069
3.088000	 65.1896
3.174000	 65.2973
3.260000	 65.1432
3.346000	 65.1375
3.432000	 65.0044
3.518000	 65.169
3.604000	 65.3809
3.690000	 65.389
3.776000	 65.2234
3.862000	 65.3338
3.948000	 65.2357
4.034000	 65.3559
4.120000	 65.3251
4.206000	 65.2615
4.292000	 65.34
4.378000	 65.5365
4.464000	 65.3743
4.550000	 65.3163
4.636000	 65.3482
4.722000	 65.3834
4.808000	 65.3586
4.894000	 65.4323
4.980000	 65.4748
5.066000	 65.5156
5.152000	 65.249
5.238000	 65.3816
5.324000	 65.3363
5.410000	 65.4555
5.496000	 65.3296
5.582000	 65.3132
5.668000	 65.3864
5.754000	 65.1698
5.840000	 65.2403
5.926000	 65.1925
6.012000	 65.3074
6.098000	 65.306
6.184000	 65.2377
6.270000	 65.1795
6.356000	 65.0851
6.442000	 65.2086
6.528000	 65.1647
6.614000	 65.1321
6.700000	 65.2671
6.786000	 65.0762
6.872000	 65.0706
6.958000	 65.2241
7.044000	 65.2196
7.130000	 64.9429
7.216000	 65.0227
7.302000	 65.2461
7.388000	 65.1048
7.474000	 65.2108
7.560000	 65.1882
7.646000	 65.0307
7.732000	 65.182
7.818000	 65.0395
7.904000	 65.0667
7.990000	 64.999
8.076000	 65.0873
8.161999	 65.0624
8.248000	 64.8733
8.334000	 65.1266
8.420000	 64.8347
8.506000	 64.9706
8.592000	 64.9276
8.678000	 64.9137
8.763999	 64.8975
8.850000	 64.9657
8.936000	 64.8595
9.022000	 64.9942
9.108000	 65.0079
9.193999	 64.9992
9.280000	 64.7515
9.366000	 64.8894
9.452000	 64.8489
9.538000	 64.8531
9.624000	 64.7839
9.710000	 64.7176
9.795999	 64.7598
9.882000	 64.8134
9.968000	 64.8394
10.054	64.8784
10.14	64.9142
10.226	65.0168
10.312	64.7589
10.398	64.7076
10.484	64.7634
10.57	64.9069
10.656	64.5349
10.742	64.7203
10.828	64.6542
10.914	64.5991
11	64.7108
11.086	63.8477
11.172	63.6407
11.258	64.4255
11.344	64.8411
11.43	64.6953
11.516	64.5444
11.602	64.5093
11.688	64.5299
11.774	64.5534
11.86	64.5037
11.946	64.8212
12.032	64.7504
12.118	64.5356
12.204	64.3935
12.29	64.2432
12.376	64.2457
12.462	64.2747
12.548	64.2226
12.634	64.2212
12.72	64.036
12.806	64.0616
12.892	64.2752
12.978	64.0563
13.064	63.9156
13.15	63.9672
13.236	63.9557
13.322	63.995
13.408	63.949
13.494	63.7421
13.58	63.7683
13.666	63.8509
13.752	63.6922
13.838	63.3617
13.924	63.3575
14.01	63.5311
14.096	63.5654
14.182	63.4792
14.268	63.2231
14.354	63.1756
14.44	63.3767
14.526	63.4859
14.612	63.3807
14.698	63.2796
14.784	63.3299
14.87	63.4692
14.956	63.567
15.042	63.4599
15.128	63.2844
15.214	63.2436
15.3	63.2854
15.386	63.3222
15.472	63.2062
15.558	62.9797
15.644	62.944
15.73	63.0571
15.816	63.0241
15.902	62.8778
15.988	62.8788
16.074	63.0408
16.16	63.1066
16.246	63.0113
16.332	63.0004
16.418	63.1593
16.504	63.2233
16.59	63.0524
16.676	62.852
16.762	62.7582
16.848	62.7513
16.934	62.8338
17.02	62.9612
17.106	63.0357
17.192	62.9926
17.278	62.8297
17.364	62.6052
17.45	62.4273
17.536	62.3832
17.622	62.4405
17.708	62.4778
17.794	62.4134
17.88	62.2716
17.966	62.108
18.052	61.9424
18.138	61.7955
18.224	61.7271
18.31	61.7915
18.396	61.9717
18.482	62.1684
18.568	62.2527
18.654	62.1641
18.74	61.9861
18.826	61.8707
18.912	61.8669
18.998	61.8809
19.084	61.8345
19.17	61.7889
19.256	61.8443
19.342	61.9862
19.428	62.1202
19.514	62.2024
19.6	62.2476
19.686	62.2596
19.772	62.2359
19.858	62.1962
19.944	62.1712
20.03	62.1534
20.116	62.0738
20.202	61.8394
20.288	61.4309
20.374	60.9597
20.46	60.591
20.546	60.4144
20.632	60.3909
20.718	60.4251
20.804	60.4763
20.89	60.5765
20.976	60.7619
21.062	61.005
21.148	61.2198
21.234	61.3223
21.32	61.2596
21.406	61.0228
21.492	60.6629
21.578	60.3045
21.664	60.113
21.75	60.2042
21.836	60.5596
21.922	61.0104
22.008	61.3172
22.094	61.317
22.18	61.0174
22.266	60.5897
22.352	60.2639
22.438	60.1838
22.524	60.3522
22.61	60.6598
22.696	60.9608
22.782	61.1526
22.868	61.1867
22.954	61.0429
23.04	60.7106
23.126	60.2101
23.212	59.6193
23.298	59.0571
23.384	58.6536
23.47	58.4762
23.556	58.5017
23.642	58.6364
23.728	58.7851
23.814	58.8952
23.9	58.9631
23.986	58.9923
24.072	58.9259
24.158	58.6863
24.244	58.2549
24.33	57.7445
24.416	57.3823
24.502	57.3786
24.588	57.7726
24.674	58.3801
24.76	58.8689
24.846	58.9133
24.932	58.366
25.018	57.3684
25.104	56.2336
25.19	55.4004
25.276	55.2238
25.362	55.8577
25.448	57.2368
25.534	59.1652
25.62	61.4158
25.706	63.7532
25.792	66.0427
25.878	68.237
25.964	70.275
26.05	72.0607
26.136	73.4321
26.222	74.2004
26.308	74.1242
26.394	72.9594
26.48	70.6027
26.566	67.0629
26.652	62.5092
26.738	57.1734
26.824	51.3092
26.91	45.1474
26.996	38.7265
27.028	36.9513

File: C-4040-8_t28_cm-1.asc
PE IR       SPECTRUM    SPECTRUM    ASCII       PEDS        1.60
  -1
C-9A65~1.ASC
17/05/02
13:16:01.00
17/05/02
13:16:01.00
tln
$C-4040-8_t0028$<tbV0>[-2.5,7.0,8.0,0.0,22,1,0]
370
64

2002,4.07
MIRTGS : RIGHTBACK : INTERNAL 2
MIR : ON : INTERNAL 2
OPTKBR

0.200000
8
8.000000
FILLER
RATIO
SPECTRUM
UNLOCKED 256

DOUBLE
64
COMBINED
1
0
0

1.000000
RATIO

1
0
TRUE
51149
0
LEFT NOT FITTED RIGHT NOT FITTED 0
NONE
NONE
15600
12
4.427000
51148
TRUE
1 0 8 72 0 0 0 0

15798

#HDR
-1
-1
#GR
CM-1
%T
2.38419e-05
0.0
7800
-1.000000
7431
8
77.1982
36.9513
#DATA
7800	76.7479
7775	64.9221
7750	71.7585
7725	70.0495
7700	64.2158
7675	71.7897
7650	71.7968
7625	67.7972
7600	65.6746
7575	67.2799
7550	67.3456
7525	68.3547
7500	65.9995
7475	62.761
7450	68.3305
7425	61.2813
7400	62.6416
7375	65.7383
7350	66.8658
7325	64.4909
7300	63.4206
7275	66.1375
7250	62.5815
7225	67.6682
7200	67.0705
7175	63.5733
7150	65.0501
7125	64.9505
7100	64.8901
7075	63.9097
7050	63.5966
7025	67.3308
7000	65.8887
6975	62.4804
6950	64.1659
6925	65.959
6900	63.8448
6875	65.5123
6850	64.7276
6825	65.6502
6800	66.1943
6775	64.7267
6750	63.5881
6725	62.9856
6700	64.5755
6675	64.877
6650	66.0819
6625	66.7327
6600	64.1099
6575	64.019
6550	64.7202
6525	64.8815
6500	64.3831
6475	63.8986
6450	64.0926
6425	64.9939
6400	65.2223
6375	65.3328
6350	65.5127
6325	64.4408
6300	64.6868
6275	65.2522
6250	64.9789
6225	65.3896
6200	63.9963
6175	64.7938
6150	65.3605
6125	64.7041
6100	65.5859
6075	64.2097
6050	64.801
6025	64.859
6000	65.3165
5975	65.0529
5950	64.5178
5925	65.0789
5900	65.0814
5875	64.6922
5850	65.0899
5825	65.0486
5800	64.6607
5775	63.7122
5750	65.7896
5725	65.0578
5700	65.1828
5675	65.155
5650	65.4765
5625	64.723
5600	65.5106
5575	64.9971
5550	65.1002
5525	64.987
5500	64.9009
5475	64.7342
5450	65.6729
5425	65.0461
5400	65.511
5375	65.9282
5350	65.5297
5325	64.3868
5300	64.7832
5275	67.039
5250	65.074
5225	64.3496
5200	64.3106
5175	64.7237
5150	64.5564
5125	64.8733
5100	65.1508
5075	65.1976
5050	65.0532
5025	64.9809
5000	65.0649
4975	64.9744
4950	64.8369
4925	64.3539
4900	65.0495
4875	64.9602
4850	64.7922
4825	65.4045
4800	64.8542
4775	65.4219
4750	65.2602
4725	65.1183
4700	64.9539
4675	65.1741
4650	64.9665
4625	65.3529
4600	65.1742
4575	65.1267
4550	64.6564
4525	64.6745
4500	65.0895
4475	65.1453
4450	64.7132
4425	64.5302
4400	64.5046
4375	65.5149
4350	65.2461
4325	64.9248
4300	64.8212
4275	65.408
4250	65.1814
4225	64.9515
4200	65.1782
4175	64.9359
4150	65.212
4125	65.151
4100	65.1866
4075	64.9053
4050	65.2788
4025	64.9884
4000	65.0316
3975	64.9764
3950	65.1479
3925	65.1957
3900	65.0777
3875	65.1149
3850	65.2666
3825	65.3429
3800	65.2
3775	65.024
3750	65.2795
3725	65.2154
3700	65.273
3675	65.2194
3650	65.3859
3625	65.1572
3600	65.3329
3575	65.3563
3550	65.2418
3525	65.0409
3500	65.0139
3475	65.2499
3450	65.4574
3425	65.3538
3400	65.315
3375	65.0876
3350	65.2735
3325	65.1807
3300	65.1753
3275	65.1299
3250	64.9416
3225	65.2261
3200	65.2417
3175	65.1549
3150	65.3056
3125	65.2198
3100	65.2771
3075	65.2064
3050	65.1819
3025	65.2689
3000	65.292
2975	65.0812
2950	65.0533
2925	64.9479
2900	65.0392
2875	65.1965
2850	65.1287
2825	65.3409
2800	65.4014
2775	65.3811
2750	65.2174
2725	65.2945
2700	65.4474
2675	65.3182
2650	65.2421
2625	65.366
2600	65.3453
2575	65.2815
2550	65.3643
2525	65.3047
2500	65.3743
2475	65.3112
2450	65.3642
2425	65.3088
2400	65.3375
2375	65.3075
2350	65.3111
2325	65.2859
2300	65.324
2275	65.3123
2250	65.445
2225	65.3193
2200	65.3286
2175	65.326
2150	65.4431
2125	65.4205
2100	65.4007
2075	65.2029
2050	65.3576
2025	65.327
2000	65.4128
1975	65.5284
1950	65.3207
1925	65.3547
1900	65.4329
1875	65.3695
1850	65.4396
1825	65.2804
1800	65.3408
1775	65.3465
1750	65.1973
1725	65.1258
1700	65.3496
1675	65.3111
1650	65.2349
1625	65.2769
1600	65.1267
1575	65.1388
1550	65.1621
1525	65.1026
1500	65.0419
1475	65.0785
1450	65.1855
1425	65.1875
1400	64.9385
1375	65.0436
1350	65.1223
1325	65.1805
1300	65.1295
1275	65.0215
1250	64.979
1225	65.0588
1200	65.1271
1175	64.9719
1150	64.9377
1125	64.9482
1100	65.0201
1075	64.7778
1050	64.8613
1025	64.741
1000	64.8167
975	 64.9435
950	 64.9484
925	 64.7277
900	 63.58
875	 64.7011
850	 64.5856
825	 64.5278
800	 64.2464
775	 64.2679
750	 64.003
725	 63.5269
700	 63.184
675	 63.3739
650	 63.3224
625	 62.8963
600	 62.8688
575	 62.538
550	 61.7463
525	 61.8605
500	 62.1617
475	 60.9783
450	 60.8086
425	 58.4772
400	 57.6002
375	 61.6496
370	 36.9513

File: C-4040-8_t29.asc
PE IR       SPECTRUM    SPECTRUM    ASCII       PEDS        1.60
  -1
C-CD2E~1.ASC
17/05/02
13:20:42.00
17/05/02
13:21:08.00
tln
$C-4040-8_t0029$<tbV0>[-7.5,7.0,8.0,0.0,22,1,0]
27.028
64

2002,4.07
MIRTGS : RIGHTBACK : INTERNAL 2
MIR : ON : INTERNAL 2
OPTKBR

0.200000
8
8.000000
FILLER
RATIO
SPECTRUM
UNLOCKED 256

DOUBLE
64
COMBINED
1
0
0

0.002000
RATIO

1
0
TRUE
51149
0
LEFT NOT FITTED RIGHT NOT FITTED 0
NONE
NONE
15600
12
4.427000
51148
TRUE
1 0 8 72 0 0 0 0

15798

#HDR
-1
-1
#GR
µM
%T
2.38419e-05
0.0
1.282000
0.002000
12874
8
88.2239
51.8646
#DATA
1.282000	 74.499
1.368000	 63.4972
1.454000	 62.9409
1.540000	 62.6332
1.626000	 63.803
1.712000	 64.1339
1.798000	 64.3967
1.884000	 64.3331
1.970000	 64.1182
2.056000	 64.0182
2.142000	 64.0856
2.228000	 63.1317
2.314000	 63.8836
2.400000	 63.9982
2.486000	 63.8734
2.572000	 64.2573
2.658000	 64.1763
2.744000	 63.9818
2.830000	 64.0274
2.916000	 63.8819
3.002000	 63.7569
3.088000	 64.019
3.174000	 64.0098
3.260000	 63.9961
3.346000	 63.9645
3.432000	 63.6067
3.518000	 63.8335
3.604000	 64.0928
3.690000	 63.9298
3.776000	 63.9338
3.862000	 63.9723
3.948000	 63.8636
4.034000	 63.8923
4.120000	 64.0122
4.206000	 63.8988
4.292000	 63.9014
4.378000	 64.1155
4.464000	 64.0194
4.550000	 64.0684
4.636000	 63.9736
4.722000	 63.9604
4.808000	 64.0376
4.894000	 63.8938
4.980000	 64.0408
5.066000	 63.9699
5.152000	 63.9487
5.238000	 64.0311
5.324000	 63.942
5.410000	 63.9705
5.496000	 63.9776
5.582000	 64.0357
5.668000	 63.923
5.754000	 63.7858
5.840000	 63.9551
5.926000	 63.8851
6.012000	 63.9883
6.098000	 63.8447
6.184000	 63.8505
6.270000	 63.8082
6.356000	 63.7577
6.442000	 63.774
6.528000	 63.8686
6.614000	 63.8473
6.700000	 63.884
6.786000	 63.8662
6.872000	 63.8929
6.958000	 63.8147
7.044000	 63.7957
7.130000	 63.8722
7.216000	 63.7916
7.302000	 63.737
7.388000	 63.6632
7.474000	 63.75
7.560000	 63.6851
7.646000	 63.634
7.732000	 63.6948
7.818000	 63.7068
7.904000	 63.7979
7.990000	 63.7095
8.076000	 63.8498
8.161999	 63.6691
8.248000	 63.8317
8.334000	 63.9158
8.420000	 63.7776
8.506000	 63.7166
8.592000	 63.718
8.678000	 63.4523
8.763999	 63.5465
8.850000	 63.7438
8.936000	 63.5203
9.022000	 63.2356
9.108000	 63.3201
9.193999	 63.6771
9.280000	 63.5887
9.366000	 63.4639
9.452000	 63.2887
9.538000	 63.1974
9.624000	 63.0826
9.710000	 63.1879
9.795999	 63.2207
9.882000	 63.2503
9.968000	 63.2656
10.054	63.1409
10.14	63.251
10.226	63.5421
10.312	63.3095
10.398	63.2135
10.484	63.176
10.57	63.2248
10.656	63.4136
10.742	63.4231
10.828	63.5414
10.914	63.2866
11	63.2042
11.086	63.4085
11.172	62.6579
11.258	62.162
11.344	62.7122
11.43	62.911
11.516	62.7165
11.602	62.9218
11.688	62.8409
11.774	62.8721
11.86	63.0977
11.946	63.1276
12.032	63.1243
12.118	63.4114
12.204	63.0313
12.29	63.0395
12.376	62.9348
12.462	62.9325
12.548	62.7538
12.634	62.8148
12.72	62.9223
12.806	62.9075
12.892	62.8506
12.978	62.7547
13.064	62.6945
13.15	62.7736
13.236	62.7816
13.322	62.6552
13.408	62.5466
13.494	62.6489
13.58	62.7456
13.666	62.6652
13.752	62.5876
13.838	62.5086
13.924	62.5221
14.01	62.5752
14.096	62.5676
14.182	62.5058
14.268	62.3374
14.354	62.2134
14.44	62.2249
14.526	62.2503
14.612	62.2484
14.698	62.2136
14.784	62.0755
14.87	62.0017
14.956	62.1754
15.042	62.339
15.128	62.2631
15.214	62.08
15.3	61.8747
15.386	61.7663
15.472	61.8008
15.558	61.7748
15.644	61.7764
15.73	61.9769
15.816	62.1158
15.902	61.9818
15.988	61.7472
16.074	61.6513
16.16	61.7405
16.246	61.8962
16.332	61.9733
16.418	61.8994
16.504	61.7233
16.59	61.5595
16.676	61.4311
16.762	61.3227
16.848	61.3352
16.934	61.5282
17.02	61.7442
17.106	61.8044
17.192	61.6964
17.278	61.5278
17.364	61.3509
17.45	61.1167
17.536	60.8646
17.622	60.7498
17.708	60.8121
17.794	60.9183
17.88	60.9731
17.966	61.0195
18.052	61.1023
18.138	61.1887
18.224	61.216
18.31	61.1535
18.396	61.0185
18.482	60.8569
18.568	60.7114
18.654	60.5969
18.74	60.5058
18.826	60.4303
18.912	60.3732
18.998	60.3307
19.084	60.2884
19.17	60.244
19.256	60.2175
19.342	60.2319
19.428	60.3075
19.514	60.4502
19.6	60.6155
19.686	60.7098
19.772	60.6567
19.858	60.4603
19.944	60.2076
20.03	60.0147
20.116	59.9512
20.202	59.9853
20.288	60.0091
20.374	59.9256
20.46	59.725
20.546	59.4867
20.632	59.3099
20.718	59.2342
20.804	59.211
20.89	59.1496
20.976	59.0049
21.062	58.8131
21.148	58.6594
21.234	58.6018
21.32	58.6298
21.406	58.6888
21.492	58.7335
21.578	58.7594
21.664	58.7897
21.75	58.8442
21.836	58.9185
21.922	58.9878
22.008	59.009
22.094	58.9301
22.18	58.7069
22.266	58.3212
22.352	57.8115
22.438	57.2727
22.524	56.8203
22.61	56.5394
22.696	56.437
22.782	56.4636
22.868	56.5532
22.954	56.6519
23.04	56.7289
23.126	56.7751
23.212	56.8258
23.298	56.9302
23.384	57.1224
23.47	57.3948
23.556	57.6964
23.642	57.9574
23.728	58.1456
23.814	58.2579
23.9	58.2961
23.986	58.2416
24.072	58.043
24.158	57.6601
24.244	57.1375
24.33	56.6288
24.416	56.3181
24.502	56.2948
24.588	56.453
24.674	56.5354
24.76	56.2596
24.846	55.5042
24.932	54.4079
25.018	53.3463
25.104	52.7504
25.19	52.9967
25.276	54.2204
25.362	56.2795
25.448	58.7645
25.534	61.1775
25.62	63.0663
25.706	64.1285
25.792	64.3084
25.878	63.7462
25.964	62.6489
26.05	61.2842
26.136	59.893
26.222	58.591
26.308	57.4141
26.394	56.368
26.48	55.5139
26.566	54.8721
26.652	54.367
26.738	53.9031
26.824	53.3992
26.91	52.7824
26.996	52.0663
27.028	51.8646

File: C-4040-8_t29_cm-1.asc
PE IR       SPECTRUM    SPECTRUM    ASCII       PEDS        1.60
  -1
C-9AE0~1.ASC
17/05/02
13:20:42.00
17/05/02
13:20:42.00
tln
$C-4040-8_t0029$<tbV0>[-7.5,7.0,8.0,0.0,22,1,0]
370
64

2002,4.07
MIRTGS : RIGHTBACK : INTERNAL 2
MIR : ON : INTERNAL 2
OPTKBR

0.200000
8
8.000000
FILLER
RATIO
SPECTRUM
UNLOCKED 256

DOUBLE
64
COMBINED
1
0
0

1.000000
RATIO

1
0
TRUE
51149
0
LEFT NOT FITTED RIGHT NOT FITTED 0
NONE
NONE
15600
12
4.427000
51148
TRUE
1 0 8 72 0 0 0 0

15798

#HDR
-1
-1
#GR
CM-1
%T
2.38419e-05
0.0
7800
-1.000000
7431
8
88.975
51.8646
#DATA
7800	74.499
7775	72.9193
7750	67.5343
7725	69.112
7700	67.3779
7675	67.2945
7650	63.0952
7625	68.4417
7600	66.6114
7575	72.2737
7550	63.7734
7525	66.8872
7500	67.5634
7475	59.5482
7450	63.7047
7425	64.7298
7400	62.9347
7375	65.2291
7350	65.5294
7325	61.7291
7300	62.3383
7275	63.8086
7250	63.9731
7225	67.2865
7200	62.5122
7175	62.6106
7150	62.6268
7125	59.9519
7100	62.9881
7075	64.0094
7050	63.6651
7025	62.7529
7000	64.5206
6975	62.1478
6950	63.5606
6925	62.6223
6900	64.0124
6875	63.5125
6850	64.9654
6825	63.1803
6800	63.554
6775	64.8365
6750	63.434
6725	62.498
6700	64.0016
6675	62.6773
6650	63.9541
6625	63.5008
6600	64.4042
6575	63.8608
6550	64.3254
6525	63.8632
6500	64.1233
6475	63.4293
6450	65.4877
6425	62.7659
6400	64.2791
6375	62.5799
6350	63.8813
6325	63.855
6300	62.67
6275	64.3702
6250	63.6273
6225	63.0267
6200	64.0035
6175	64.86
6150	63.8049
6125	63.4591
6100	64.4676
6075	63.7008
6050	65.2874
6025	63.6548
6000	64.4657
5975	63.5308
5950	63.4522
5925	63.963
5900	64.3046
5875	63.8464
5850	63.8596
5825	64.8863
5800	63.3934
5775	63.8772
5750	64.1578
5725	63.6836
5700	64.0841
5675	64.2058
5650	64.742
5625	64.2165
5600	64.8337
5575	64.2436
5550	64.3923
5525	64.4693
5500	63.4421
5475	63.3167
5450	64.0372
5425	64.768
5400	64.3942
5375	64.791
5350	64.9184
5325	63.7094
5300	62.4766
5275	62.4238
5250	64.2526
5225	63.4346
5200	63.4844
5175	63.9755
5150	64.3337
5125	64.2994
5100	64.3709
5075	64.1834
5050	63.8922
5025	64.088
5000	64.1155
4975	64.4375
4950	63.8141
4925	63.9553
4900	63.6794
4875	63.652
4850	63.4983
4825	63.9509
4800	63.9569
4775	63.9779
4750	64.0663
4725	63.9128
4700	63.7322
4675	63.9411
4650	64.0939
4625	63.7491
4600	63.7521
4575	63.9311
4550	63.8127
4525	63.5886
4500	63.2995
4475	63.4026
4450	62.97
4425	63.2686
4400	61.7612
4375	66.1136
4350	63.812
4325	63.8302
4300	63.5295
4275	63.7443
4250	63.6383
4225	63.6577
4200	63.5065
4175	64.2025
4150	64.2358
4125	63.861
4100	64.2682
4075	64.2223
4050	64.1588
4025	63.8645
4000	64.315
3975	64.1344
3950	64.2437
3925	64.268
3900	64.1122
3875	63.9862
3850	64.084
3825	64.0521
3800	64.0421
3775	63.866
3750	64.0187
3725	64.1337
3700	64.0296
3675	64.1105
3650	63.9994
3625	64.0671
3600	64.0777
3575	64.0272
3550	64.0696
3525	63.9717
3500	64.0292
3475	63.6263
3450	63.9367
3425	63.9003
3400	63.9627
3375	63.9754
3350	63.951
3325	63.8721
3300	63.8908
3275	63.9309
3250	63.9348
3225	64.097
3200	63.9138
3175	64.1314
3150	64.008
3125	63.9712
3100	63.9675
3075	63.9569
3050	63.9741
3025	63.9032
3000	64.0252
2975	63.9269
2950	63.8864
2925	63.5346
2900	63.857
2875	63.8504
2850	63.782
2825	63.8964
2800	63.9613
2775	64.0941
2750	63.943
2725	64.039
2700	63.9222
2675	63.9278
2650	63.9291
2625	64.0354
2600	63.9597
2575	63.9726
2550	64.0304
2525	63.93
2500	64.1109
2475	63.9665
2450	64.0903
2425	64.032
2400	63.9625
2375	63.93
2350	63.8963
2325	63.8966
2300	64.0274
2275	64.0275
2250	64.0158
2225	63.9912
2200	64.0593
2175	63.9724
2150	64.0519
2125	63.9822
2100	63.99
2075	64.0249
2050	63.9566
2025	63.9397
2000	63.9553
1975	63.9933
1950	63.992
1925	63.9676
1900	63.9926
1875	63.9365
1850	63.9781
1825	64.0205
1800	64.0847
1775	64.012
1750	63.9157
1725	63.8005
1700	63.917
1675	63.8552
1650	63.9843
1625	63.8919
1600	63.812
1575	63.7181
1550	63.7813
1525	63.8677
1500	63.8596
1475	63.8928
1450	63.7678
1425	63.8145
1400	63.874
1375	63.673
1350	63.7298
1325	63.6892
1300	63.7782
1275	63.6967
1250	63.6924
1225	63.668
1200	63.9158
1175	63.714
1150	63.4585
1125	63.6652
1100	63.2935
1075	63.5899
1050	63.2071
1025	63.167
1000	63.2792
975	 63.5216
950	 63.1594
925	 63.4949
900	 63.1897
875	 62.9154
850	 62.8618
825	 63.4063
800	 62.8572
775	 62.8407
750	 62.6354
725	 62.5478
700	 62.3011
675	 62.0252
650	 61.7666
625	 61.722
600	 61.4446
575	 61.2845
550	 61.213
525	 60.307
500	 60.069
475	 58.8335
450	 58.537
425	 57.6047
400	 53.5424
375	 54.2868
370	 51.8646