Folder: Masteroppgave/Bakgrunnsmateriale/MATLAB/FTIR/ftir_data/subBb/Mapping_121 (part 23)

File: C-4040-8_t49.asc
PE IR       SPECTRUM    SPECTRUM    ASCII       PEDS        1.60
  -1
C-C53E~1.ASC
17/03/27
18:32:22.00
17/03/27
18:32:49.00
tln
$C-4040-8_t0049$<tbV0>[2.6,-2.6,8.0,0.0,27,1,0]
27.028
64

2002,4.07
MIRTGS : RIGHTBACK : INTERNAL 2
MIR : ON : INTERNAL 2
OPTKBR

0.200000
8
8.000000
FILLER
RATIO
SPECTRUM
UNLOCKED 256

DOUBLE
64
COMBINED
1
0
0

0.002000
RATIO

1
0
TRUE
51149
0
LEFT NOT FITTED RIGHT NOT FITTED 0
NONE
NONE
15600
12
4.427000
51148
TRUE
1 0 8 72 0 0 0 0

15798

#HDR
-1
-1
#GR
µM
%T
2.38419e-05
0.0
2.000000
0.002000
12515
8
75.5944
21.3385
#DATA
2.000000	 64.0359
2.084000	 64.5691
2.168000	 63.994
2.252000	 64.2137
2.336000	 64.2801
2.420000	 63.223
2.504000	 63.8651
2.588000	 63.6918
2.672000	 63.457
2.756000	 63.2307
2.840000	 62.9149
2.924000	 62.8843
3.008000	 62.7279
3.092000	 62.5724
3.176000	 62.128
3.260000	 61.9062
3.344000	 61.5294
3.428000	 61.0498
3.512000	 60.903
3.596000	 60.7662
3.680000	 60.6175
3.764000	 60.3835
3.848000	 59.9669
3.932000	 59.9571
4.016000	 59.6419
4.100000	 59.6421
4.184000	 59.3665
4.268000	 58.908
4.352000	 58.7411
4.436000	 58.6543
4.520000	 58.4424
4.604000	 58.1846
4.688000	 58.0584
4.772000	 57.7457
4.856000	 57.3032
4.940000	 57.4755
5.024000	 57.4094
5.108000	 57.1785
5.192000	 56.938
5.276000	 56.8196
5.359999	 56.6413
5.444000	 56.4705
5.528000	 56.4111
5.612000	 56.247
5.696000	 56.0667
5.780000	 55.6895
5.864000	 55.863
5.948000	 55.7495
6.032000	 55.5539
6.116000	 55.358
6.200000	 55.2315
6.284000	 55.036
6.368000	 55.1524
6.452000	 54.8325
6.536000	 54.7995
6.620000	 54.8713
6.704000	 54.8018
6.788000	 54.4856
6.872000	 54.2442
6.956000	 54.2576
7.040000	 54.2948
7.124000	 54.0775
7.208000	 54.2229
7.292000	 54.0898
7.376000	 53.8653
7.460000	 53.7291
7.544000	 53.8537
7.628000	 53.5412
7.712000	 53.7858
7.796000	 53.5323
7.880000	 53.4853
7.964000	 53.3155
8.048000	 53.3435
8.132000	 53.1958
8.216000	 53.2606
8.300000	 53.3469
8.384000	 53.0213
8.468000	 52.8521
8.552000	 53.0195
8.635999	 52.9917
8.719999	 52.9443
8.804000	 52.5162
8.888000	 52.8522
8.972000	 52.7108
9.056000	 52.5678
9.140000	 52.2861
9.224000	 52.7519
9.308000	 52.2213
9.391999	 52.3539
9.475999	 52.1925
9.560000	 52.3724
9.644000	 52.2024
9.728000	 51.9117
9.812000	 52.0656
9.896000	 52.1452
9.980000	 52.1073
10.064	52.0387
10.148	52.084
10.232	51.821
10.316	52.0053
10.4	51.7405
10.484	51.5857
10.568	51.7081
10.652	51.5875
10.736	51.338
10.82	51.3213
10.904	51.2829
10.988	51.354
11.072	51.3443
11.156	51.1219
11.24	51.2887
11.324	51.4441
11.408	50.9164
11.492	50.7539
11.576	51.0966
11.66	50.9678
11.744	50.8497
11.828	50.7912
11.912	50.7581
11.996	50.6295
12.08	50.4957
12.164	50.6918
12.248	50.7336
12.332	50.7993
12.416	50.4556
12.5	50.3352
12.584	50.4372
12.668	50.2862
12.752	50.2391
12.836	50.17
12.92	50.2603
13.004	50.3447
13.088	50.4585
13.172	50.0289
13.256	49.0464
13.34	49.2433
13.424	49.9157
13.508	50.2875
13.592	50.2691
13.676	49.6887
13.76	49.2288
13.844	49.2787
13.928	49.625
14.012	49.9156
14.096	49.9025
14.18	49.6744
14.264	49.5559
14.348	49.475
14.432	49.185
14.516	48.8228
14.6	48.5638
14.684	48.4895
14.768	48.6572
14.852	48.7947
14.936	48.7109
15.02	48.5768
15.104	48.5288
15.188	48.5652
15.272	48.5719
15.356	48.4855
15.44	48.3469
15.524	48.2264
15.608	48.2198
15.692	48.1744
15.776	48.0093
15.86	48.0467
15.944	48.2589
16.028	48.2324
16.112	48.0431
16.196	48.0978
16.28	48.4084
16.364	48.6215
16.448	48.515
16.532	48.2289
16.616	47.9547
16.7	47.6617
16.784	47.3386
16.868	47.1318
16.952	47.1018
17.036	47.1876
17.12	47.3241
17.204	47.34
17.288	47.0815
17.372	46.7307
17.456	46.6482
17.54	46.8894
17.624	47.1508
17.708	47.1702
17.792	46.9469
17.876	46.6538
17.96	46.4488
18.044	46.3763
18.128	46.3769
18.212	46.3451
18.296	46.2133
18.38	46.0355
18.464	45.9451
18.548	46.0027
18.632	46.1149
18.716	46.1417
18.8	46.0599
18.884	45.9748
18.968	45.9789
19.052	46.0471
19.136	46.0969
19.22	46.0918
19.304	46.0524
19.388	45.9836
19.472	45.8509
19.556	45.6466
19.64	45.442
19.724	45.3392
19.808	45.3739
19.892	45.4802
19.976	45.5354
20.06	45.4408
20.144	45.1825
20.228	44.8411
20.312	44.5482
20.396	44.4026
20.48	44.397
20.564	44.4302
20.648	44.3961
20.732	44.2823
20.816	44.1621
20.9	44.1183
20.984	44.1806
21.068	44.3171
21.152	44.4767
21.236	44.626
21.32	44.7648
21.404	44.9026
21.488	45.021
21.572	45.0917
21.656	45.1289
21.74	45.2165
21.824	45.4644
21.908	45.9097
21.992	46.4498
22.076	46.8763
22.16	46.9843
22.244	46.6925
22.328	46.0847
22.412	45.3515
22.496	44.6947
22.58	44.2621
22.664	44.1244
22.748	44.2655
22.832	44.608
22.916	45.0072
23	45.3204
23.084	45.4692
23.168	45.4648
23.252	45.3937
23.336	45.3822
23.42	45.5333
23.504	45.9154
23.588	46.4703
23.672	47.0282
23.756	47.4005
23.84	47.4361
23.924	47.0301
24.008	46.1193
24.092	44.6812
24.176	42.7691
24.26	40.4804
24.344	38.0398
24.428	35.8065
24.512	34.2719
24.596	33.7766
24.68	34.3471
24.764	35.6623
24.848	37.1372
24.932	38.4236
25.016	39.7409
25.1	41.8469
25.184	45.3835
25.268	50.2702
25.352	55.6071
25.436	59.9542
25.52	62.1074
25.604	61.7311
25.688	59.3877
25.772	56.3561
25.856	54.0501
25.94	53.7415
26.024	56.082
26.108	60.7238
26.192	66.2159
26.276	70.3855
26.36	70.9052
26.444	66.373
26.528	57.0378
26.612	44.745
26.696	32.5843
26.78	23.9364
26.864	21.3977
26.948	25.9683
27.028	36.0611

File: C-4040-8_t49_cm-1.asc
PE IR       SPECTRUM    SPECTRUM    ASCII       PEDS        1.60
  -1
C-9BE0~1.ASC
17/03/27
18:32:22.00
17/03/27
18:32:22.00
tln
$C-4040-8_t0049$<tbV0>[2.6,-2.6,8.0,0.0,27,1,0]
370
64

2002,4.07
MIRTGS : RIGHTBACK : INTERNAL 2
MIR : ON : INTERNAL 2
OPTKBR

0.200000
8
8.000000
FILLER
RATIO
SPECTRUM
UNLOCKED 256

DOUBLE
64
COMBINED
1
0
0

1.000000
RATIO

1
0
TRUE
51149
0
LEFT NOT FITTED RIGHT NOT FITTED 0
NONE
NONE
15600
12
4.427000
51148
TRUE
1 0 8 72 0 0 0 0

15798

#HDR
-1
-1
#GR
CM-1
%T
2.38419e-05
0.0
5000
-1.000000
4631
8
75.5474
21.7587
#DATA
5000	64.0359
4984	64.7841
4968	64.1047
4952	64.6797
4936	64.3265
4920	64.7916
4904	64.3972
4888	64.5937
4872	63.957
4856	63.8494
4840	64.0198
4824	64.4181
4808	64.0728
4792	64.2094
4776	64.3197
4760	64.2189
4744	63.8103
4728	63.5442
4712	64.5195
4696	64.1992
4680	64.1578
4664	63.8214
4648	64.0043
4632	64.2531
4616	63.9009
4600	64.1538
4584	64.0024
4568	63.7497
4552	64.2117
4536	63.7766
4520	64.2452
4504	64.4577
4488	63.9958
4472	64.2386
4456	64.3213
4440	64.2332
4424	64.7507
4408	64.5058
4392	64.4496
4376	63.9137
4360	52.9771
4344	71.6783
4328	65.8139
4312	63.8453
4296	64.14
4280	64.3692
4264	63.9572
4248	64.0945
4232	63.8926
4216	64.0068
4200	63.8065
4184	63.4454
4168	64.3028
4152	63.8919
4136	63.3061
4120	63.6218
4104	63.6597
4088	63.4782
4072	63.9135
4056	63.7455
4040	63.5531
4024	63.723
4008	63.9053
3992	63.9494
3976	63.9482
3960	63.6821
3944	63.6994
3928	63.618
3912	63.607
3896	63.6637
3880	63.5603
3864	63.692
3848	63.5888
3832	63.4305
3816	63.2342
3800	63.5837
3784	63.3897
3768	63.4895
3752	63.5624
3736	63.3897
3720	63.3464
3704	63.3942
3688	63.5484
3672	63.3027
3656	63.2713
3640	63.2676
3624	63.2968
3608	63.2258
3592	62.9587
3576	63.1222
3560	63.0983
3544	62.8719
3528	62.7828
3512	62.9134
3496	62.8093
3480	62.9452
3464	62.8758
3448	62.7528
3432	62.7719
3416	62.7499
3400	62.7291
3384	62.6709
3368	62.7242
3352	62.4968
3336	62.6948
3320	62.6389
3304	62.4023
3288	62.2293
3272	62.3336
3256	62.5811
3240	62.235
3224	62.2497
3208	61.9965
3192	62.3212
3176	62.3206
3160	61.9288
3144	62.0766
3128	62.04
3112	61.3854
3096	61.9573
3080	61.8008
3064	61.8462
3048	61.9401
3032	61.8131
3016	61.45
3000	61.4382
2984	61.4665
2968	61.6882
2952	61.3888
2936	61.2284
2920	60.994
2904	61.2165
2888	61.2519
2872	61.2038
2856	60.7667
2840	61.1245
2824	60.9457
2808	61.0313
2792	60.9187
2776	60.7512
2760	60.8217
2744	60.6971
2728	60.7176
2712	60.6008
2696	60.4254
2680	60.3996
2664	60.3662
2648	60.4159
2632	60.3093
2616	60.177
2600	59.9713
2584	60.1455
2568	60.0196
2552	60.0463
2536	59.9429
2520	59.945
2504	59.703
2488	59.6931
2472	59.5512
2456	59.6084
2440	59.6618
2424	59.8797
2408	59.5495
2392	59.4229
2376	59.0445
2360	59.0336
2344	58.911
2328	58.9095
2312	58.8265
2296	58.7181
2280	58.7499
2264	58.6004
2248	58.6909
2232	58.6226
2216	58.4467
2200	58.4234
2184	58.3382
2168	58.0803
2152	58.0387
2136	58.1069
2120	57.8801
2104	57.812
2088	57.679
2072	57.3028
2056	57.293
2040	57.6022
2024	57.4732
2008	57.335
1992	57.4001
1976	57.216
1960	57.1687
1944	57.1288
1928	56.945
1912	56.9574
1896	56.8141
1880	56.8129
1864	56.6474
1848	56.5665
1832	56.5084
1816	56.3065
1800	56.3513
1784	56.257
1768	56.193
1752	56.0224
1736	55.8561
1720	55.6237
1704	55.8793
1688	55.6531
1672	55.8197
1656	55.5124
1640	55.4911
1624	55.2794
1608	55.2362
1592	55.0333
1576	55.2266
1560	54.9198
1544	54.7371
1528	54.7876
1512	54.8537
1496	54.8504
1480	54.5909
1464	54.5992
1448	54.3537
1432	54.0997
1416	54.1065
1400	54.1518
1384	54.1095
1368	54.1344
1352	53.8497
1336	53.8088
1320	53.6511
1304	53.6377
1288	53.6275
1272	53.5208
1256	53.3193
1240	53.289
1224	53.3137
1208	53.3585
1192	52.9828
1176	53.1008
1160	53.0113
1144	52.7301
1128	52.8249
1112	52.7171
1096	52.3404
1080	52.5606
1064	52.3771
1048	52.3113
1032	52.1236
1016	52.1925
1000	52.1627
984	 52.0288
968	 51.9738
952	 51.6158
936	 51.5065
920	 51.3141
904	 51.361
888	 51.3836
872	 50.6894
856	 50.918
840	 50.7562
824	 50.6325
808	 50.6611
792	 50.3668
776	 50.2027
760	 50.181
744	 50.0097
728	 49.3086
712	 49.9521
696	 49.4267
680	 48.5146
664	 48.5407
648	 48.3611
632	 47.9892
616	 48.2237
600	 47.7856
584	 47.3283
568	 47.109
552	 46.3763
536	 46.1361
520	 46.0881
504	 45.414
488	 44.4019
472	 44.5398
456	 46.0479
440	 44.2073
424	 46.4491
408	 34.2992
392	 61.9894
376	 47.1898
370	 36.0611

File: C-4040-8_t50.asc
PE IR       SPECTRUM    SPECTRUM    ASCII       PEDS        1.60
  -1
C-A93A~1.ASC
17/03/27
18:36:59.00
17/03/27
18:37:25.00
tln
$C-4040-8_t0050$<tbV0>[0.0,-2.6,8.0,0.0,27,1,0]
27.028
64

2002,4.07
MIRTGS : RIGHTBACK : INTERNAL 2
MIR : ON : INTERNAL 2
OPTKBR

0.200000
8
8.000000
FILLER
RATIO
SPECTRUM
UNLOCKED 256

DOUBLE
64
COMBINED
1
0
0

0.002000
RATIO

1
0
TRUE
51149
0
LEFT NOT FITTED RIGHT NOT FITTED 0
NONE
NONE
15600
12
4.427000
51148
TRUE
1 0 8 72 0 0 0 0

15798

#HDR
-1
-1
#GR
µM
%T
2.38419e-05
0.0
2.000000
0.002000
12515
8
77.02
24.585
#DATA
2.000000	 63.8391
2.084000	 64.0724
2.168000	 63.8091
2.252000	 63.8137
2.336000	 63.9908
2.420000	 63.0387
2.504000	 63.0847
2.588000	 63.0655
2.672000	 62.7231
2.756000	 62.3307
2.840000	 62.1055
2.924000	 61.893
3.008000	 61.5718
3.092000	 61.165
3.176000	 60.7527
3.260000	 60.5101
3.344000	 60.1218
3.428000	 59.3324
3.512000	 59.1842
3.596000	 58.9844
3.680000	 58.635
3.764000	 58.3324
3.848000	 57.9804
3.932000	 57.5952
4.016000	 57.3721
4.100000	 56.7884
4.184000	 56.723
4.268000	 56.2828
4.352000	 56.0481
4.436000	 55.8241
4.520000	 55.4655
4.604000	 55.0332
4.688000	 54.8995
4.772000	 54.6896
4.856000	 54.292
4.940000	 54.1383
5.024000	 53.9473
5.108000	 53.609
5.192000	 53.4438
5.276000	 53.3237
5.359999	 52.8847
5.444000	 52.6743
5.528000	 52.5276
5.612000	 52.288
5.696000	 52.0715
5.780000	 51.7453
5.864000	 51.7038
5.948000	 51.6367
6.032000	 51.3296
6.116000	 51.1697
6.200000	 50.8762
6.284000	 50.7411
6.368000	 50.533
6.452000	 50.4661
6.536000	 50.2422
6.620000	 50.1434
6.704000	 50.1856
6.788000	 49.9539
6.872000	 49.431
6.956000	 49.6854
7.040000	 49.6359
7.124000	 49.3161
7.208000	 49.1674
7.292000	 49.3102
7.376000	 49.1387
7.460000	 48.8079
7.544000	 48.8324
7.628000	 48.6764
7.712000	 48.5006
7.796000	 48.4117
7.880000	 48.2286
7.964000	 48.2738
8.048000	 48.1917
8.132000	 47.9474
8.216000	 47.8431
8.300000	 47.7423
8.384000	 48.0197
8.468000	 47.6703
8.552000	 47.4474
8.635999	 48.1948
8.719999	 47.4741
8.804000	 47.172
8.888000	 47.0531
8.972000	 47.1673
9.056000	 47.3053
9.140000	 46.8831
9.224000	 46.9081
9.308000	 46.8081
9.391999	 46.6482
9.475999	 46.6926
9.560000	 46.2469
9.644000	 46.3916
9.728000	 46.1452
9.812000	 46.4536
9.896000	 46.4152
9.980000	 45.9758
10.064	45.8762
10.148	46.0135
10.232	45.8955
10.316	45.9
10.4	45.775
10.484	45.567
10.568	45.5953
10.652	45.5908
10.736	45.6051
10.82	45.4746
10.904	45.3931
10.988	45.2492
11.072	45.0996
11.156	44.895
11.24	44.797
11.324	44.816
11.408	44.9843
11.492	44.8547
11.576	44.7124
11.66	44.6782
11.744	44.6885
11.828	44.6955
11.912	44.4645
11.996	44.1366
12.08	44.3412
12.164	44.4126
12.248	44.184
12.332	44.2945
12.416	43.9949
12.5	43.9983
12.584	43.9879
12.668	43.9122
12.752	43.7495
12.836	43.8495
12.92	43.9623
13.004	43.6332
13.088	43.4217
13.172	43.4219
13.256	43.1685
13.34	43.1921
13.424	43.6147
13.508	43.4083
13.592	43.0155
13.676	42.9422
13.76	42.964
13.844	43.0461
13.928	43.047
14.012	42.8043
14.096	42.4687
14.18	42.262
14.264	42.2978
14.348	42.5509
14.432	42.5923
14.516	42.3199
14.6	42.1005
14.684	42.0321
14.768	41.9759
14.852	41.7429
14.936	41.494
15.02	41.514
15.104	41.6784
15.188	41.7731
15.272	41.7831
15.356	41.7204
15.44	41.4999
15.524	41.1567
15.608	40.8652
15.692	40.7125
15.776	40.7724
15.86	40.958
15.944	41.0152
16.028	40.9335
16.112	40.8557
16.196	40.8101
16.28	40.825
16.364	40.8583
16.448	40.7398
16.532	40.4522
16.616	40.2083
16.7	40.1247
16.784	40.0794
16.868	39.9414
16.952	39.7354
17.036	39.5328
17.12	39.3597
17.204	39.2536
17.288	39.2385
17.372	39.249
17.456	39.2247
17.54	39.2128
17.624	39.2434
17.708	39.2082
17.792	39.0063
17.876	38.6954
17.96	38.4028
18.044	38.2088
18.128	38.1782
18.212	38.3288
18.296	38.5084
18.38	38.4845
18.464	38.2281
18.548	37.9791
18.632	37.9426
18.716	38.0468
18.8	38.0791
18.884	37.9785
18.968	37.866
19.052	37.8341
19.136	37.8239
19.22	37.7252
19.304	37.5249
19.388	37.3381
19.472	37.3084
19.556	37.4684
19.64	37.7024
19.724	37.852
19.808	37.8531
19.892	37.7509
19.976	37.6114
20.06	37.4577
20.144	37.2952
20.228	37.1566
20.312	37.0832
20.396	37.0508
20.48	36.9686
20.564	36.7702
20.648	36.5078
20.732	36.32
20.816	36.285
20.9	36.3389
20.984	36.3727
21.068	36.3764
21.152	36.4645
21.236	36.7534
21.32	37.212
21.404	37.6285
21.488	37.7378
21.572	37.4075
21.656	36.733
21.74	35.9876
21.824	35.4685
21.908	35.3243
21.992	35.4824
22.076	35.7215
22.16	35.8323
22.244	35.7737
22.328	35.6656
22.412	35.6645
22.496	35.8092
22.58	35.9837
22.664	36.0225
22.748	35.834
22.832	35.4612
22.916	35.0497
23	34.7413
23.084	34.608
23.168	34.6467
23.252	34.8201
23.336	35.1013
23.42	35.4852
23.504	35.9263
23.588	36.311
23.672	36.4809
23.756	36.2852
23.84	35.7019
23.924	34.8901
24.008	34.1373
24.092	33.75
24.176	33.9175
24.26	34.6599
24.344	35.8739
24.428	37.3932
24.512	38.9761
24.596	40.4192
24.68	41.5677
24.764	42.2991
24.848	42.5462
24.932	42.1688
25.016	40.9843
25.1	38.9101
25.184	36.0552
25.268	32.8
25.352	29.7447
25.436	27.4697
25.52	26.229
25.604	25.8539
25.688	25.8813
25.772	25.8097
25.856	25.3927
25.94	24.8068
26.024	24.6001
26.108	25.4091
26.192	27.7077
26.276	31.5893
26.36	36.6643
26.444	42.1098
26.528	47.0045
26.612	50.6146
26.696	52.7982
26.78	54.1169
26.864	55.6652
26.948	58.5429
27.028	62.9719

File: C-4040-8_t50_cm-1.asc
PE IR       SPECTRUM    SPECTRUM    ASCII       PEDS        1.60
  -1
C-1C61~1.ASC
17/03/27
18:36:59.00
17/03/27
18:36:59.00
tln
$C-4040-8_t0050$<tbV0>[0.0,-2.6,8.0,0.0,27,1,0]
370
64

2002,4.07
MIRTGS : RIGHTBACK : INTERNAL 2
MIR : ON : INTERNAL 2
OPTKBR

0.200000
8
8.000000
FILLER
RATIO
SPECTRUM
UNLOCKED 256

DOUBLE
64
COMBINED
1
0
0

1.000000
RATIO

1
0
TRUE
51149
0
LEFT NOT FITTED RIGHT NOT FITTED 0
NONE
NONE
15600
12
4.427000
51148
TRUE
1 0 8 72 0 0 0 0

15798

#HDR
-1
-1
#GR
CM-1
%T
2.38419e-05
0.0
5000
-1.000000
4631
8
76.9396
24.6443
#DATA
5000	63.8391
4984	64.4315
4968	63.6801
4952	64.3757
4936	64.6834
4920	64.3069
4904	64.2363
4888	63.707
4872	63.8118
4856	63.6731
4840	63.5128
4824	63.8253
4808	63.8378
4792	64.5213
4776	64.0599
4760	63.4376
4744	63.6989
4728	63.5592
4712	63.9201
4696	63.7734
4680	63.6086
4664	63.7256
4648	63.7787
4632	63.7212
4616	63.7856
4600	63.8405
4584	63.4722
4568	63.5969
4552	63.3663
4536	63.5074
4520	63.3939
4504	63.9072
4488	63.9626
4472	63.9669
4456	63.7914
4440	63.7912
4424	63.9997
4408	64.4793
4392	64.2079
4376	64.6618
4360	50.1631
4344	71.433
4328	64.1668
4312	64.1303
4296	63.6028
4280	63.988
4264	63.6181
4248	63.4921
4232	63.664
4216	63.3741
4200	63.1388
4184	63.6752
4168	63.2972
4152	63.2924
4136	63.372
4120	62.8592
4104	63.5762
4088	63.3488
4072	63.4882
4056	63.2993
4040	63.2695
4024	62.993
4008	63.2652
3992	63.0579
3976	62.9229
3960	63.2268
3944	63.1264
3928	62.9876
3912	62.9988
3896	62.8699
3880	63.0924
3864	63.0656
3848	63.2303
3832	62.7107
3816	62.676
3800	62.8592
3784	62.7611
3768	62.8037
3752	62.79
3736	62.6532
3720	62.6217
3704	62.4775
3688	62.7111
3672	62.4457
3656	62.5654
3640	62.4235
3624	62.2847
3608	62.2964
3592	62.4472
3576	62.2998
3560	62.2049
3544	62.3366
3528	62.1072
3512	62.2126
3496	61.8541
3480	62.1643
3464	62.2272
3448	62.1227
3432	61.9757
3416	61.8534
3400	61.7601
3384	61.7697
3368	61.5533
3352	61.5992
3336	61.5786
3320	61.527
3304	61.2792
3288	61.2401
3272	61.3023
3256	61.4756
3240	60.9015
3224	61.0115
3208	61.0018
3192	60.9223
3176	60.947
3160	60.8406
3144	60.5749
3128	60.5847
3112	60.6887
3096	60.6072
3080	60.5075
3064	60.4393
3048	60.3992
3032	60.2704
3016	60.1906
3000	60.0959
2984	60.0874
2968	60.0553
2952	59.6829
2936	59.7925
2920	59.4341
2904	59.6121
2888	59.5459
2872	59.3926
2856	59.0181
2840	59.2791
2824	59.167
2808	59.1725
2792	59.0233
2776	58.9895
2760	58.9392
2744	58.7595
2728	58.751
2712	58.5692
2696	58.6187
2680	58.4753
2664	58.4511
2648	58.2445
2632	58.1714
2616	58.0418
2600	57.9964
2584	57.8984
2568	57.773
2552	57.6615
2536	57.6128
2520	57.5077
2504	57.3342
2488	57.4114
2472	57.1871
2456	57.0657
2440	56.8018
2424	56.9458
2408	56.8861
2392	56.7473
2376	56.6382
2360	56.479
2344	56.2708
2328	56.1027
2312	56.0563
2296	56.0193
2280	55.9254
2264	55.7378
2248	55.9269
2232	55.7475
2216	55.5348
2200	55.3193
2184	55.2761
2168	54.9825
2152	55.1299
2136	54.9025
2120	54.8408
2104	54.6263
2088	54.669
2072	54.2804
2056	54.4613
2040	54.2176
2024	54.1359
2008	54.0004
1992	53.9361
1976	53.8633
1960	53.5921
1944	53.6169
1928	53.4547
1912	53.373
1896	53.3206
1880	53.1108
1864	52.8793
1848	52.7343
1832	52.6628
1816	52.5087
1800	52.346
1784	52.301
1768	52.1456
1752	52.0347
1736	51.8445
1720	51.5921
1704	51.708
1688	51.5769
1672	51.5239
1656	51.3234
1640	51.1953
1624	50.9562
1608	50.8725
1592	50.7458
1576	50.7454
1560	50.5149
1544	50.5093
1528	50.2605
1512	50.175
1496	50.2273
1480	50.0365
1464	49.8578
1448	49.7618
1432	49.8084
1416	49.5875
1400	49.3042
1384	49.2159
1368	49.2777
1352	49.0309
1336	48.8464
1320	48.6757
1304	48.5565
1288	48.3559
1272	48.2593
1256	48.28
1240	48.1033
1224	47.7813
1208	47.6629
1192	48.0474
1176	47.6916
1160	48.2176
1144	47.5042
1128	47.0679
1112	47.2285
1096	46.9515
1080	46.9212
1064	46.6533
1048	46.2853
1032	46.1446
1016	46.4323
1000	45.9443
984	 45.9995
968	 45.8843
952	 45.5605
936	 45.6143
920	 45.4175
904	 45.1355
888	 44.7497
872	 44.9068
856	 44.6841
840	 44.4988
824	 44.4667
808	 44.1624
792	 43.9428
776	 43.985
760	 43.4271
744	 43.6332
728	 42.954
712	 42.6684
696	 42.5969
680	 42.0252
664	 41.5921
648	 41.5284
632	 40.8777
616	 40.8075
600	 40.143
584	 39.354
568	 39.2368
552	 38.1704
536	 37.9685
520	 37.7041
504	 37.8204
488	 36.9482
472	 36.5558
456	 35.3435
440	 35.9018
424	 36.2999
408	 38.936
392	 26.324
376	 50.0359
370	 62.9719

File: C-4040-8_t51.asc
PE IR       SPECTRUM    SPECTRUM    ASCII       PEDS        1.60
  -1
C-A93E~1.ASC
17/03/27
18:41:36.00
17/03/27
18:42:02.00
tln
$C-4040-8_t0051$<tbV0>[-2.6,-2.6,8.0,0.0,27,1,0]
27.028
64

2002,4.07
MIRTGS : RIGHTBACK : INTERNAL 2
MIR : ON : INTERNAL 2
OPTKBR

0.200000
8
8.000000
FILLER
RATIO
SPECTRUM
UNLOCKED 256

DOUBLE
64
COMBINED
1
0
0

0.002000
RATIO

1
0
TRUE
51149
0
LEFT NOT FITTED RIGHT NOT FITTED 0
NONE
NONE
15600
12
4.427000
51148
TRUE
1 0 8 72 0 0 0 0

15798

#HDR
-1
-1
#GR
µM
%T
2.38419e-05
0.0
2.000000
0.002000
12515
8
118.245
32.8821
#DATA
2.000000	 64.7694
2.084000	 64.7822
2.168000	 64.6138
2.252000	 65.1661
2.336000	 66.0825
2.420000	 64.4269
2.504000	 64.4915
2.588000	 64.5904
2.672000	 64.3485
2.756000	 64.2283
2.840000	 63.9058
2.924000	 64.0665
3.008000	 64.0542
3.092000	 63.7363
3.176000	 63.4655
3.260000	 63.5855
3.344000	 63.4627
3.428000	 63.0534
3.512000	 63.062
3.596000	 62.9128
3.680000	 62.6859
3.764000	 62.7689
3.848000	 62.5404
3.932000	 62.5706
4.016000	 62.3118
4.100000	 62.2051
4.184000	 62.2036
4.268000	 62.0795
4.352000	 61.8301
4.436000	 61.7844
4.520000	 61.6953
4.604000	 61.588
4.688000	 61.4586
4.772000	 61.3228
4.856000	 61.2783
4.940000	 61.0777
5.024000	 61.0152
5.108000	 60.9121
5.192000	 60.732
5.276000	 60.7956
5.359999	 60.5387
5.444000	 60.5157
5.528000	 60.4506
5.612000	 60.3799
5.696000	 60.3058
5.780000	 60.1331
5.864000	 60.1214
5.948000	 60.0622
6.032000	 60.151
6.116000	 59.8479
6.200000	 59.8626
6.284000	 59.6371
6.368000	 59.7223
6.452000	 59.7033
6.536000	 59.5234
6.620000	 59.3268
6.704000	 59.3635
6.788000	 59.2816
6.872000	 59.1429
6.956000	 59.2913
7.040000	 59.1975
7.124000	 59.0839
7.208000	 59.0922
7.292000	 59.0061
7.376000	 59.0173
7.460000	 58.9424
7.544000	 58.8499
7.628000	 58.7797
7.712000	 58.7868
7.796000	 58.7479
7.880000	 58.6085
7.964000	 58.5253
8.048000	 58.6319
8.132000	 58.646
8.216000	 58.4078
8.300000	 58.4652
8.384000	 58.4608
8.468000	 58.8027
8.552000	 58.3277
8.635999	 58.1728
8.719999	 58.4404
8.804000	 58.0331
8.888000	 58.145
8.972000	 58.0718
9.056000	 58.0498
9.140000	 57.5495
9.224000	 58.3004
9.308000	 57.8279
9.391999	 57.9396
9.475999	 57.9435
9.560000	 57.6532
9.644000	 57.6972
9.728000	 57.6848
9.812000	 57.3899
9.896000	 57.6663
9.980000	 57.7323
10.064	57.721
10.148	57.5418
10.232	57.5131
10.316	57.347
10.4	57.2394
10.484	57.1329
10.568	57.1104
10.652	57.2269
10.736	57.1364
10.82	57.111
10.904	57.0707
10.988	57.0531
11.072	57.0419
11.156	56.903
11.24	56.9213
11.324	56.8398
11.408	56.3869
11.492	56.5626
11.576	56.8546
11.66	56.6798
11.744	56.6606
11.828	56.6514
11.912	56.6039
11.996	56.5804
12.08	56.6111
12.164	56.5095
12.248	56.2945
12.332	56.3098
12.416	56.2356
12.5	56.3694
12.584	56.5729
12.668	56.3336
12.752	56.3258
12.836	56.384
12.92	56.1686
13.004	55.9578
13.088	55.8037
13.172	55.4474
13.256	55.1196
13.34	56.0204
13.424	56.3629
13.508	55.8303
13.592	55.5355
13.676	55.5712
13.76	55.5623
13.844	55.4862
13.928	55.5514
14.012	55.4612
14.096	55.3595
14.18	55.4085
14.264	55.343
14.348	55.3662
14.432	55.468
14.516	55.3231
14.6	55.0758
14.684	54.9719
14.768	55.0522
14.852	55.0249
14.936	54.847
15.02	54.9569
15.104	55.2678
15.188	55.336
15.272	55.1653
15.356	54.9717
15.44	54.8262
15.524	54.7557
15.608	54.7716
15.692	54.7452
15.776	54.5837
15.86	54.4147
15.944	54.3906
16.028	54.4861
16.112	54.5873
16.196	54.6302
16.28	54.5836
16.364	54.4815
16.448	54.4924
16.532	54.645
16.616	54.6704
16.7	54.4661
16.784	54.2867
16.868	54.2003
16.952	53.9761
17.036	53.6085
17.12	53.3668
17.204	53.3518
17.288	53.4408
17.372	53.5166
17.456	53.5265
17.54	53.4792
17.624	53.4451
17.708	53.4715
17.792	53.5289
17.876	53.5648
17.96	53.5414
18.044	53.4466
18.128	53.342
18.212	53.3157
18.296	53.3447
18.38	53.3066
18.464	53.1401
18.548	52.9207
18.632	52.7532
18.716	52.6723
18.8	52.6605
18.884	52.6844
18.968	52.6752
19.052	52.5466
19.136	52.2846
19.22	51.9995
19.304	51.8441
19.388	51.8844
19.472	52.0684
19.556	52.2926
19.64	52.4693
19.724	52.5425
19.808	52.4827
19.892	52.2931
19.976	52.0331
20.06	51.8056
20.144	51.6876
20.228	51.6727
20.312	51.6914
20.396	51.6747
20.48	51.5949
20.564	51.4598
20.648	51.2918
20.732	51.127
20.816	51.0092
20.9	50.9565
20.984	50.9446
21.068	50.9232
21.152	50.8772
21.236	50.8547
21.32	50.9214
21.404	51.0695
21.488	51.1815
21.572	51.115
21.656	50.8434
21.74	50.5087
21.824	50.326
21.908	50.4018
21.992	50.6331
22.076	50.7819
22.16	50.6462
22.244	50.2109
22.328	49.649
22.412	49.1769
22.496	48.9176
22.58	48.8451
22.664	48.8526
22.748	48.8283
22.832	48.7075
22.916	48.4857
23	48.2188
23.084	47.9757
23.168	47.8263
23.252	47.8133
23.336	47.9403
23.42	48.1942
23.504	48.5817
23.588	49.1431
23.672	49.9131
23.756	50.8609
23.84	51.8935
23.924	52.8406
24.008	53.5494
24.092	54.003
24.176	54.3676
24.26	54.7855
24.344	55.3035
24.428	55.8125
24.512	55.9534
24.596	55.4007
24.68	54.0291
24.764	52.0212
24.848	49.6773
24.932	47.5641
25.016	46.3314
25.1	46.4481
25.184	47.7073
25.268	49.1721
25.352	49.5892
25.436	48.0826
25.52	44.7965
25.604	40.8585
25.688	37.6404
25.772	36.206
25.856	37.1323
25.94	41.0392
26.024	48.7031
26.108	60.7073
26.192	76.5069
26.276	93.8994
26.36	108.935
26.444	117.425
26.528	116.568
26.612	106.174
26.696	88.6628
26.78	68.4622
26.864	50.3012
26.948	37.8235
27.028	32.8821