Folder: Masteroppgave/Bakgrunnsmateriale/MATLAB/FTIR/ftir_data/subBb/Mapping_121 (part 20)

File: C-4040-8_t41_cm-1.asc
PE IR       SPECTRUM    SPECTRUM    ASCII       PEDS        1.60
  -1
C-9BE4~1.ASC
17/03/27
17:48:30.00
17/03/27
17:48:30.00
tln
$C-4040-8_t0041$<tbV0>[-5.2,-5.2,8.0,0.0,27,1,0]
370
64

2002,4.07
MIRTGS : RIGHTBACK : INTERNAL 2
MIR : ON : INTERNAL 2
OPTKBR

0.200000
8
8.000000
FILLER
RATIO
SPECTRUM
UNLOCKED 256

DOUBLE
64
COMBINED
1
0
0

1.000000
RATIO

1
0
TRUE
51149
0
LEFT NOT FITTED RIGHT NOT FITTED 0
NONE
NONE
15600
12
4.427000
51148
TRUE
1 0 8 72 0 0 0 0

15798

#HDR
-1
-1
#GR
CM-1
%T
2.38419e-05
0.0
5000
-1.000000
4631
8
79.0084
16.2824
#DATA
5000	63.6328
4984	63.3846
4968	63.7909
4952	64.1668
4936	63.4201
4920	63.4906
4904	63.5592
4888	63.6544
4872	63.7099
4856	63.7778
4840	63.4151
4824	63.7295
4808	63.5083
4792	63.4938
4776	63.4046
4760	63.9882
4744	64.1734
4728	63.7114
4712	63.7347
4696	63.7447
4680	63.6475
4664	63.7254
4648	63.6602
4632	63.9901
4616	63.7306
4600	63.7417
4584	63.7371
4568	63.3613
4552	63.1368
4536	63.0807
4520	63.3197
4504	63.194
4488	62.8025
4472	62.6452
4456	62.9246
4440	62.7892
4424	62.3564
4408	62.2182
4392	62.9024
4376	63.1664
4360	67.9719
4344	64.5819
4328	62.8071
4312	62.767
4296	62.5498
4280	62.3116
4264	62.3236
4248	62.5216
4232	62.511
4216	62.6349
4200	62.8904
4184	62.4578
4168	62.8082
4152	62.5654
4136	62.9871
4120	62.9038
4104	62.7448
4088	62.681
4072	62.7349
4056	62.7333
4040	62.8031
4024	62.6334
4008	62.6762
3992	62.6885
3976	62.8009
3960	62.475
3944	62.4245
3928	62.3606
3912	62.307
3896	62.4958
3880	62.6196
3864	61.9372
3848	62.1431
3832	61.9781
3816	61.9772
3800	61.8816
3784	61.7203
3768	61.9837
3752	61.8538
3736	61.6717
3720	61.7964
3704	61.6956
3688	61.6309
3672	61.5991
3656	61.6613
3640	61.4016
3624	61.4769
3608	61.3648
3592	61.289
3576	61.3578
3560	61.2506
3544	61.07
3528	61.0812
3512	61.0301
3496	60.8653
3480	60.8762
3464	60.7684
3448	60.752
3432	60.5131
3416	60.3274
3400	60.2465
3384	60.0995
3368	60.295
3352	60.145
3336	60.0084
3320	60.0887
3304	59.838
3288	59.8669
3272	59.6345
3256	59.6034
3240	59.5644
3224	59.4597
3208	59.1979
3192	59.1793
3176	59.3988
3160	58.883
3144	58.7705
3128	58.6666
3112	59.0688
3096	58.7156
3080	58.6274
3064	58.4121
3048	58.3121
3032	58.3559
3016	58.0501
3000	57.9795
2984	57.7914
2968	57.6777
2952	57.4463
2936	57.3697
2920	57.0798
2904	57.2221
2888	57.0647
2872	57.0584
2856	56.6311
2840	56.8177
2824	56.6949
2808	56.5933
2792	56.4186
2776	56.2474
2760	56.2508
2744	56.1651
2728	55.8501
2712	55.8419
2696	55.7396
2680	55.5186
2664	55.3375
2648	55.2088
2632	55.1225
2616	55.0815
2600	54.7592
2584	54.6355
2568	54.5328
2552	54.3316
2536	54.2311
2520	54.0307
2504	53.8563
2488	53.7247
2472	53.5604
2456	53.4427
2440	53.2026
2424	53.024
2408	52.8769
2392	52.8232
2376	52.5789
2360	52.4556
2344	52.3577
2328	52.1602
2312	52.0293
2296	51.7897
2280	51.6363
2264	51.4729
2248	51.3636
2232	51.2156
2216	50.8973
2200	50.9107
2184	50.6628
2168	50.4651
2152	50.2512
2136	50.1378
2120	49.9369
2104	49.8524
2088	49.756
2072	49.5266
2056	49.4004
2040	49.0977
2024	48.9288
2008	48.7436
1992	48.6992
1976	48.3967
1960	48.2298
1944	48.042
1928	47.881
1912	47.5944
1896	47.3516
1880	47.3039
1864	47.0226
1848	46.8623
1832	46.6952
1816	46.6274
1800	46.3842
1784	46.2125
1768	45.9491
1752	45.7522
1736	45.3937
1720	45.2394
1704	45.3169
1688	45.0406
1672	44.8422
1656	44.5264
1640	44.3953
1624	44.2466
1608	44.1598
1592	43.88
1576	43.4861
1560	43.3575
1544	43.3424
1528	43.0241
1512	42.9287
1496	42.8091
1480	42.5835
1464	42.3155
1448	42.2604
1432	42.0063
1416	41.8184
1400	41.6206
1384	41.2858
1368	41.1136
1352	40.9469
1336	40.8218
1320	40.6105
1304	40.3176
1288	40.2034
1272	40.0351
1256	39.8342
1240	39.6302
1224	39.4365
1208	39.2316
1192	39.0995
1176	39.0707
1160	38.7738
1144	38.3105
1128	38.1198
1112	37.9682
1096	38.0691
1080	37.7038
1064	37.2747
1048	37.269
1032	37.106
1016	37.0366
1000	36.3075
984	 36.4706
968	 35.9448
952	 35.8187
936	 35.5478
920	 35.4376
904	 35.0755
888	 35.0971
872	 34.5496
856	 34.3284
840	 34.0355
824	 33.8114
808	 33.4333
792	 33.3015
776	 32.8434
760	 32.6067
744	 32.0086
728	 31.5146
712	 31.3839
696	 30.8428
680	 30.4394
664	 29.8672
648	 29.687
632	 28.984
616	 28.5002
600	 28.6077
584	 27.7322
568	 27.3825
552	 26.6839
536	 26.1188
520	 25.6875
504	 24.5091
488	 24.2656
472	 22.8624
456	 22.9093
440	 21.8961
424	 18.5693
408	 18.3655
392	 25.8173
376	 45.8916
370	 62.3085

File: C-4040-8_t42.asc
PE IR       SPECTRUM    SPECTRUM    ASCII       PEDS        1.60
  -1
C-A532~1.ASC
17/03/27
17:53:07.00
17/03/27
17:53:33.00
tln
$C-4040-8_t0042$<tbV0>[-7.8,-5.2,8.0,0.0,27,1,0]
27.028
64

2002,4.07
MIRTGS : RIGHTBACK : INTERNAL 2
MIR : ON : INTERNAL 2
OPTKBR

0.200000
8
8.000000
FILLER
RATIO
SPECTRUM
UNLOCKED 256

DOUBLE
64
COMBINED
1
0
0

0.002000
RATIO

1
0
TRUE
51149
0
LEFT NOT FITTED RIGHT NOT FITTED 0
NONE
NONE
15600
12
4.427000
51148
TRUE
1 0 8 72 0 0 0 0

15798

#HDR
-1
-1
#GR
µM
%T
2.38419e-05
0.0
2.000000
0.002000
12515
8
115.791
43.6513
#DATA
2.000000	 64.7132
2.084000	 64.3972
2.168000	 64.6722
2.252000	 64.4041
2.336000	 64.2728
2.420000	 64.2284
2.504000	 64.3511
2.588000	 64.2249
2.672000	 64.2643
2.756000	 64.3133
2.840000	 64.2746
2.924000	 63.7239
3.008000	 63.6876
3.092000	 63.7448
3.176000	 63.4664
3.260000	 63.4771
3.344000	 63.3753
3.428000	 62.8515
3.512000	 62.8033
3.596000	 63.0086
3.680000	 62.7561
3.764000	 62.4817
3.848000	 62.4806
3.932000	 62.4001
4.016000	 61.9561
4.100000	 61.8643
4.184000	 61.9785
4.268000	 61.8681
4.352000	 61.5727
4.436000	 61.4544
4.520000	 61.4167
4.604000	 61.3172
4.688000	 61.3291
4.772000	 61.0116
4.856000	 60.9701
4.940000	 60.7763
5.024000	 60.8004
5.108000	 60.6819
5.192000	 60.5304
5.276000	 60.2781
5.359999	 60.3277
5.444000	 60.2984
5.528000	 60.0856
5.612000	 59.8941
5.696000	 59.6732
5.780000	 59.6643
5.864000	 59.7205
5.948000	 59.6522
6.032000	 59.5482
6.116000	 59.4891
6.200000	 59.3571
6.284000	 59.1999
6.368000	 59.135
6.452000	 59.0124
6.536000	 58.9684
6.620000	 58.8942
6.704000	 58.9725
6.788000	 58.7719
6.872000	 58.7457
6.956000	 58.618
7.040000	 58.6146
7.124000	 58.5103
7.208000	 58.4829
7.292000	 58.484
7.376000	 58.4789
7.460000	 58.2037
7.544000	 58.1222
7.628000	 58.0242
7.712000	 58.1893
7.796000	 57.969
7.880000	 58.0521
7.964000	 58.0165
8.048000	 57.9295
8.132000	 57.8926
8.216000	 57.8104
8.300000	 57.6013
8.384000	 57.7495
8.468000	 57.6352
8.552000	 57.3509
8.635999	 57.5372
8.719999	 57.5294
8.804000	 57.4877
8.888000	 57.361
8.972000	 57.3744
9.056000	 57.0345
9.140000	 57.283
9.224000	 57.5143
9.308000	 57.4236
9.391999	 57.0214
9.475999	 56.9113
9.560000	 57.0508
9.644000	 56.8962
9.728000	 57.0533
9.812000	 56.8767
9.896000	 56.9922
9.980000	 56.7159
10.064	56.4754
10.148	56.7636
10.232	56.4565
10.316	56.3357
10.4	56.4336
10.484	56.5842
10.568	56.365
10.652	56.17
10.736	56.235
10.82	56.1829
10.904	56.3728
10.988	56.3223
11.072	56.2358
11.156	56.1396
11.24	56.1579
11.324	56.121
11.408	56.1403
11.492	55.8173
11.576	55.7993
11.66	55.9595
11.744	55.9466
11.828	55.8283
11.912	55.5252
11.996	55.6839
12.08	55.6194
12.164	55.7568
12.248	55.5426
12.332	55.3445
12.416	55.6004
12.5	55.5702
12.584	55.4219
12.668	55.382
12.752	55.1193
12.836	54.9839
12.92	54.9568
13.004	54.7894
13.088	54.9009
13.172	55.0671
13.256	54.7303
13.34	54.4255
13.424	54.6346
13.508	54.732
13.592	54.3466
13.676	54.3174
13.76	54.4551
13.844	54.2958
13.928	54.2033
14.012	54.2108
14.096	54.344
14.18	54.6325
14.264	54.6222
14.348	54.2666
14.432	53.9629
14.516	53.9179
14.6	54.0218
14.684	54.0753
14.768	54.0272
14.852	54.0376
14.936	54.1704
15.02	54.1549
15.104	53.9598
15.188	53.8575
15.272	53.804
15.356	53.6805
15.44	53.562
15.524	53.4191
15.608	53.2477
15.692	53.24
15.776	53.4484
15.86	53.6821
15.944	53.7863
16.028	53.75
16.112	53.6147
16.196	53.4181
16.28	53.2271
16.364	53.141
16.448	53.1856
16.532	53.2686
16.616	53.2475
16.7	53.0611
16.784	52.8344
16.868	52.7435
16.952	52.775
17.036	52.7861
17.12	52.7264
17.204	52.6048
17.288	52.3738
17.372	52.0726
17.456	51.8986
17.54	51.9583
17.624	52.1265
17.708	52.2467
17.792	52.2972
17.876	52.3252
17.96	52.3758
18.044	52.4823
18.128	52.6085
18.212	52.6622
18.296	52.6098
18.38	52.5073
18.464	52.4101
18.548	52.3054
18.632	52.1475
18.716	51.9322
18.8	51.7259
18.884	51.6383
18.968	51.7372
19.052	51.9713
19.136	52.1975
19.22	52.2853
19.304	52.1878
19.388	51.9455
19.472	51.6516
19.556	51.4156
19.64	51.3097
19.724	51.3195
19.808	51.3404
19.892	51.2424
19.976	50.9618
20.06	50.555
20.144	50.1767
20.228	49.9985
20.312	50.1109
20.396	50.4624
20.48	50.8847
20.564	51.1762
20.648	51.2198
20.732	51.0316
20.816	50.7253
20.9	50.4234
20.984	50.1942
21.068	50.0541
21.152	50.0089
21.236	50.0911
21.32	50.3585
21.404	50.8219
21.488	51.3728
21.572	51.798
21.656	51.8751
21.74	51.5074
21.824	50.7865
21.908	49.9337
21.992	49.1704
22.076	48.6259
22.16	48.3235
22.244	48.2455
22.328	48.3561
22.412	48.5876
22.496	48.8117
22.58	48.8669
22.664	48.6437
22.748	48.1922
22.832	47.7219
22.916	47.5119
23	47.7552
23.084	48.4464
23.168	49.3684
23.252	50.2201
23.336	50.7217
23.42	50.6745
23.504	50.059
23.588	48.9699
23.672	47.5841
23.756	46.2422
23.84	45.2663
23.924	44.9156
24.008	45.3285
24.092	46.4526
24.176	47.9731
24.26	49.4873
24.344	50.5926
24.428	51.042
24.512	50.8123
24.596	50.0374
24.68	49.0307
24.764	48.2851
24.848	48.3979
24.932	49.989
25.016	53.5041
25.1	59.1237
25.184	66.9621
25.268	76.9246
25.352	88.5601
25.436	100.392
25.52	110.098
25.604	115.332
25.688	114.519
25.772	107.813
25.856	97.0193
25.94	84.6474
26.024	72.8943
26.108	62.7711
26.192	54.548
26.276	48.296
26.36	44.5203
26.444	43.7624
26.528	46.2954
26.612	51.5064
26.696	58.2962
26.78	65.2788
26.864	71.6182
26.948	77.0478
27.028	81.1591

File: C-4040-8_t42_cm-1.asc
PE IR       SPECTRUM    SPECTRUM    ASCII       PEDS        1.60
  -1
C-9B64~1.ASC
17/03/27
17:53:07.00
17/03/27
17:53:07.00
tln
$C-4040-8_t0042$<tbV0>[-7.8,-5.2,8.0,0.0,27,1,0]
370
64

2002,4.07
MIRTGS : RIGHTBACK : INTERNAL 2
MIR : ON : INTERNAL 2
OPTKBR

0.200000
8
8.000000
FILLER
RATIO
SPECTRUM
UNLOCKED 256

DOUBLE
64
COMBINED
1
0
0

1.000000
RATIO

1
0
TRUE
51149
0
LEFT NOT FITTED RIGHT NOT FITTED 0
NONE
NONE
15600
12
4.427000
51148
TRUE
1 0 8 72 0 0 0 0

15798

#HDR
-1
-1
#GR
CM-1
%T
2.38419e-05
0.0
5000
-1.000000
4631
8
115.776
43.9062
#DATA
5000	64.7132
4984	64.1689
4968	64.831
4952	64.4926
4936	65.0901
4920	64.9045
4904	64.7032
4888	64.6145
4872	64.7037
4856	64.5138
4840	64.5719
4824	64.7815
4808	64.3614
4792	64.5269
4776	64.4823
4760	64.9225
4744	64.9417
4728	64.4831
4712	64.8628
4696	64.7383
4680	64.4457
4664	64.5982
4648	64.5923
4632	64.8729
4616	64.5656
4600	64.7753
4584	64.4726
4568	64.4728
4552	64.9305
4536	64.5897
4520	64.6183
4504	64.3029
4488	64.6761
4472	64.3809
4456	64.6702
4440	64.4385
4424	64.1767
4408	64.1329
4392	65.0582
4376	64.7299
4360	63.8393
4344	66.5145
4328	63.6581
4312	64.7051
4296	64.5427
4280	64.2289
4264	64.1814
4248	64.4543
4232	64.4882
4216	64.4069
4200	64.6301
4184	64.4955
4168	64.5223
4152	64.3628
4136	64.1616
4120	64.3663
4104	64.1039
4088	64.634
4072	64.5466
4056	64.3538
4040	64.4231
4024	64.4032
4008	64.4589
3992	64.3048
3976	64.4675
3960	64.1614
3944	64.2129
3928	64.1747
3912	64.1629
3896	64.2207
3880	64.6309
3864	64.2245
3848	64.4687
3832	64.2333
3816	64.5385
3800	64.3702
3784	64.299
3768	64.2762
3752	64.4386
3736	64.2575
3720	64.4169
3704	64.3913
3688	64.2051
3672	64.0893
3656	64.2269
3640	64.2246
3624	64.2484
3608	64.1463
3592	64.164
3576	64.3182
3560	63.9783
3544	63.9549
3528	64.214
3512	64.1938
3496	64.1824
3480	64.0773
3464	63.8546
3448	64.0049
3432	64.0669
3416	63.6942
3400	63.8096
3384	63.8167
3368	63.7923
3352	63.934
3336	63.8826
3320	63.7804
3304	63.7201
3288	63.8199
3272	63.6482
3256	63.6553
3240	63.703
3224	63.7045
3208	63.3185
3192	63.7652
3176	63.3894
3160	63.7105
3144	63.3532
3128	63.2114
3112	63.7823
3096	63.5193
3080	63.3183
3064	63.459
3048	63.3503
3032	63.3494
3016	63.3147
3000	63.2624
2984	63.1893
2968	63.3595
2952	63.0077
2936	62.9821
2920	62.7736
2904	62.879
2888	63.0822
2872	62.9983
2856	62.831
2840	63.0865
2824	62.8119
2808	63.0037
2792	62.9358
2776	62.8998
2760	62.708
2744	62.8665
2728	62.7767
2712	62.711
2696	62.6207
2680	62.6739
2664	62.6529
2648	62.5625
2632	62.579
2616	62.4135
2600	62.4912
2584	62.4212
2568	62.4261
2552	62.3264
2536	62.3364
2520	62.3157
2504	61.991
2488	62.0054
2472	62.2018
2456	62.0482
2440	61.8894
2424	61.9861
2408	62.0237
2392	61.9977
2376	61.7763
2360	61.8188
2344	61.8814
2328	61.5757
2312	61.6778
2296	61.5511
2280	61.5427
2264	61.5092
2248	61.3631
2232	61.4968
2216	61.3665
2200	61.429
2184	61.4057
2168	61.3289
2152	60.9936
2136	61.298
2120	61.0647
2104	61.112
2088	61.0682
2072	60.938
2056	60.9185
2040	60.8366
2024	60.7774
2008	60.8613
1992	60.8046
1976	60.7
1960	60.6485
1944	60.4916
1928	60.5471
1912	60.4782
1896	60.2856
1880	60.3238
1864	60.351
1848	60.2617
1832	60.231
1816	60.1131
1800	59.9779
1784	59.9222
1768	59.8929
1752	59.7532
1736	59.7301
1720	59.4846
1704	59.7293
1688	59.6606
1672	59.658
1656	59.4967
1640	59.5621
1624	59.3947
1608	59.3666
1592	59.1906
1576	59.3271
1560	59.2074
1544	58.9853
1528	58.9864
1512	58.8957
1496	58.9399
1480	58.8639
1464	58.7857
1448	58.6845
1432	58.5148
1416	58.7032
1400	58.4977
1384	58.4768
1368	58.4157
1352	58.4146
1336	58.2336
1320	58.1049
1304	58.1231
1288	58.0543
1272	58.0646
1256	58.0183
1240	57.8548
1224	57.8019
1208	57.7051
1192	57.7217
1176	57.4487
1160	57.5861
1144	57.4893
1128	57.5023
1112	57.298
1096	57.1962
1080	57.5588
1064	57.0132
1048	57.0308
1032	57.0692
1016	56.8743
1000	56.6349
984	 56.7323
968	 56.3078
952	 56.549
936	 56.1355
920	 56.2891
904	 56.2407
888	 56.1446
872	 55.9264
856	 55.9524
840	 55.5329
824	 55.6919
808	 55.4687
792	 55.4171
776	 54.9874
760	 55.0721
744	 54.6971
728	 54.4468
712	 54.2344
696	 54.1768
680	 54.0693
664	 54.0654
648	 53.5726
632	 53.5892
616	 53.3255
600	 53.1507
584	 52.7229
568	 52.0902
552	 52.5928
536	 52.0884
520	 52.2831
504	 51.3219
488	 50.9373
472	 50.0238
456	 49.7191
440	 48.3156
424	 49.0165
408	 50.8258
392	 109.171
376	 50.3423
370	 81.1591

File: C-4040-8_t43.asc
PE IR       SPECTRUM    SPECTRUM    ASCII       PEDS        1.60
  -1
C-A536~1.ASC
17/03/27
17:57:44.00
17/03/27
17:58:10.00
tln
$C-4040-8_t0043$<tbV0>[-10.4,-5.2,8.0,0.0,27,1,0]
27.028
64

2002,4.07
MIRTGS : RIGHTBACK : INTERNAL 2
MIR : ON : INTERNAL 2
OPTKBR

0.200000
8
8.000000
FILLER
RATIO
SPECTRUM
UNLOCKED 256

DOUBLE
64
COMBINED
1
0
0

0.002000
RATIO

1
0
TRUE
51149
0
LEFT NOT FITTED RIGHT NOT FITTED 0
NONE
NONE
15600
12
4.427000
51148
TRUE
1 0 8 72 0 0 0 0

15798

#HDR
-1
-1
#GR
µM
%T
2.38419e-05
0.0
2.000000
0.002000
12515
8
76.0595
40.9366
#DATA
2.000000	 64.6763
2.084000	 64.9671
2.168000	 64.9504
2.252000	 64.9245
2.336000	 64.9657
2.420000	 65.0957
2.504000	 64.8345
2.588000	 64.8363
2.672000	 65.155
2.756000	 65.199
2.840000	 65.0088
2.924000	 65.1072
3.008000	 65.0952
3.092000	 65.2015
3.176000	 65.0158
3.260000	 65.2542
3.344000	 65.0708
3.428000	 64.7984
3.512000	 65.1711
3.596000	 65.3154
3.680000	 65.2264
3.764000	 65.1736
3.848000	 65.3037
3.932000	 65.3054
4.016000	 65.0599
4.100000	 65.0696
4.184000	 65.3671
4.268000	 65.2463
4.352000	 65.2798
4.436000	 65.1935
4.520000	 65.1751
4.604000	 65.3148
4.688000	 65.4282
4.772000	 65.2036
4.856000	 65.3382
4.940000	 65.3899
5.024000	 65.3598
5.108000	 65.3468
5.192000	 65.3319
5.276000	 65.3063
5.359999	 65.2169
5.444000	 65.3528
5.528000	 65.2135
5.612000	 65.293
5.696000	 65.2359
5.780000	 65.0041
5.864000	 65.3585
5.948000	 65.2044
6.032000	 65.1438
6.116000	 65.1879
6.200000	 65.072
6.284000	 65.1974
6.368000	 65.0944
6.452000	 65.1033
6.536000	 65.2061
6.620000	 65.3299
6.704000	 65.2592
6.788000	 64.9382
6.872000	 65.0735
6.956000	 65.1214
7.040000	 65.1255
7.124000	 65.0168
7.208000	 65.1295
7.292000	 65.0872
7.376000	 65.1247
7.460000	 64.986
7.544000	 65.014
7.628000	 65.1706
7.712000	 65.0017
7.796000	 64.942
7.880000	 64.9072
7.964000	 65.0213
8.048000	 65.032
8.132000	 65.1224
8.216000	 65.126
8.300000	 64.9172
8.384000	 65.0793
8.468000	 64.6307
8.552000	 64.7186
8.635999	 64.5337
8.719999	 64.7821
8.804000	 65.0821
8.888000	 64.8113
8.972000	 64.6137
9.056000	 64.8291
9.140000	 65.0666
9.224000	 64.9615
9.308000	 64.7543
9.391999	 64.6532
9.475999	 64.8516
9.560000	 65.1181
9.644000	 64.6842
9.728000	 64.6788
9.812000	 65.0928
9.896000	 64.5096
9.980000	 64.2838
10.064	64.1668
10.148	64.7395
10.232	64.3526
10.316	64.6702
10.4	64.4798
10.484	64.7492
10.568	64.6932
10.652	64.4701
10.736	64.4422
10.82	64.4506
10.904	64.5366
10.988	64.584
11.072	64.6512
11.156	64.5465
11.24	64.6963
11.324	64.5167
11.408	64.5788
11.492	64.4429
11.576	64.3132
11.66	64.3491
11.744	64.4239
11.828	64.5243
11.912	64.4446
11.996	64.4763
12.08	64.3546
12.164	64.1109
12.248	64.0317
12.332	64.1171
12.416	64.0618
12.5	64.0884
12.584	64.2088
12.668	64.3681
12.752	64.4738
12.836	64.4522
12.92	64.1138
13.004	63.8784
13.088	64.063
13.172	64.0312
13.256	63.8347
13.34	64.0102
13.424	64.5545
13.508	64.8275
13.592	64.6
13.676	64.0971
13.76	63.7066
13.844	63.5418
13.928	63.4974
14.012	63.6684
14.096	63.7767
14.18	63.7625
14.264	63.7003
14.348	63.6121
14.432	63.4032
14.516	63.1536
14.6	63.1362
14.684	63.1815
14.768	63.1723
14.852	63.3241
14.936	63.5962
15.02	63.5393
15.104	63.1404
15.188	62.9675
15.272	63.0306
15.356	63.0327
15.44	63.1154
15.524	63.2322
15.608	63.0801
15.692	62.7558
15.776	62.487
15.86	62.3089
15.944	62.3116
16.028	62.5029
16.112	62.6515
16.196	62.6495
16.28	62.6241
16.364	62.6995
16.448	62.9577
16.532	63.3309
16.616	63.4925
16.7	63.2484
16.784	62.8468
16.868	62.591
16.952	62.5035
17.036	62.4819
17.12	62.4895
17.204	62.5247
17.288	62.5436
17.372	62.5202
17.456	62.5031
17.54	62.52
17.624	62.4722
17.708	62.2896
17.792	62.0945
17.876	62.0403
17.96	62.1192
18.044	62.2218
18.128	62.2542
18.212	62.1913
18.296	62.1032
18.38	62.11
18.464	62.2211
18.548	62.2855
18.632	62.1858
18.716	62.0054
18.8	61.9032
18.884	61.8897
18.968	61.8478
19.052	61.7298
19.136	61.6267
19.22	61.6387
19.304	61.7738
19.388	61.9811
19.472	62.2164
19.556	62.4211
19.64	62.5084
19.724	62.4388
19.808	62.2716
19.892	62.0936
19.976	61.925
20.06	61.7317
20.144	61.49
20.228	61.2136
20.312	60.9357
20.396	60.6991
20.48	60.5758
20.564	60.6487
20.648	60.9361
20.732	61.3269
20.816	61.6229
20.9	61.6528
20.984	61.3591
21.068	60.8174
21.152	60.1916
21.236	59.6657
21.32	59.364
21.404	59.3072
21.488	59.4196
21.572	59.5788
21.656	59.6831
21.74	59.6888
21.824	59.6118
21.908	59.502
21.992	59.412
22.076	59.3813
22.16	59.4304
22.244	59.5601
22.328	59.7481
22.412	59.9676
22.496	60.1949
22.58	60.402
22.664	60.5533
22.748	60.5997
22.832	60.4924
22.916	60.2264
23	59.8262
23.084	59.3541
23.168	58.922
23.252	58.6447
23.336	58.5879
23.42	58.7002
23.504	58.8498
23.588	58.8783
23.672	58.6864
23.756	58.2975
23.84	57.8164
23.924	57.3573
24.008	57.0196
24.092	56.914
24.176	57.1635
24.26	57.915
24.344	59.2924
24.428	61.2624
24.512	63.5239
24.596	65.5455
24.68	66.778
24.764	66.9466
24.848	66.19
24.932	65.0612
25.016	64.2943
25.1	64.4922
25.184	65.9172
25.268	68.3496
25.352	71.2439
25.436	73.6682
25.52	74.7114
25.604	73.8975
25.688	71.1866
25.772	67.1682
25.856	62.9146
25.94	59.5634
26.024	57.9287
26.108	58.1528
26.192	59.6773
26.276	61.5001
26.36	62.6015
26.444	62.1705
26.528	59.8864
26.612	55.82
26.696	50.6562
26.78	45.5614
26.864	41.9432
26.948	40.9874
27.028	42.9446

File: C-4040-8_t43_cm-1.asc
PE IR       SPECTRUM    SPECTRUM    ASCII       PEDS        1.60
  -1
C-9BE1~1.ASC
17/03/27
17:57:44.00
17/03/27
17:57:44.00
tln
$C-4040-8_t0043$<tbV0>[-10.4,-5.2,8.0,0.0,27,1,0]
370
64

2002,4.07
MIRTGS : RIGHTBACK : INTERNAL 2
MIR : ON : INTERNAL 2
OPTKBR

0.200000
8
8.000000
FILLER
RATIO
SPECTRUM
UNLOCKED 256

DOUBLE
64
COMBINED
1
0
0

1.000000
RATIO

1
0
TRUE
51149
0
LEFT NOT FITTED RIGHT NOT FITTED 0
NONE
NONE
15600
12
4.427000
51148
TRUE
1 0 8 72 0 0 0 0

15798

#HDR
-1
-1
#GR
CM-1
%T
2.38419e-05
0.0
5000
-1.000000
4631
8
76.0872
41.0396
#DATA
5000	64.6763
4984	64.1686
4968	64.4926
4952	64.2302
4936	64.5446
4920	64.3888
4904	64.1644
4888	64.9295
4872	64.9474
4856	64.6642
4840	64.6411
4824	65.1386
4808	64.9481
4792	64.7802
4776	64.4784
4760	65.053
4744	65.0345
4728	64.9488
4712	65.011
4696	64.9944
4680	64.9132
4664	64.6907
4648	64.6027
4632	64.9336
4616	64.7168
4600	65.1011
4584	64.9841
4568	65.1362
4552	65.3766
4536	64.7358
4520	65.2559
4504	64.508
4488	64.6168
4472	64.7342
4456	64.9273
4440	64.9342
4424	64.9661
4408	64.7277
4392	65.7496
4376	65.9347
4360	75.6021
4344	59.6909
4328	65.549
4312	65.1983
4296	65.3262
4280	65.0054
4264	64.9145
4248	65.0503
4232	65.1428
4216	65.1312
4200	64.9338
4184	65.26
4168	65.4932
4152	64.8194
4136	65.245
4120	65.0788
4104	64.8739
4088	65.0078
4072	64.8959
4056	64.9154
4040	64.7807
4024	65.1161
4008	65.1793
3992	64.8182
3976	65.2065
3960	64.8127
3944	64.9299
3928	64.9548
3912	65.119
3896	64.9125
3880	65.4164
3864	64.8363
3848	65.195
3832	64.8813
3816	65.4136
3800	65.1031
3784	64.9022
3768	65.0364
3752	65.2349
3736	65.221
3720	65.2021
3704	65.1102
3688	65.1056
3672	65.009
3656	65.1627
3640	65.252
3624	65.127
3608	65.0879
3592	65.1152
3576	65.1608
3560	64.9088
3544	65.0651
3528	64.9951
3512	65.2212
3496	65.3767
3480	65.2805
3464	65.243
3448	65.1856
3432	65.265
3416	65.093
3400	64.9186
3384	65.1198
3368	65.0709
3352	65.2221
3336	65.1342
3320	65.2169
3304	65.2014
3288	65.2298
3272	65.1829
3256	65.1453
3240	65.35
3224	64.711
3208	65.045
3192	65.3245
3176	65.2863
3160	65.0014
3144	65.0058
3128	65.1131
3112	65.7773
3096	65.0041
3080	65.1009
3064	65.2614
3048	65.0923
3032	65.4447
3016	65.1233
3000	64.9997
2984	65.145
2968	65.2237
2952	65.0936
2936	65.0084
2920	64.77
2904	65.1023
2888	65.1685
2872	65.1973
2856	64.8638
2840	65.3811
2824	65.1084
2808	65.3659
2792	65.3273
2776	65.2099
2760	65.2797
2744	65.4515
2728	65.2719
2712	65.2075
2696	65.2207
2680	65.261
2664	65.1748
2648	65.1212
2632	65.1833
2616	65.2521
2600	65.3193
2584	65.254
2568	65.3735
2552	65.2119
2536	65.2375
2520	65.414
2504	65.3968
2488	65.1454
2472	65.0827
2456	65.2766
2440	65.1208
2424	64.828
2408	65.0253
2392	65.3558
2376	65.2426
2360	65.3468
2344	65.2438
2328	65.2303
2312	65.3768
2296	65.2713
2280	65.3113
2264	65.2882
2248	65.2199
2232	65.3389
2216	65.1622
2200	65.3424
2184	65.4509
2168	65.2236
2152	65.2401
2136	65.3421
2120	65.3218
2104	65.2491
2088	65.4135
2072	65.1134
2056	65.243
2040	65.2334
2024	65.3853
2008	65.3094
1992	65.3811
1976	65.2566
1960	65.3382
1944	65.1634
1928	65.3378
1912	65.3181
1896	65.3033
1880	65.2228
1864	65.2238
1848	65.2472
1832	65.3426
1816	65.273
1800	65.2179
1784	65.3079
1768	65.2223
1752	65.2385
1736	65.1273
1720	65.0165
1704	65.372
1688	65.2588
1672	65.1209
1656	65.1532
1640	65.1862
1624	65.1333
1608	65.0961
1592	65.1974
1576	65.0663
1560	65.0674
1544	65.1109
1528	65.2313
1512	65.3099
1496	65.1855
1480	65.2297
1464	65.0121
1448	65.1087
1432	65.0852
1416	65.2218
1400	65.06
1384	65.077
1368	65.0043
1352	65.0758
1336	65.0802
1320	65.1021
1304	65.1101
1288	65.0012
1272	64.9058
1256	65.0277
1240	65.035
1224	65.03
1208	64.969
1192	65.0538
1176	64.7205
1160	64.5609
1144	64.7951
1128	64.9063
1112	64.5858
1096	65.078
1080	64.8745
1064	64.6762
1048	65.1057
1032	64.6379
1016	65.0125
1000	64.2915
984	 64.7173
968	 64.6407
952	 64.7972
936	 64.3925
920	 64.4796
904	 64.648
888	 64.7074
872	 64.5562
856	 64.3378
840	 64.4468
824	 64.1835
808	 64.1013
792	 64.2879
776	 64.2784
760	 64.0649
744	 64.6522
728	 63.7847
712	 63.7316
696	 63.5785
680	 63.1779
664	 63.3561
648	 63.1014
632	 62.3737
616	 62.6321
600	 63.3855
584	 62.4905
568	 62.4945
552	 62.2558
536	 62.1329
520	 61.6499
504	 62.1993
488	 60.5728
472	 59.9543
456	 59.4748
440	 60.6015
424	 58.881
408	 63.4664
392	 74.6825
376	 56.7158
370	 42.9446