Folder: Masteroppgave/Bakgrunnsmateriale/MATLAB/FTIR/ftir_data/subBb/Mapping_121 (part 34)

File: C-4040-8_t76_cm-1.asc
PE IR       SPECTRUM    SPECTRUM    ASCII       PEDS        1.60
  -1
C-1D6E~1.ASC
17/03/27
20:44:20.00
17/03/27
20:44:20.00
tln
$C-4040-8_t0076$<tbV0>[-10.4,2.6,8.0,0.0,27,1,0]
370
64

2002,4.07
MIRTGS : RIGHTBACK : INTERNAL 2
MIR : ON : INTERNAL 2
OPTKBR

0.200000
8
8.000000
FILLER
RATIO
SPECTRUM
UNLOCKED 256

DOUBLE
64
COMBINED
1
0
0

1.000000
RATIO

1
0
TRUE
51149
0
LEFT NOT FITTED RIGHT NOT FITTED 0
NONE
NONE
15600
12
4.427000
51148
TRUE
1 0 8 72 0 0 0 0

15798

#HDR
-1
-1
#GR
CM-1
%T
2.38419e-05
0.0
5000
-1.000000
4631
8
83.0847
25.9197
#DATA
5000	65.3125
4984	64.9359
4968	64.763
4952	64.9408
4936	64.5833
4920	64.9686
4904	65.0985
4888	65.0173
4872	65.3591
4856	64.5943
4840	64.8368
4824	64.7799
4808	65.1456
4792	65.2991
4776	65.3221
4760	64.8576
4744	65.0969
4728	65.1994
4712	65.2444
4696	64.8251
4680	65.3791
4664	65.2623
4648	65.6034
4632	65.413
4616	65.2804
4600	64.8429
4584	64.8055
4568	64.8761
4552	65.4191
4536	64.681
4520	64.609
4504	64.6241
4488	64.5629
4472	64.3953
4456	64.3187
4440	64.8238
4424	64.1102
4408	63.0558
4392	60.6751
4376	75.9385
4360	64.3034
4344	64.3874
4328	64.5162
4312	64.5075
4296	64.627
4280	64.619
4264	64.6653
4248	64.7381
4232	64.6437
4216	64.3595
4200	64.5606
4184	65.5199
4168	65.4182
4152	64.871
4136	65.0745
4120	65.2908
4104	65.0986
4088	65.2217
4072	65.2419
4056	65.3185
4040	65.075
4024	65.172
4008	65.2492
3992	65.2392
3976	65.2957
3960	65.2088
3944	64.9797
3928	65.2184
3912	65.1223
3896	65.2029
3880	64.9477
3864	65.3727
3848	64.9924
3832	64.9712
3816	65.1227
3800	65.0061
3784	65.2093
3768	65.196
3752	65.2032
3736	65.154
3720	65.3224
3704	65.176
3688	65.2194
3672	65.2914
3656	65.3887
3640	64.997
3624	65.2237
3608	65.2455
3592	65.2994
3576	65.2709
3560	65.2469
3544	65.2561
3528	65.2791
3512	65.2492
3496	65.1223
3480	65.0979
3464	65.2574
3448	65.5245
3432	65.1779
3416	65.3478
3400	65.0763
3384	65.3512
3368	65.191
3352	65.2757
3336	65.3057
3320	65.2219
3304	65.3355
3288	65.2975
3272	65.3256
3256	65.2663
3240	65.1098
3224	65.3152
3208	65.2716
3192	65.2652
3176	65.0748
3160	65.2935
3144	65.4639
3128	65.2358
3112	65.1698
3096	65.2304
3080	65.1185
3064	65.2629
3048	65.2477
3032	65.2773
3016	65.0572
3000	65.1017
2984	65.0929
2968	64.9276
2952	65.0456
2936	65.0259
2920	64.7706
2904	65.0035
2888	64.9834
2872	65.0928
2856	65.033
2840	65.129
2824	65.2788
2808	65.2575
2792	65.1628
2776	65.3952
2760	65.298
2744	65.346
2728	65.3013
2712	65.2717
2696	65.3887
2680	65.2771
2664	65.2311
2648	65.1889
2632	65.3469
2616	65.2831
2600	65.1654
2584	65.4016
2568	65.2233
2552	65.3205
2536	65.2153
2520	65.0571
2504	65.2367
2488	65.3404
2472	65.2704
2456	65.3859
2440	65.3041
2424	65.1799
2408	65.232
2392	65.2742
2376	65.2661
2360	65.2478
2344	65.2709
2328	65.3944
2312	65.2426
2296	65.3233
2280	65.3661
2264	65.3665
2248	65.3654
2232	65.295
2216	65.2954
2200	65.2054
2184	65.3016
2168	65.2199
2152	65.1372
2136	65.256
2120	65.2647
2104	65.3807
2088	65.27
2072	65.427
2056	65.3194
2040	65.3827
2024	65.2265
2008	65.4098
1992	65.251
1976	65.2275
1960	65.4145
1944	65.2014
1928	65.3863
1912	65.3541
1896	65.2483
1880	65.2203
1864	65.2631
1848	65.1164
1832	65.3757
1816	65.4398
1800	65.2376
1784	65.3857
1768	65.2558
1752	65.3362
1736	65.0067
1720	65.1176
1704	65.2231
1688	65.3623
1672	65.274
1656	65.2937
1640	65.1808
1624	65.0899
1608	65.0368
1592	65.0414
1576	64.9397
1560	64.9161
1544	64.9797
1528	65.1206
1512	65.0115
1496	64.9047
1480	65.1885
1464	64.9733
1448	64.9451
1432	65.1351
1416	65.2156
1400	65.0875
1384	65.2003
1368	65.0996
1352	65.0673
1336	65.1386
1320	65.1337
1304	65.1088
1288	65.055
1272	65.0559
1256	64.9458
1240	65.018
1224	65.0403
1208	65.0846
1192	64.8123
1176	64.9472
1160	64.9148
1144	64.9229
1128	64.8022
1112	64.6966
1096	64.6721
1080	65.0566
1064	64.8255
1048	64.737
1032	64.6099
1016	64.6863
1000	64.6001
984	 64.6899
968	 64.8229
952	 65.1084
936	 64.2494
920	 64.5099
904	 64.9774
888	 64.8466
872	 64.487
856	 64.5151
840	 64.5308
824	 64.4197
808	 64.5705
792	 64.1758
776	 64.4078
760	 64.419
744	 64.115
728	 64.0331
712	 64.0184
696	 63.6633
680	 63.5536
664	 63.2447
648	 63.4408
632	 62.7214
616	 62.6163
600	 63.0342
584	 63.0212
568	 62.3758
552	 62.3148
536	 61.5561
520	 61.8639
504	 60.6603
488	 61.1691
472	 61.1124
456	 60.3812
440	 60.4823
424	 57.8776
408	 59.1917
392	 59.4759
376	 36.3624
370	 25.9197

File: C-4040-8_t77.asc
PE IR       SPECTRUM    SPECTRUM    ASCII       PEDS        1.60
  -1
C-B146~1.ASC
17/03/27
20:48:57.00
17/03/27
20:49:23.00
tln
$C-4040-8_t0077$<tbV0>[-13.0,2.6,8.0,0.0,27,1,0]
27.028
64

2002,4.07
MIRTGS : RIGHTBACK : INTERNAL 2
MIR : ON : INTERNAL 2
OPTKBR

0.200000
8
8.000000
FILLER
RATIO
SPECTRUM
UNLOCKED 256

DOUBLE
64
COMBINED
1
0
0

0.002000
RATIO

1
0
TRUE
51149
0
LEFT NOT FITTED RIGHT NOT FITTED 0
NONE
NONE
15600
12
4.427000
51148
TRUE
1 0 8 72 0 0 0 0

15798

#HDR
-1
-1
#GR
µM
%T
2.38419e-05
0.0
2.000000
0.002000
12515
8
120.841
19.1822
#DATA
2.000000	 64.6724
2.084000	 64.934
2.168000	 65.2045
2.252000	 63.4769
2.336000	 64.1227
2.420000	 64.9472
2.504000	 65.3665
2.588000	 65.0823
2.672000	 65.0729
2.756000	 65.061
2.840000	 65.0006
2.924000	 64.9108
3.008000	 64.9895
3.092000	 64.959
3.176000	 65.0301
3.260000	 65.1668
3.344000	 64.9596
3.428000	 64.5517
3.512000	 64.9416
3.596000	 65.1609
3.680000	 65.1207
3.764000	 65.0459
3.848000	 64.9954
3.932000	 65.0914
4.016000	 65.0673
4.100000	 65.2069
4.184000	 65.1939
4.268000	 65.1221
4.352000	 65.1287
4.436000	 65.3075
4.520000	 65.2521
4.604000	 65.1727
4.688000	 65.2244
4.772000	 65.1836
4.856000	 65.116
4.940000	 65.2224
5.024000	 65.1829
5.108000	 65.2432
5.192000	 65.2705
5.276000	 65.2375
5.359999	 65.1539
5.444000	 65.1501
5.528000	 65.3209
5.612000	 65.2338
5.696000	 65.1704
5.780000	 64.9757
5.864000	 64.9333
5.948000	 65.1081
6.032000	 65.0424
6.116000	 64.8777
6.200000	 64.879
6.284000	 64.9266
6.368000	 64.8773
6.452000	 64.7848
6.536000	 64.881
6.620000	 65.0002
6.704000	 64.9276
6.788000	 64.9077
6.872000	 65.0462
6.956000	 65.0179
7.040000	 64.9568
7.124000	 65.0088
7.208000	 64.9065
7.292000	 64.9001
7.376000	 64.8706
7.460000	 65.0834
7.544000	 64.8848
7.628000	 64.9669
7.712000	 64.9664
7.796000	 64.9841
7.880000	 64.9363
7.964000	 64.9663
8.048000	 64.8185
8.132000	 64.9661
8.216000	 64.787
8.300000	 64.9922
8.384000	 64.8341
8.468000	 64.9306
8.552000	 64.7331
8.635999	 64.6648
8.719999	 64.7015
8.804000	 64.6819
8.888000	 64.7153
8.972000	 64.6506
9.056000	 65.0861
9.140000	 64.4779
9.224000	 64.7816
9.308000	 65.0466
9.391999	 64.6842
9.475999	 64.9319
9.560000	 64.8151
9.644000	 64.9595
9.728000	 64.4967
9.812000	 64.4151
9.896000	 64.7765
9.980000	 64.8445
10.064	64.6172
10.148	64.5824
10.232	64.6624
10.316	64.7951
10.4	64.7531
10.484	64.9441
10.568	64.9058
10.652	64.8945
10.736	64.6118
10.82	64.616
10.904	65.0031
10.988	64.4113
11.072	64.4067
11.156	64.7359
11.24	64.8162
11.324	64.7695
11.408	64.6692
11.492	64.7286
11.576	64.7201
11.66	64.3444
11.744	64.3149
11.828	64.3293
11.912	64.5087
11.996	64.8408
12.08	64.6539
12.164	64.5066
12.248	64.6107
12.332	64.4434
12.416	64.2192
12.5	64.2284
12.584	64.0625
12.668	64.2002
12.752	64.3409
12.836	64.2804
12.92	64.2841
13.004	64.0862
13.088	63.8748
13.172	63.925
13.256	64.0802
13.34	64.0283
13.424	63.9308
13.508	63.6242
13.592	63.4396
13.676	63.6946
13.76	63.9977
13.844	64.148
13.928	64.0684
14.012	63.8621
14.096	63.6611
14.18	63.3968
14.264	63.3282
14.348	63.5085
14.432	63.6135
14.516	63.6867
14.6	63.8014
14.684	63.7859
14.768	63.6483
14.852	63.4952
14.936	63.2913
15.02	62.9657
15.104	62.7188
15.188	62.8324
15.272	63.0662
15.356	63.0173
15.44	62.8371
15.524	62.8853
15.608	63.0893
15.692	63.2018
15.776	63.2435
15.86	63.2186
15.944	63.0666
16.028	62.9304
16.112	62.9056
16.196	62.9103
16.28	62.9154
16.364	62.9464
16.448	63.0578
16.532	63.1907
16.616	63.083
16.7	62.686
16.784	62.3661
16.868	62.3593
16.952	62.5098
17.036	62.6667
17.12	62.8597
17.204	63.0806
17.288	63.2093
17.372	63.1692
17.456	62.9961
17.54	62.7905
17.624	62.6641
17.708	62.6571
17.792	62.689
17.876	62.6509
17.96	62.5662
18.044	62.5911
18.128	62.8293
18.212	63.1509
18.296	63.2875
18.38	63.1378
18.464	62.863
18.548	62.6607
18.632	62.5418
18.716	62.413
18.8	62.2681
18.884	62.1696
18.968	62.0868
19.052	61.9003
19.136	61.5882
19.22	61.3181
19.304	61.3012
19.388	61.5709
19.472	61.9488
19.556	62.2
19.64	62.2121
19.724	62.0363
19.808	61.8001
19.892	61.5978
19.976	61.4581
20.06	61.3774
20.144	61.3502
20.228	61.3759
20.312	61.4581
20.396	61.6059
20.48	61.825
20.564	62.0941
20.648	62.3485
20.732	62.5077
20.816	62.5255
20.9	62.4072
20.984	62.1669
21.068	61.8014
21.152	61.3134
21.236	60.7627
21.32	60.2677
21.404	59.9494
21.488	59.8484
21.572	59.9085
21.656	60.0345
21.74	60.1575
21.824	60.2736
21.908	60.416
21.992	60.612
22.076	60.8677
22.16	61.1475
22.244	61.3859
22.328	61.5122
22.412	61.4944
22.496	61.3725
22.58	61.2502
22.664	61.2466
22.748	61.4326
22.832	61.7847
22.916	62.1919
23	62.4739
23.084	62.482
23.168	62.1116
23.252	61.3439
23.336	60.2773
23.42	59.0707
23.504	57.9223
23.588	57.0054
23.672	56.4069
23.756	56.097
23.84	55.9773
23.924	55.8861
24.008	55.6833
24.092	55.314
24.176	54.7936
24.26	54.2151
24.344	53.7383
24.428	53.5682
24.512	54.0093
24.596	55.3
24.68	57.5721
24.764	60.7899
24.848	64.6961
24.932	68.7816
25.016	72.4221
25.1	75.123
25.184	76.5075
25.268	76.4434
25.352	75.0847
25.436	72.5872
25.52	69.101
25.604	64.8521
25.688	60.2692
25.772	55.9333
25.856	52.3785
25.94	49.984
26.024	48.7719
26.108	48.32
26.192	47.7016
26.276	45.8694
26.36	41.9997
26.444	36.1172
26.528	29.2273
26.612	23.1158
26.696	19.6163
26.78	19.7809
26.864	23.6282
26.948	30.4985
27.028	39.3078

File: C-4040-8_t77_cm-1.asc
PE IR       SPECTRUM    SPECTRUM    ASCII       PEDS        1.60
  -1
C-1DEF~1.ASC
17/03/27
20:48:57.00
17/03/27
20:48:57.00
tln
$C-4040-8_t0077$<tbV0>[-13.0,2.6,8.0,0.0,27,1,0]
370
64

2002,4.07
MIRTGS : RIGHTBACK : INTERNAL 2
MIR : ON : INTERNAL 2
OPTKBR

0.200000
8
8.000000
FILLER
RATIO
SPECTRUM
UNLOCKED 256

DOUBLE
64
COMBINED
1
0
0

1.000000
RATIO

1
0
TRUE
51149
0
LEFT NOT FITTED RIGHT NOT FITTED 0
NONE
NONE
15600
12
4.427000
51148
TRUE
1 0 8 72 0 0 0 0

15798

#HDR
-1
-1
#GR
CM-1
%T
2.38419e-05
0.0
5000
-1.000000
4631
8
122.472
19.1855
#DATA
5000	64.6724
4984	64.7055
4968	64.7815
4952	64.8335
4936	64.0169
4920	64.5691
4904	64.8054
4888	64.0443
4872	65.0511
4856	64.7245
4840	64.3621
4824	64.8379
4808	65.0773
4792	64.6748
4776	64.9176
4760	64.8215
4744	65.2775
4728	65.2825
4712	65.5655
4696	64.7325
4680	65.5992
4664	65.1833
4648	65.1588
4632	65.0495
4616	65.0984
4600	64.9704
4584	64.5818
4568	64.8002
4552	64.4194
4536	64.8886
4520	64.276
4504	63.9081
4488	64.0155
4472	63.7043
4456	63.505
4440	63.453
4424	63.5413
4408	61.8305
4392	58.4086
4376	86.3739
4360	63.4709
4344	64.2104
4328	63.9968
4312	64.1573
4296	64.1558
4280	64.1297
4264	64.2427
4248	64.0624
4232	64.6819
4216	64.4301
4200	64.7925
4184	64.9384
4168	64.8249
4152	64.6938
4136	64.9147
4120	65.1422
4104	64.9571
4088	65.0205
4072	65.1678
4056	65.0714
4040	65.0297
4024	65.0524
4008	64.9832
3992	65.3738
3976	65.2592
3960	64.8978
3944	64.9365
3928	65.004
3912	65.2856
3896	64.9267
3880	64.9232
3864	65.0826
3848	64.7757
3832	64.5782
3816	64.8093
3800	64.8326
3784	65.0003
3768	64.7684
3752	64.9847
3736	65.0549
3720	65.1845
3704	64.9679
3688	65.1052
3672	64.8548
3656	65.0066
3640	65.1523
3624	65.1297
3608	65.0207
3592	65.1602
3576	65.0047
3560	65.1847
3544	64.9872
3528	65.1362
3512	64.9987
3496	65.064
3480	65.1244
3464	64.8182
3448	65.0857
3432	64.7978
3416	65.0823
3400	64.7875
3384	65.1886
3368	65.0762
3352	64.7727
3336	65
3320	65.0486
3304	65.061
3288	64.9534
3272	64.9927
3256	65.0103
3240	64.8579
3224	64.9457
3208	65.0286
3192	65.0769
3176	64.9365
3160	64.9088
3144	65.2179
3128	65.1646
3112	64.6266
3096	65.1744
3080	65.0125
3064	65.0831
3048	65.041
3032	65.2463
3016	65.0244
3000	64.9258
2984	64.9228
2968	64.7312
2952	64.9202
2936	64.9626
2920	64.5115
2904	64.9661
2888	64.9226
2872	64.8626
2856	64.886
2840	64.8936
2824	65.0492
2808	65.1731
2792	65.0945
2776	65.1384
2760	65.1422
2744	65.2353
2728	65.1579
2712	65.0895
2696	65.1388
2680	65.1403
2664	65.08
2648	65.0248
2632	65.0115
2616	65.0677
2600	65.0105
2584	65.142
2568	64.9807
2552	65.0093
2536	65.0658
2520	65.1772
2504	65.2693
2488	65.0921
2472	65.1699
2456	65.2129
2440	65.2302
2424	64.7037
2408	65.2709
2392	65.1809
2376	65.2937
2360	65.106
2344	65.0912
2328	65.1567
2312	65.2575
2296	65.129
2280	65.3083
2264	65.2491
2248	65.3208
2232	65.1896
2216	65.1966
2200	65.1162
2184	65.1404
2168	65.1589
2152	65.1694
2136	65.2272
2120	65.1726
2104	65.1692
2088	65.2095
2072	65.3354
2056	65.2449
2040	65.129
2024	65.2182
2008	65.1339
1992	65.1673
1976	65.1712
1960	65.2114
1944	65.1612
1928	65.2191
1912	65.1654
1896	65.2414
1880	65.1961
1864	65.1383
1848	65.2355
1832	65.1815
1816	65.3902
1800	65.1171
1784	65.2164
1768	65.216
1752	65.0588
1736	65.1302
1720	65.1197
1704	64.961
1688	65.1428
1672	65.1216
1656	65.0721
1640	64.9254
1624	64.9363
1608	64.9007
1592	64.9304
1576	64.8593
1560	64.8303
1544	64.8066
1528	64.8865
1512	64.9562
1496	64.8508
1480	64.9429
1464	64.9639
1448	64.7977
1432	65.1288
1416	64.9374
1400	64.9696
1384	64.8795
1368	64.8653
1352	64.873
1336	65.0694
1320	64.9507
1304	64.9589
1288	64.9025
1272	64.9444
1256	64.9689
1240	64.8322
1224	64.7978
1208	64.9877
1192	64.8379
1176	64.8522
1160	64.6347
1144	64.6166
1128	64.7829
1112	64.7349
1096	64.6266
1080	65.1524
1064	64.6932
1048	64.6993
1032	64.6272
1016	64.4897
1000	64.7245
984	 64.5827
968	 64.7861
952	 64.8412
936	 64.6985
920	 64.8975
904	 64.376
888	 64.7736
872	 64.6521
856	 64.2954
840	 64.4699
824	 64.5288
808	 64.2809
792	 64.074
776	 64.2958
760	 63.8968
744	 63.8902
728	 63.9248
712	 63.7882
696	 63.5467
680	 63.7562
664	 62.8134
648	 62.8476
632	 63.245
616	 62.9116
600	 62.8593
584	 62.8683
568	 62.6809
552	 62.7843
536	 62.508
520	 61.2988
504	 61.713
488	 61.8607
472	 61.0891
456	 60.4608
440	 61.3687
424	 57.0336
408	 53.9873
392	 69.5513
376	 24.1208
370	 39.3078

File: C-4040-8_t78.asc
PE IR       SPECTRUM    SPECTRUM    ASCII       PEDS        1.60
  -1
C-C14A~1.ASC
17/03/27
20:54:11.00
17/03/27
20:54:37.00
tln
$C-4040-8_t0078$<tbV0>[13.0,5.2,8.0,0.0,27,1,0]
27.028
64

2002,4.07
MIRTGS : RIGHTBACK : INTERNAL 2
MIR : ON : INTERNAL 2
OPTKBR

0.200000
8
8.000000
FILLER
RATIO
SPECTRUM
UNLOCKED 256

DOUBLE
64
COMBINED
1
0
0

0.002000
RATIO

1
0
TRUE
51149
0
LEFT NOT FITTED RIGHT NOT FITTED 0
NONE
NONE
15600
12
4.427000
51148
TRUE
1 0 8 72 0 0 0 0

15798

#HDR
-1
-1
#GR
µM
%T
2.38419e-05
0.0
2.000000
0.002000
12515
8
92.0546
44.4094
#DATA
2.000000	 65.2309
2.084000	 64.6542
2.168000	 65.1184
2.252000	 64.6086
2.336000	 64.8504
2.420000	 65.2531
2.504000	 65.34
2.588000	 65.1637
2.672000	 65.3526
2.756000	 65.2309
2.840000	 65.1612
2.924000	 65.284
3.008000	 65.0644
3.092000	 65.2561
3.176000	 65.2166
3.260000	 65.37
3.344000	 65.0848
3.428000	 64.9543
3.512000	 65.139
3.596000	 65.2992
3.680000	 65.32
3.764000	 65.4059
3.848000	 65.2913
3.932000	 65.3442
4.016000	 65.4206
4.100000	 65.375
4.184000	 65.3945
4.268000	 65.3455
4.352000	 65.241
4.436000	 65.4037
4.520000	 65.2838
4.604000	 65.357
4.688000	 65.4121
4.772000	 65.4295
4.856000	 65.3734
4.940000	 65.3844
5.024000	 65.4426
5.108000	 65.3961
5.192000	 65.3386
5.276000	 65.4162
5.359999	 65.3879
5.444000	 65.2907
5.528000	 65.386
5.612000	 65.4893
5.696000	 65.5316
5.780000	 65.1538
5.864000	 65.0803
5.948000	 65.302
6.032000	 65.3043
6.116000	 65.3227
6.200000	 65.1521
6.284000	 65.0197
6.368000	 65.1791
6.452000	 65.0634
6.536000	 65.1089
6.620000	 64.8925
6.704000	 65.2737
6.788000	 65.2904
6.872000	 65.3141
6.956000	 65.1966
7.040000	 65.2359
7.124000	 65.1407
7.208000	 65.1078
7.292000	 65.1186
7.376000	 65.0595
7.460000	 65.1209
7.544000	 65.0613
7.628000	 65.009
7.712000	 65.0515
7.796000	 65.1679
7.880000	 65.1903
7.964000	 65.0648
8.048000	 64.9102
8.132000	 64.928
8.216000	 65.0444
8.300000	 65.1155
8.384000	 65.0659
8.468000	 64.9016
8.552000	 64.8152
8.635999	 64.7976
8.719999	 64.7238
8.804000	 65.0056
8.888000	 64.8104
8.972000	 64.7836
9.056000	 64.8177
9.140000	 64.8104
9.224000	 64.8039
9.308000	 64.9224
9.391999	 64.8006
9.475999	 64.7361
9.560000	 64.7871
9.644000	 64.8295
9.728000	 64.7002
9.812000	 64.6923
9.896000	 64.7713
9.980000	 64.6686
10.064	64.8348
10.148	64.6705
10.232	64.5962
10.316	64.4363
10.4	64.4924
10.484	65.0896
10.568	65.1444
10.652	64.9075
10.736	64.0676
10.82	64.3321
10.904	65.0777
10.988	64.8251
11.072	64.4884
11.156	64.3944
11.24	64.7405
11.324	64.8132
11.408	64.7353
11.492	64.5482
11.576	64.4349
11.66	64.4904
11.744	64.4529
11.828	64.4683
11.912	64.5302
11.996	64.3625
12.08	64.138
12.164	64.2619
12.248	64.4357
12.332	64.5392
12.416	64.4154
12.5	64.307
12.584	63.9159
12.668	63.8667
12.752	64.1613
12.836	64.2556
12.92	64.0066
13.004	63.9058
13.088	63.9643
13.172	64.0028
13.256	64.0556
13.34	64.3895
13.424	64.7073
13.508	64.2647
13.592	63.4356
13.676	63.0614
13.76	63.1857
13.844	63.5395
13.928	63.6288
14.012	63.4934
14.096	63.276
14.18	63.1542
14.264	63.2923
14.348	63.3494
14.432	63.2266
14.516	63.104
14.6	63.1233
14.684	63.3182
14.768	63.3643
14.852	63.22
14.936	63.1667
15.02	63.0999
15.104	62.8701
15.188	62.7069
15.272	62.7595
15.356	62.8753
15.44	62.8922
15.524	62.7234
15.608	62.4065
15.692	62.1626
15.776	62.1077
15.86	62.1571
15.944	62.2319
16.028	62.2544
16.112	62.2114
16.196	62.1988
16.28	62.2023
16.364	62.1948
16.448	62.3367
16.532	62.6151
16.616	62.7308
16.7	62.5849
16.784	62.4051
16.868	62.3688
16.952	62.3964
17.036	62.347
17.12	62.2249
17.204	62.1121
17.288	62.0168
17.372	61.9225
17.456	61.8767
17.54	61.9044
17.624	61.949
17.708	61.9542
17.792	61.9304
17.876	61.9264
17.96	61.9449
18.044	61.9285
18.128	61.8362
18.212	61.7209
18.296	61.6862
18.38	61.7607
18.464	61.8623
18.548	61.8657
18.632	61.6988
18.716	61.4271
18.8	61.2377
18.884	61.2667
18.968	61.4476
19.052	61.5856
19.136	61.5989
19.22	61.5901
19.304	61.6491
19.388	61.7038
19.472	61.633
19.556	61.4332
19.64	61.2189
19.724	61.0896
19.808	61.0425
19.892	61.0004
19.976	60.8989
20.06	60.7427
20.144	60.5969
20.228	60.5268
20.312	60.5312
20.396	60.5347
20.48	60.4629
20.564	60.3336
20.648	60.2501
20.732	60.3036
20.816	60.4763
20.9	60.6402
20.984	60.6674
21.068	60.5331
21.152	60.3225
21.236	60.1505
21.32	60.0799
21.404	60.1025
21.488	60.1784
21.572	60.2847
21.656	60.4469
21.74	60.7036
21.824	61.0326
21.908	61.3086
21.992	61.3664
22.076	61.1114
22.16	60.5792
22.244	59.9226
22.328	59.3323
22.412	58.9595
22.496	58.8705
22.58	59.0304
22.664	59.3204
22.748	59.5576
22.832	59.5724
22.916	59.28
23	58.7346
23.084	58.0833
23.168	57.478
23.252	56.9562
23.336	56.4363
23.42	55.861
23.504	55.2782
23.588	54.8847
23.672	54.9206
23.756	55.5084
23.84	56.5456
23.924	57.7081
24.008	58.6198
24.092	59.0487
24.176	59.0336
24.26	58.8269
24.344	58.7698
24.428	59.0757
24.512	59.7183
24.596	60.4313
24.68	60.7594
24.764	60.2255
24.848	58.5368
24.932	55.7446
25.016	52.3016
25.1	48.8893
25.184	46.2179
25.268	44.7201
25.352	44.4489
25.436	45.0987
25.52	46.1856
25.604	47.3065
25.688	48.2782
25.772	49.1627
25.856	50.1466
25.94	51.4567
26.024	53.238
26.108	55.4334
26.192	57.821
26.276	60.0231
26.36	61.5406
26.444	62.0084
26.528	61.3
26.612	59.5908
26.696	57.1354
26.78	54.0498
26.864	50.6999
26.948	47.6761
27.028	45.7551

File: C-4040-8_t78_cm-1.asc
PE IR       SPECTRUM    SPECTRUM    ASCII       PEDS        1.60
  -1
C-1D65~1.ASC
17/03/27
20:54:11.00
17/03/27
20:54:11.00
tln
$C-4040-8_t0078$<tbV0>[13.0,5.2,8.0,0.0,27,1,0]
370
64

2002,4.07
MIRTGS : RIGHTBACK : INTERNAL 2
MIR : ON : INTERNAL 2
OPTKBR

0.200000
8
8.000000
FILLER
RATIO
SPECTRUM
UNLOCKED 256

DOUBLE
64
COMBINED
1
0
0

1.000000
RATIO

1
0
TRUE
51149
0
LEFT NOT FITTED RIGHT NOT FITTED 0
NONE
NONE
15600
12
4.427000
51148
TRUE
1 0 8 72 0 0 0 0

15798

#HDR
-1
-1
#GR
CM-1
%T
2.38419e-05
0.0
5000
-1.000000
4631
8
93.5179
44.4249
#DATA
5000	65.2309
4984	65.236
4968	64.6575
4952	65.6455
4936	64.538
4920	64.5654
4904	65.0505
4888	64.7618
4872	64.9692
4856	64.9518
4840	64.7575
4824	64.7707
4808	64.6299
4792	64.5591
4776	65.0011
4760	64.8864
4744	65.3936
4728	65.4747
4712	65.3965
4696	64.5845
4680	65.3617
4664	65.3618
4648	65.3158
4632	65.5624
4616	65.0904
4600	64.9151
4584	65.2781
4568	64.7527
4552	65.2508
4536	65.094
4520	63.9142
4504	64.4552
4488	64.3932
4472	64.3849
4456	64.421
4440	64.6045
4424	64.1508
4408	64.0192
4392	61.7794
4376	78.6756
4360	64.6921
4344	64.9646
4328	64.9831
4312	64.7011
4296	64.6155
4280	64.8751
4264	64.8524
4248	64.9904
4232	65.0966
4216	64.7811
4200	65.1513
4184	65.6406
4168	66.0071
4152	65.2998
4136	65.2777
4120	65.1499
4104	65.0192
4088	64.8248
4072	65.3338
4056	65.0819
4040	65.136
4024	65.1979
4008	65.1828
3992	65.2942
3976	65.4715
3960	65.3052
3944	65.2009
3928	65.3736
3912	65.3596
3896	65.0971
3880	65.0572
3864	65.1644
3848	64.9758
3832	64.8836
3816	65.2416
3800	65.0667
3784	65.1496
3768	65.2048
3752	65.3165
3736	65.1422
3720	65.1463
3704	65.1757
3688	65.0511
3672	65.27
3656	65.1286
3640	65.4543
3624	65.3221
3608	65.2951
3592	65.5182
3576	65.2688
3560	65.1889
3544	65.0823
3528	65.3009
3512	65.3166
3496	65.181
3480	65.1372
3464	65.5654
3448	65.369
3432	65.2739
3416	65.3551
3400	65.1103
3384	65.41
3368	65.2166
3352	65.1206
3336	65.4086
3320	65.1118
3304	65.1816
3288	65.3251
3272	65.1308
3256	65.2969
3240	65.1718
3224	65.2873
3208	65.1025
3192	65.2495
3176	65.2282
3160	65.1677
3144	65.4002
3128	65.1491
3112	65.2688
3096	65.3031
3080	65.1624
3064	65.3371
3048	65.1691
3032	65.347
3016	64.9848
3000	65.2684
2984	65.0788
2968	65.1003
2952	65.1005
2936	65.1783
2920	64.9412
2904	65.1168
2888	65.1059
2872	65.0204
2856	65.0694
2840	65.262
2824	65.2616
2808	65.3865
2792	65.2907
2776	65.3774
2760	65.3957
2744	65.4533
2728	65.2748
2712	65.3949
2696	65.3273
2680	65.2889
2664	65.3925
2648	65.3159
2632	65.457
2616	65.3436
2600	65.2893
2584	65.3388
2568	65.3115
2552	65.3683
2536	65.3307
2520	65.4808
2504	65.1579
2488	65.4136
2472	65.4071
2456	65.3296
2440	65.3657
2424	64.4401
2408	65.4589
2392	65.3684
2376	65.5299
2360	65.3522
2344	65.3509
2328	65.4627
2312	65.3872
2296	65.2776
2280	65.4186
2264	65.3673
2248	65.3202
2232	65.3631
2216	65.2897
2200	65.3523
2184	65.3259
2168	65.2382
2152	65.0612
2136	65.4088
2120	65.3542
2104	65.3342
2088	65.5311
2072	65.4065
2056	65.4544
2040	65.3968
2024	65.3899
2008	65.3868
1992	65.4404
1976	65.3432
1960	65.3668
1944	65.3633
1928	65.3809
1912	65.5273
1896	65.4116
1880	65.3055
1864	65.4012
1848	65.3375
1832	65.3477
1816	65.516
1800	65.3233
1784	65.5061
1768	65.2608
1752	65.4191
1736	65.0788
1720	65.4918
1704	65.1218
1688	65.4639
1672	65.2428
1656	65.2719
1640	65.4663
1624	65.2359
1608	65.1963
1592	65.0142
1576	65.3168
1560	65.2636
1544	65.1228
1528	65.1293
1512	64.8879
1496	65.141
1480	65.2562
1464	65.1536
1448	64.9703
1432	65.3644
1416	65.2233
1400	65.1477
1384	65.2079
1368	65.0474
1352	65.0604
1336	65.1106
1320	65.1471
1304	64.9269
1288	65.1176
1272	65.2001
1256	65.0653
1240	64.9001
1224	64.9973
1208	65.1051
1192	65.0857
1176	64.8216
1160	64.804
1144	64.7856
1128	64.8404
1112	64.8293
1096	64.8264
1080	64.9374
1064	64.79
1048	64.7173
1032	64.6461
1016	64.6856
1000	64.6654
984	 64.6081
968	 64.368
952	 65.0282
936	 64.5559
920	 64.8835
904	 64.5176
888	 64.7976
872	 64.621
856	 64.4801
840	 64.5243
824	 64.2121
808	 64.4753
792	 63.8164
776	 64.1112
760	 64.0031
744	 64.6928
728	 63.1079
712	 63.4158
696	 63.3292
680	 63.358
664	 63.0022
648	 62.8976
632	 62.1286
616	 62.2042
600	 62.6631
584	 62.2199
568	 61.9416
552	 61.8531
536	 61.6226
520	 61.5937
504	 61.0301
488	 60.4467
472	 60.2417
456	 61.3505
440	 59.5144
424	 54.8924
408	 59.6997
392	 46.0532
376	 59.9808
370	 45.7551