Folder: Masteroppgave/Bakgrunnsmateriale/MATLAB/FTIR/ftir_data/subBb/Mapping_36 (part 9)

File: C-4040-8_t17_cm-1.asc
PE IR       SPECTRUM    SPECTRUM    ASCII       PEDS        1.60
  -1
C-1AEF~1.ASC
17/05/02
12:17:20.00
17/05/02
12:17:20.00
tln
$C-4040-8_t0017$<tbV0>[-7.5,-3.0,8.0,0.0,22,1,0]
370
64

2002,4.07
MIRTGS : RIGHTBACK : INTERNAL 2
MIR : ON : INTERNAL 2
OPTKBR

0.200000
8
8.000000
FILLER
RATIO
SPECTRUM
UNLOCKED 256

DOUBLE
64
COMBINED
1
0
0

1.000000
RATIO

1
0
TRUE
51149
0
LEFT NOT FITTED RIGHT NOT FITTED 0
NONE
NONE
15600
12
4.427000
51148
TRUE
1 0 8 72 0 0 0 0

15798

#HDR
-1
-1
#GR
CM-1
%T
2.38419e-05
0.0
7800
-1.000000
7431
8
85.7463
46.2511
#DATA
7800	73.4895
7775	61.2606
7750	67.0016
7725	66.2298
7700	67.9496
7675	68.5205
7650	73.1927
7625	69.0011
7600	67.3553
7575	67.5665
7550	65.667
7525	69.2988
7500	65.8574
7475	60.9947
7450	67.6577
7425	66.8239
7400	65.7148
7375	67.0209
7350	68.6799
7325	67.0089
7300	65.2266
7275	65.0624
7250	64.3998
7225	64.9733
7200	62.7636
7175	68.3143
7150	62.8448
7125	66.3456
7100	62.6665
7075	64.1381
7050	62.384
7025	62.8369
7000	64.1031
6975	64.2625
6950	63.1112
6925	64.6746
6900	63.996
6875	65.3032
6850	63.7761
6825	66.0208
6800	64.5358
6775	61.2157
6750	62.6836
6725	63.8714
6700	63.7862
6675	62.3462
6650	63.91
6625	64.224
6600	65.1536
6575	62.8214
6550	65.1716
6525	65.6
6500	65.3898
6475	65.5305
6450	64.4124
6425	63.4104
6400	66.5559
6375	65.4697
6350	66.2598
6325	65.2323
6300	65.1846
6275	64.2543
6250	64.6956
6225	64.5317
6200	65.2884
6175	65.1057
6150	65.2796
6125	66.2494
6100	65.2045
6075	65.0911
6050	64.8958
6025	65.0245
6000	65.1665
5975	65.2897
5950	64.9073
5925	65.1093
5900	65.0838
5875	65.0475
5850	65.2366
5825	64.4956
5800	64.7418
5775	65.0665
5750	64.8022
5725	65.3041
5700	64.88
5675	64.9163
5650	65.0013
5625	65.5345
5600	64.7835
5575	64.6685
5550	65.0338
5525	65.6346
5500	64.5555
5475	64.6098
5450	65.4413
5425	65.276
5400	64.9512
5375	64.787
5350	63.7969
5325	62.9619
5300	65.4259
5275	65.931
5250	66.8477
5225	65.0071
5200	64.8883
5175	65.1946
5150	64.6987
5125	64.9117
5100	64.7404
5075	64.9493
5050	65.1721
5025	65.0648
5000	65.4186
4975	65.0251
4950	64.9521
4925	64.6941
4900	65.0794
4875	65.2111
4850	64.6875
4825	65.1285
4800	64.8308
4775	65.3826
4750	64.7555
4725	65.3165
4700	65.4757
4675	64.9841
4650	65.0004
4625	65.2187
4600	65.1064
4575	65.0465
4550	64.7188
4525	64.6697
4500	64.7836
4475	64.5758
4450	64.709
4425	64.2043
4400	62.1395
4375	63.6584
4350	64.6482
4325	64.5798
4300	64.7839
4275	64.8764
4250	64.7758
4225	64.9883
4200	64.7354
4175	64.898
4150	64.6636
4125	65.0305
4100	65.1645
4075	65.0724
4050	65.2686
4025	65.5179
4000	65.2273
3975	65.4392
3950	65.0676
3925	65.1222
3900	65.1244
3875	65.2291
3850	65.3062
3825	65.324
3800	64.8953
3775	65.2173
3750	65.2982
3725	65.0725
3700	65.2226
3675	65.182
3650	65.2661
3625	65.2902
3600	65.4092
3575	65.3495
3550	65.4112
3525	65.1408
3500	64.8958
3475	65.2698
3450	65.1427
3425	65.3535
3400	65.2227
3375	65.1417
3350	65.2778
3325	65.1823
3300	65.0926
3275	65.2047
3250	64.8892
3225	64.9778
3200	65.1282
3175	65.101
3150	65.2271
3125	65.1282
3100	65.1266
3075	65.2131
3050	65.3218
3025	65.2722
3000	65.165
2975	64.9592
2950	65.0097
2925	64.8903
2900	65.1454
2875	65.1326
2850	64.8614
2825	65.3016
2800	65.2517
2775	65.2406
2750	65.2538
2725	65.3071
2700	65.3095
2675	65.1976
2650	65.2005
2625	65.3375
2600	65.3837
2575	65.238
2550	65.3272
2525	65.2968
2500	65.239
2475	65.3647
2450	65.2532
2425	65.312
2400	65.3416
2375	65.4728
2350	65.3761
2325	65.1906
2300	65.2426
2275	65.3297
2250	65.2611
2225	65.275
2200	65.3639
2175	65.2326
2150	65.4674
2125	65.235
2100	65.2792
2075	65.3442
2050	65.2725
2025	65.214
2000	65.2951
1975	65.2524
1950	65.2609
1925	65.3013
1900	65.3392
1875	65.2449
1850	65.3412
1825	65.2612
1800	65.2114
1775	65.3317
1750	65.2271
1725	65.1492
1700	65.152
1675	65.1736
1650	65.2056
1625	65.2319
1600	65.1599
1575	65.1565
1550	64.9748
1525	65.1373
1500	65.1632
1475	65.102
1450	64.9531
1425	65.0466
1400	65.1055
1375	65.0669
1350	64.9906
1325	65.002
1300	64.9992
1275	64.9605
1250	64.8179
1225	64.9813
1200	64.978
1175	65.045
1150	64.7902
1125	64.7648
1100	64.9144
1075	64.5756
1050	64.761
1025	64.7004
1000	64.6828
975	 64.6825
950	 64.5173
925	 64.2791
900	 64.4037
875	 64.7252
850	 64.0313
825	 64.0118
800	 63.8917
775	 64.0754
750	 63.7198
725	 63.7001
700	 63.2801
675	 63.0058
650	 62.8871
625	 63.105
600	 62.2868
575	 62.2032
550	 61.9962
525	 61.151
500	 60.8911
475	 59.2956
450	 57.8127
425	 56.6307
400	 54.1764
375	 60.7175
370	 60.1023

File: C-4040-8_t18.asc
PE IR       SPECTRUM    SPECTRUM    ASCII       PEDS        1.60
  -1
C-C92A~1.ASC
17/05/02
12:22:01.00
17/05/02
12:22:27.00
tln
$C-4040-8_t0018$<tbV0>[-12.5,-3.0,8.0,0.0,22,1,0]
27.028
64

2002,4.07
MIRTGS : RIGHTBACK : INTERNAL 2
MIR : ON : INTERNAL 2
OPTKBR

0.200000
8
8.000000
FILLER
RATIO
SPECTRUM
UNLOCKED 256

DOUBLE
64
COMBINED
1
0
0

0.002000
RATIO

1
0
TRUE
51149
0
LEFT NOT FITTED RIGHT NOT FITTED 0
NONE
NONE
15600
12
4.427000
51148
TRUE
1 0 8 72 0 0 0 0

15798

#HDR
-1
-1
#GR
µM
%T
2.38419e-05
0.0
1.282000
0.002000
12874
8
106.577
28.278
#DATA
1.282000	 62.1854
1.368000	 66.1595
1.454000	 65.5927
1.540000	 65.9111
1.626000	 65.6216
1.712000	 65.2624
1.798000	 65.2206
1.884000	 66.505
1.970000	 64.9142
2.056000	 64.8609
2.142000	 65.2385
2.228000	 64.4296
2.314000	 64.2372
2.400000	 65.1497
2.486000	 65.1472
2.572000	 65.1963
2.658000	 65.0488
2.744000	 65.2709
2.830000	 65.1946
2.916000	 65.2818
3.002000	 65.052
3.088000	 65.2918
3.174000	 65.1761
3.260000	 65.3115
3.346000	 65.144
3.432000	 64.8071
3.518000	 65.0244
3.604000	 65.238
3.690000	 65.1897
3.776000	 65.2035
3.862000	 65.1256
3.948000	 65.3164
4.034000	 65.3336
4.120000	 65.3161
4.206000	 65.2873
4.292000	 65.2092
4.378000	 65.1795
4.464000	 65.3303
4.550000	 65.1797
4.636000	 65.3159
4.722000	 65.1984
4.808000	 65.267
4.894000	 65.342
4.980000	 65.3204
5.066000	 65.3201
5.152000	 65.2564
5.238000	 65.3232
5.324000	 65.2987
5.410000	 65.3533
5.496000	 65.2172
5.582000	 65.3338
5.668000	 65.2504
5.754000	 65.0259
5.840000	 65.2058
5.926000	 65.221
6.012000	 65.1262
6.098000	 65.1174
6.184000	 65.2366
6.270000	 65.0715
6.356000	 65.1636
6.442000	 65.115
6.528000	 65.0855
6.614000	 65.1438
6.700000	 65.1304
6.786000	 65.1162
6.872000	 65.0048
6.958000	 65.0975
7.044000	 65.0654
7.130000	 65.0763
7.216000	 65.0722
7.302000	 64.934
7.388000	 65.0083
7.474000	 65.0577
7.560000	 65.0147
7.646000	 65.0021
7.732000	 65.0314
7.818000	 65.0963
7.904000	 64.9968
7.990000	 64.9905
8.076000	 64.9531
8.161999	 65.0735
8.248000	 65.0589
8.334000	 65.0002
8.420000	 65.1242
8.506000	 65.0334
8.592000	 65.0653
8.678000	 64.8634
8.763999	 64.8148
8.850000	 64.8149
8.936000	 64.7318
9.022000	 64.7842
9.108000	 64.7041
9.193999	 64.8934
9.280000	 64.8473
9.366000	 64.805
9.452000	 64.8348
9.538000	 64.8532
9.624000	 64.8803
9.710000	 64.7796
9.795999	 64.7959
9.882000	 64.8194
9.968000	 64.7887
10.054	64.8685
10.14	64.7799
10.226	64.5923
10.312	65.0823
10.398	64.7498
10.484	64.6396
10.57	64.7424
10.656	64.8025
10.742	64.5243
10.828	64.5021
10.914	64.3777
11	64.6714
11.086	64.8062
11.172	64.2128
11.258	64.0013
11.344	64.0902
11.43	64.4677
11.516	64.6748
11.602	64.6135
11.688	64.1731
11.774	64.3618
11.86	64.4738
11.946	64.2258
12.032	64.1865
12.118	64.4126
12.204	64.4292
12.29	64.4588
12.376	64.1029
12.462	64.2128
12.548	64.4069
12.634	64.6369
12.72	64.7554
12.806	64.6326
12.892	64.3788
12.978	64.1155
13.064	64.0316
13.15	63.9582
13.236	63.9319
13.322	64.006
13.408	64.1023
13.494	64.224
13.58	64.0638
13.666	63.8111
13.752	63.7953
13.838	63.7802
13.924	63.7531
14.01	63.7668
14.096	63.7089
14.182	63.6292
14.268	63.4314
14.354	63.4447
14.44	63.7193
14.526	63.763
14.612	63.5011
14.698	63.3401
14.784	63.4218
14.87	63.5467
14.956	63.6327
15.042	63.6388
15.128	63.4955
15.214	63.3749
15.3	63.3969
15.386	63.467
15.472	63.5049
15.558	63.4609
15.644	63.3451
15.73	63.2083
15.816	63.1534
15.902	63.3084
15.988	63.5131
16.074	63.434
16.16	63.1317
16.246	62.9943
16.332	63.1076
16.418	63.2065
16.504	63.1224
16.59	62.9243
16.676	62.7914
16.762	62.8256
16.848	62.9414
16.934	62.9146
17.02	62.6381
17.106	62.3162
17.192	62.2112
17.278	62.3172
17.364	62.4415
17.45	62.4898
17.536	62.5244
17.622	62.5654
17.708	62.5304
17.794	62.3824
17.88	62.2086
17.966	62.1343
18.052	62.2088
18.138	62.3635
18.224	62.4806
18.31	62.5185
18.396	62.5317
18.482	62.5425
18.568	62.4817
18.654	62.3167
18.74	62.1512
18.826	62.1024
18.912	62.1331
18.998	62.0887
19.084	61.8961
19.17	61.6536
19.256	61.506
19.342	61.4985
19.428	61.5918
19.514	61.7348
19.6	61.8592
19.686	61.8728
19.772	61.7416
19.858	61.5379
19.944	61.3892
20.03	61.3839
20.116	61.5076
20.202	61.6569
20.288	61.723
20.374	61.6744
20.46	61.548
20.546	61.3799
20.632	61.1683
20.718	60.912
20.804	60.6696
20.89	60.5386
20.976	60.5656
21.062	60.6787
21.148	60.7376
21.234	60.645
21.32	60.4134
21.406	60.1318
21.492	59.8996
21.578	59.7694
21.664	59.7575
21.75	59.8623
21.836	60.0685
21.922	60.3345
22.008	60.5768
22.094	60.6921
22.18	60.6128
22.266	60.3516
22.352	59.9957
22.438	59.6506
22.524	59.3696
22.61	59.1293
22.696	58.8469
22.782	58.4291
22.868	57.8372
22.954	57.1351
23.04	56.4666
23.126	56.024
23.212	55.9263
23.298	56.1674
23.384	56.5792
23.47	56.9115
23.556	56.9274
23.642	56.522
23.728	55.7366
23.814	54.7363
23.9	53.7142
23.986	52.84
24.072	52.2468
24.158	52.0398
24.244	52.3141
24.33	53.1474
24.416	54.5411
24.502	56.3842
24.588	58.4405
24.674	60.4384
24.76	62.151
24.846	63.4544
24.932	64.3401
25.018	64.8877
25.104	65.1818
25.19	65.2644
25.276	65.1176
25.362	64.6947
25.448	63.9516
25.534	62.8958
25.62	61.5883
25.706	60.0724
25.792	58.3803
25.878	56.5789
25.964	54.8315
26.05	53.3721
26.136	52.3698
26.222	51.8063
26.308	51.3986
26.394	50.6876
26.48	49.2421
26.566	46.7955
26.652	43.3835
26.738	39.3683
26.824	35.2961
26.91	31.7069
26.996	28.921
27.028	28.278

File: C-4040-8_t18_cm-1.asc
PE IR       SPECTRUM    SPECTRUM    ASCII       PEDS        1.60
  -1
C-1A65~1.ASC
17/05/02
12:22:01.00
17/05/02
12:22:01.00
tln
$C-4040-8_t0018$<tbV0>[-12.5,-3.0,8.0,0.0,22,1,0]
370
64

2002,4.07
MIRTGS : RIGHTBACK : INTERNAL 2
MIR : ON : INTERNAL 2
OPTKBR

0.200000
8
8.000000
FILLER
RATIO
SPECTRUM
UNLOCKED 256

DOUBLE
64
COMBINED
1
0
0

1.000000
RATIO

1
0
TRUE
51149
0
LEFT NOT FITTED RIGHT NOT FITTED 0
NONE
NONE
15600
12
4.427000
51148
TRUE
1 0 8 72 0 0 0 0

15798

#HDR
-1
-1
#GR
CM-1
%T
2.38419e-05
0.0
7800
-1.000000
7431
8
108.584
28.278
#DATA
7800	62.1854
7775	69.1732
7750	63.2507
7725	69.0918
7700	70.3097
7675	69.1705
7650	67.0521
7625	68.6472
7600	68.4145
7575	69.372
7550	65.4679
7525	68.9753
7500	65.2226
7475	63.4597
7450	63.8646
7425	65.5026
7400	66.6006
7375	64.5533
7350	64.8366
7325	65.4505
7300	65.4055
7275	66.0294
7250	64.173
7225	66.0579
7200	64.5885
7175	64.7869
7150	67.0562
7125	64.9193
7100	62.3584
7075	61.8481
7050	62.9427
7025	66.5919
7000	63.5258
6975	64.843
6950	63.3136
6925	65.1292
6900	65.1
6875	65.8365
6850	61.4415
6825	64.9364
6800	64.1166
6775	61.5542
6750	66.1549
6725	65.4166
6700	63.5538
6675	62.7412
6650	61.9174
6625	63.8585
6600	64.3426
6575	63.6025
6550	66.8103
6525	64.6053
6500	65.2716
6475	65.2985
6450	65.6367
6425	64.0194
6400	66.177
6375	64.5633
6350	65.3386
6325	64.525
6300	65.2566
6275	63.9209
6250	65.1735
6225	65.6404
6200	65.5091
6175	64.226
6150	65.6316
6125	66.3461
6100	65.2981
6075	64.8855
6050	65.3702
6025	65.3902
6000	65.5403
5975	64.7801
5950	64.8834
5925	64.5466
5900	65.6028
5875	64.0692
5850	64.8647
5825	64.9639
5800	64.6976
5775	65.1957
5750	65.0004
5725	65.2966
5700	64.9563
5675	64.5755
5650	64.7199
5625	66.0383
5600	65.1172
5575	65.5516
5550	64.8878
5525	65.0258
5500	65.4991
5475	65.8359
5450	64.832
5425	64.0957
5400	65.1519
5375	64.6153
5350	64.2861
5325	63.7041
5300	66.3379
5275	66.4701
5250	65.7488
5225	64.8841
5200	65.1242
5175	65.3089
5150	64.799
5125	64.7802
5100	65.7466
5075	64.9012
5050	65.0476
5025	64.7108
5000	65.3668
4975	64.9058
4950	65.2675
4925	64.9091
4900	64.9907
4875	64.7312
4850	64.6134
4825	64.8799
4800	64.9537
4775	65.05
4750	65.3538
4725	65.1139
4700	65.1136
4675	64.9428
4650	65.4693
4625	65.1415
4600	65.0141
4575	64.7619
4550	64.6231
4525	64.0899
4500	64.3455
4475	64.3756
4450	64.2746
4425	62.7377
4400	62.4428
4375	62.204
4350	64.4988
4325	64.2528
4300	64.3668
4275	64.3697
4250	64.4762
4225	64.7976
4200	64.8635
4175	65.2471
4150	65.1958
4125	65.1105
4100	65.4011
4075	65.2492
4050	65.3063
4025	65.096
4000	65.188
3975	65.1688
3950	65.062
3925	65.1433
3900	65.1141
3875	65.0942
3850	65.1281
3825	65.1752
3800	64.979
3775	65.2523
3750	65.4472
3725	65.1857
3700	65.1473
3675	65.2702
3650	65.298
3625	65.2877
3600	65.0741
3575	65.2601
3550	65.2287
3525	65.1057
3500	65.1762
3475	65.2205
3450	65.2231
3425	65.3416
3400	65.1445
3375	65.1241
3350	65.0923
3325	65.0773
3300	65.2339
3275	65.0908
3250	65.1129
3225	65.1137
3200	65.2357
3175	65.2332
3150	65.1826
3125	65.3549
3100	65.2157
3075	65.2165
3050	65.1197
3025	65.3239
3000	64.9755
2975	65.1208
2950	64.9545
2925	64.8143
2900	65.0739
2875	65.0441
2850	64.801
2825	65.2349
2800	65.2386
2775	65.2351
2750	65.1796
2725	65.1852
2700	65.2729
2675	65.1856
2650	65.2534
2625	65.2343
2600	65.264
2575	65.2642
2550	65.2472
2525	65.3508
2500	65.2551
2475	65.2934
2450	65.2443
2425	65.3254
2400	65.107
2375	65.2983
2350	65.2248
2325	65.2326
2300	65.2509
2275	65.3436
2250	65.1116
2225	65.2645
2200	65.1401
2175	65.2851
2150	65.2144
2125	65.1465
2100	65.1771
2075	65.299
2050	65.29
2025	65.3476
2000	65.2399
1975	65.3136
1950	65.3232
1925	65.3843
1900	65.2891
1875	65.2902
1850	65.3765
1825	65.2356
1800	65.2692
1775	65.2549
1750	65.2605
1725	65.1588
1700	65.1696
1675	65.0562
1650	65.1319
1625	65.2153
1600	65.1971
1575	65.1601
1550	65.1197
1525	65.1462
1500	65.1585
1475	65.1124
1450	65.0202
1425	65.1501
1400	65.1086
1375	65.0373
1350	65.0304
1325	65.0512
1300	65.0671
1275	65.0841
1250	64.9814
1225	65.0778
1200	65.0001
1175	65.0315
1150	64.8459
1125	64.8101
1100	64.7415
1075	64.7661
1050	64.8098
1025	64.7119
1000	64.8865
975	 64.7871
950	 64.6788
925	 64.5686
900	 64.685
875	 64.463
850	 64.3203
825	 64.4151
800	 64.31
775	 64.3405
750	 64.015
725	 63.8037
700	 63.4026
675	 63.4703
650	 63.4659
625	 63.524
600	 62.7981
575	 62.4639
550	 62.4334
525	 61.9926
500	 61.3679
475	 60.6668
450	 60.5032
425	 56.9659
400	 64.7957
375	 42.7327
370	 28.278

File: C-4040-8_t19.asc
PE IR       SPECTRUM    SPECTRUM    ASCII       PEDS        1.60
  -1
C-C92E~1.ASC
17/05/02
12:27:19.00
17/05/02
12:27:45.00
tln
$C-4040-8_t0019$<tbV0>[12.5,2.0,8.0,0.0,22,1,0]
27.028
64

2002,4.07
MIRTGS : RIGHTBACK : INTERNAL 2
MIR : ON : INTERNAL 2
OPTKBR

0.200000
8
8.000000
FILLER
RATIO
SPECTRUM
UNLOCKED 256

DOUBLE
64
COMBINED
1
0
0

0.002000
RATIO

1
0
TRUE
51149
0
LEFT NOT FITTED RIGHT NOT FITTED 0
NONE
NONE
15600
12
4.427000
51148
TRUE
1 0 8 72 0 0 0 0

15798

#HDR
-1
-1
#GR
µM
%T
2.38419e-05
0.0
1.282000
0.002000
12874
8
72.6392
45.4647
#DATA
1.282000	 69.0795
1.368000	 62.2297
1.454000	 65.3602
1.540000	 65.1349
1.626000	 65.4727
1.712000	 64.431
1.798000	 64.7355
1.884000	 64.4049
1.970000	 64.7013
2.056000	 64.565
2.142000	 64.6779
2.228000	 65.0799
2.314000	 64.9092
2.400000	 64.7323
2.486000	 64.9107
2.572000	 65.2071
2.658000	 64.9896
2.744000	 64.9658
2.830000	 64.892
2.916000	 64.8717
3.002000	 65.0328
3.088000	 65.0516
3.174000	 64.9886
3.260000	 65
3.346000	 64.9861
3.432000	 64.6934
3.518000	 64.8333
3.604000	 65.0159
3.690000	 65.1637
3.776000	 64.9771
3.862000	 65.0378
3.948000	 65.075
4.034000	 65.0394
4.120000	 65.0687
4.206000	 65.0329
4.292000	 64.9359
4.378000	 65.0055
4.464000	 65.0593
4.550000	 65.0058
4.636000	 65.1059
4.722000	 65.0029
4.808000	 65.0352
4.894000	 65.0922
4.980000	 65.0475
5.066000	 64.9604
5.152000	 65.0977
5.238000	 65.0205
5.324000	 65.0445
5.410000	 65.1104
5.496000	 65.0447
5.582000	 65.0761
5.668000	 64.9945
5.754000	 64.8938
5.840000	 64.8626
5.926000	 64.8993
6.012000	 65.0108
6.098000	 64.9777
6.184000	 64.988
6.270000	 65.0112
6.356000	 64.8849
6.442000	 64.8883
6.528000	 64.7996
6.614000	 64.9406
6.700000	 64.8587
6.786000	 64.8418
6.872000	 64.8959
6.958000	 64.7996
7.044000	 64.7271
7.130000	 64.7694
7.216000	 64.7148
7.302000	 64.8029
7.388000	 64.7477
7.474000	 64.7801
7.560000	 64.6919
7.646000	 64.7647
7.732000	 64.6811
7.818000	 64.7486
7.904000	 64.6855
7.990000	 64.6791
8.076000	 64.6742
8.161999	 64.6519
8.248000	 64.6853
8.334000	 64.5211
8.420000	 64.5839
8.506000	 64.63
8.592000	 64.5951
8.678000	 64.5754
8.763999	 64.4624
8.850000	 64.5481
8.936000	 64.4313
9.022000	 64.3485
9.108000	 64.389
9.193999	 64.3929
9.280000	 64.3584
9.366000	 64.5768
9.452000	 64.5087
9.538000	 64.4758
9.624000	 64.6332
9.710000	 64.3356
9.795999	 64.4034
9.882000	 64.3369
9.968000	 64.3017
10.054	64.222
10.14	64.2722
10.226	64.2564
10.312	64.3577
10.398	64.2416
10.484	64.2409
10.57	64.3458
10.656	63.9864
10.742	63.8475
10.828	64.0978
10.914	64.1578
11	64.4955
11.086	64.525
11.172	63.9187
11.258	63.7926
11.344	64.3681
11.43	64.4346
11.516	64.706
11.602	64.1706
11.688	63.8262
11.774	63.9718
11.86	63.7626
11.946	63.566
12.032	63.606
12.118	63.8449
12.204	63.6438
12.29	63.7228
12.376	63.6941
12.462	63.7246
12.548	63.7462
12.634	63.6483
12.72	63.7012
12.806	63.7545
12.892	63.6411
12.978	63.685
13.064	63.818
13.15	63.5823
13.236	63.3853
13.322	63.3352
13.408	63.2737
13.494	63.3325
13.58	63.4238
13.666	63.5373
13.752	63.3924
13.838	63.1263
13.924	63.0865
14.01	63.1092
14.096	62.9129
14.182	62.8427
14.268	62.9948
14.354	63.2062
14.44	63.1792
14.526	62.8529
14.612	62.5461
14.698	62.4729
14.784	62.5148
14.87	62.4869
14.956	62.479
15.042	62.4997
15.128	62.4095
15.214	62.3087
15.3	62.2872
15.386	62.2824
15.472	62.2669
15.558	62.1882
15.644	61.9889
15.73	61.7717
15.816	61.767
15.902	61.9963
15.988	62.1981
16.074	62.2632
16.16	62.2517
16.246	62.1178
16.332	61.8908
16.418	61.7238
16.504	61.6261
16.59	61.5488
16.676	61.5831
16.762	61.7882
16.848	61.9923
16.934	61.9322
17.02	61.6
17.106	61.3011
17.192	61.2324
17.278	61.2566
17.364	61.2061
17.45	61.1131
17.536	61.074
17.622	61.108
17.708	61.1827
17.794	61.2412
17.88	61.255
17.966	61.2821
18.052	61.3795
18.138	61.4644
18.224	61.3943
18.31	61.1975
18.396	61.0686
18.482	61.0945
18.568	61.1464
18.654	61.083
18.74	60.9342
18.826	60.8149
18.912	60.7676
18.998	60.7678
19.084	60.8068
19.17	60.8806
19.256	60.941
19.342	60.9365
19.428	60.8717
19.514	60.7883
19.6	60.6937
19.686	60.5607
19.772	60.3889
19.858	60.2308
19.944	60.1327
20.03	60.0671
20.116	59.952
20.202	59.7357
20.288	59.4623
20.374	59.2471
20.46	59.1857
20.546	59.2821
20.632	59.4542
20.718	59.6015
20.804	59.669
20.89	59.658
20.976	59.5998
21.062	59.5265
21.148	59.4633
21.234	59.429
21.32	59.4203
21.406	59.3986
21.492	59.3026
21.578	59.0885
21.664	58.777
21.75	58.4545
21.836	58.213
21.922	58.0859
22.008	58.0267
22.094	57.9479
22.18	57.7815
22.266	57.5159
22.352	57.2032
22.438	56.9329
22.524	56.7755
22.61	56.7426
22.696	56.766
22.782	56.7307
22.868	56.5454
22.954	56.2165
23.04	55.8507
23.126	55.6198
23.212	55.633
23.298	55.8972
23.384	56.2918
23.47	56.6526
23.556	56.857
23.642	56.8581
23.728	56.664
23.814	56.3216
23.9	55.8699
23.986	55.3353
24.072	54.7897
24.158	54.3662
24.244	54.2279
24.33	54.5259
24.416	55.3322
24.502	56.5924
24.588	58.1511
24.674	59.8394
24.76	61.536
24.846	63.1931
24.932	64.8583
25.018	66.6094
25.104	68.4526
25.19	70.1528
25.276	71.2706
25.362	71.3083
25.448	69.8833
25.534	66.9956
25.62	63.0829
25.706	58.8398
25.792	54.977
25.878	52.0976
25.964	50.6747
26.05	50.945
26.136	52.8185
26.222	55.8276
26.308	59.0978
26.394	61.601
26.48	62.5622
26.566	61.6437
26.652	59.0765
26.738	55.4723
26.824	51.618
26.91	48.2033
26.996	45.9021
27.028	45.4647

File: C-4040-8_t19_cm-1.asc
PE IR       SPECTRUM    SPECTRUM    ASCII       PEDS        1.60
  -1
C-1AE0~1.ASC
17/05/02
12:27:19.00
17/05/02
12:27:19.00
tln
$C-4040-8_t0019$<tbV0>[12.5,2.0,8.0,0.0,22,1,0]
370
64

2002,4.07
MIRTGS : RIGHTBACK : INTERNAL 2
MIR : ON : INTERNAL 2
OPTKBR

0.200000
8
8.000000
FILLER
RATIO
SPECTRUM
UNLOCKED 256

DOUBLE
64
COMBINED
1
0
0

1.000000
RATIO

1
0
TRUE
51149
0
LEFT NOT FITTED RIGHT NOT FITTED 0
NONE
NONE
15600
12
4.427000
51148
TRUE
1 0 8 72 0 0 0 0

15798

#HDR
-1
-1
#GR
CM-1
%T
2.38419e-05
0.0
7800
-1.000000
7431
8
75.1986
43.0543
#DATA
7800	69.0795
7775	61.6421
7750	63.6121
7725	70.6767
7700	69.0433
7675	74.3039
7650	67.2
7625	71.4797
7600	69.0383
7575	62.6098
7550	63.4952
7525	67.2521
7500	65.4301
7475	64.3905
7450	64.4784
7425	63.6433
7400	64.6198
7375	64.0323
7350	66.811
7325	68.1011
7300	65.1506
7275	62.7113
7250	68.0135
7225	66.5247
7200	63.6916
7175	65.8501
7150	61.2214
7125	63.957
7100	66.3274
7075	62.6218
7050	61.2703
7025	60.5296
7000	62.9069
6975	61.515
6950	63.5766
6925	64.0401
6900	64.5246
6875	65.3304
6850	63.5422
6825	65.1678
6800	63.3318
6775	61.9884
6750	63.4908
6725	63.2142
6700	63.5867
6675	63.3986
6650	62.1841
6625	65.3525
6600	64.2577
6575	63.3557
6550	63.343
6525	65.2857
6500	64.9159
6475	64.5817
6450	64.4254
6425	63.8809
6400	65.8654
6375	64.1107
6350	64.9977
6325	64.8091
6300	65.697
6275	64.4815
6250	65.061
6225	65.7562
6200	64.5463
6175	65.2245
6150	65.4803
6125	66.0832
6100	64.1661
6075	64.9255
6050	65.9374
6025	64.9612
6000	65.3477
5975	64.2178
5950	64.2931
5925	64.818
5900	65.5527
5875	65.1531
5850	65.0184
5825	64.9555
5800	64.6455
5775	65.2216
5750	64.7256
5725	65.0312
5700	64.2445
5675	64.3857
5650	64.4671
5625	65.0849
5600	64.69
5575	64.4755
5550	64.5063
5525	64.5895
5500	64.5408
5475	64.8309
5450	64.9984
5425	64.2026
5400	65.3564
5375	64.8721
5350	63.4779
5325	63.4785
5300	63.4416
5275	62.3896
5250	66.8146
5225	64.1583
5200	64.6801
5175	64.1504
5150	64.3723
5125	64.6886
5100	65.011
5075	64.6768
5050	65.0296
5025	64.7191
5000	64.9327
4975	65.2249
4950	64.8339
4925	64.5651
4900	65.0887
4875	64.7944
4850	64.8752
4825	64.7386
4800	64.6969
4775	64.875
4750	64.8036
4725	64.6371
4700	64.5498
4675	64.4685
4650	64.83
4625	64.9793
4600	64.8026
4575	64.4377
4550	65.0381
4525	65.2562
4500	65.1527
4475	64.9704
4450	65.4204
4425	65.2092
4400	63.8504
4375	63.3689
4350	66.0576
4325	64.8348
4300	65.5452
4275	65.2954
4250	64.9489
4225	64.8957
4200	64.6478
4175	65.0681
4150	64.7007
4125	64.7432
4100	64.9631
4075	64.8571
4050	65.1289
4025	64.9087
4000	64.9902
3975	64.9591
3950	65.0008
3925	65.12
3900	65.1463
3875	65.0994
3850	65.1278
3825	65.0479
3800	64.7914
3775	64.9497
3750	65.2827
3725	64.8429
3700	65.1915
3675	64.9802
3650	64.8942
3625	64.9564
3600	64.9158
3575	64.9491
3550	65.0239
3525	64.8738
3500	64.7227
3475	65.0911
3450	65.2257
3425	64.8338
3400	65.1246
3375	64.9953
3350	65.0631
3325	65.0091
3300	64.9859
3275	64.9759
3250	64.9693
3225	64.9444
3200	64.901
3175	64.955
3150	64.9926
3125	65.0051
3100	65.0401
3075	64.9926
3050	64.924
3025	64.9295
3000	64.975
2975	65.0115
2950	64.7678
2925	64.8067
2900	64.7763
2875	64.8941
2850	64.8235
2825	65.1576
2800	64.984
2775	65.011
2750	65.0717
2725	65.1017
2700	65.024
2675	65.0082
2650	64.9954
2625	65.0351
2600	65.0879
2575	65.0877
2550	64.9965
2525	65.101
2500	64.9606
2475	64.992
2450	65.1182
2425	65.0905
2400	65.0532
2375	65.0663
2350	65.1058
2325	64.9515
2300	64.9805
2275	65.0543
2250	65.0378
2225	65.1083
2200	64.9968
2175	64.9701
2150	65.0631
2125	64.9217
2100	65.0863
2075	65.0264
2050	65.0551
2025	65.0906
2000	65.0376
1975	64.9602
1950	65.0398
1925	65.0605
1900	65.0096
1875	65.0567
1850	65.1306
1825	65.0569
1800	65.0098
1775	65.081
1750	64.9146
1725	64.8699
1700	64.9517
1675	64.8689
1650	64.9856
1625	64.9011
1600	65.0051
1575	64.9389
1550	64.8977
1525	64.89
1500	64.9631
1475	64.8575
1450	64.8183
1425	64.8479
1400	64.7654
1375	64.7274
1350	64.8356
1325	64.6895
1300	64.7543
1275	64.7094
1250	64.6794
1225	64.6582
1200	64.5209
1175	64.6507
1150	64.5732
1125	64.4295
1100	64.4477
1075	64.3619
1050	64.4247
1025	64.3728
1000	64.2781
975	 64.3196
950	 64.3914
925	 64.0059
900	 64.2811
875	 64.4301
850	 63.9519
825	 63.847
800	 63.7678
775	 63.631
750	 63.3214
725	 63.2566
700	 63.0417
675	 62.5133
650	 62.2825
625	 62.2142
600	 61.5704
575	 61.1756
550	 61.4521
525	 60.785
500	 60.0909
475	 59.5343
450	 57.6618
425	 56.8149
400	 66.2317
375	 58.522
370	 45.4647