Folder: Masteroppgave/Bakgrunnsmateriale/MATLAB/FTIR/ftir_data/subBb/Mapping_121 (part 31)

File: C-4040-8_t69.asc
PE IR       SPECTRUM    SPECTRUM    ASCII       PEDS        1.60
  -1
C-CD3E~1.ASC
17/03/27
20:12:02.00
17/03/27
20:12:28.00
tln
$C-4040-8_t0069$<tbV0>[7.8,2.6,8.0,0.0,27,1,0]
27.028
64

2002,4.07
MIRTGS : RIGHTBACK : INTERNAL 2
MIR : ON : INTERNAL 2
OPTKBR

0.200000
8
8.000000
FILLER
RATIO
SPECTRUM
UNLOCKED 256

DOUBLE
64
COMBINED
1
0
0

0.002000
RATIO

1
0
TRUE
51149
0
LEFT NOT FITTED RIGHT NOT FITTED 0
NONE
NONE
15600
12
4.427000
51148
TRUE
1 0 8 72 0 0 0 0

15798

#HDR
-1
-1
#GR
µM
%T
2.38419e-05
0.0
2.000000
0.002000
12515
8
82.1702
48.0799
#DATA
2.000000	 65.1887
2.084000	 64.824
2.168000	 64.9991
2.252000	 64.8254
2.336000	 65.0408
2.420000	 65.0146
2.504000	 65.0866
2.588000	 65.1022
2.672000	 65.3291
2.756000	 65.2564
2.840000	 65.1486
2.924000	 65.0462
3.008000	 65.2076
3.092000	 65.2154
3.176000	 65.25
3.260000	 65.2657
3.344000	 65.218
3.428000	 64.7178
3.512000	 65.2472
3.596000	 65.3088
3.680000	 65.3834
3.764000	 65.2249
3.848000	 65.1375
3.932000	 65.2595
4.016000	 65.34
4.100000	 65.4489
4.184000	 65.2524
4.268000	 65.1269
4.352000	 65.2765
4.436000	 65.2842
4.520000	 65.2659
4.604000	 65.3662
4.688000	 65.3619
4.772000	 65.3175
4.856000	 65.2359
4.940000	 65.2608
5.024000	 65.3041
5.108000	 65.2589
5.192000	 65.4174
5.276000	 65.2871
5.359999	 65.1788
5.444000	 65.2928
5.528000	 65.1971
5.612000	 65.303
5.696000	 65.2116
5.780000	 64.99
5.864000	 65.0955
5.948000	 65.2439
6.032000	 65.1538
6.116000	 65.1457
6.200000	 65.2211
6.284000	 65.0542
6.368000	 64.9645
6.452000	 65.0299
6.536000	 65.0556
6.620000	 65.003
6.704000	 65.1164
6.788000	 65.0785
6.872000	 64.8208
6.956000	 65.2513
7.040000	 65.0779
7.124000	 64.9637
7.208000	 65.0765
7.292000	 65.0038
7.376000	 65.1186
7.460000	 64.9849
7.544000	 65.051
7.628000	 64.9513
7.712000	 65.0267
7.796000	 65.0562
7.880000	 64.8246
7.964000	 64.9414
8.048000	 64.8137
8.132000	 64.8682
8.216000	 64.8892
8.300000	 64.9833
8.384000	 64.7832
8.468000	 64.6722
8.552000	 64.6418
8.635999	 64.6159
8.719999	 64.6291
8.804000	 64.7803
8.888000	 64.7814
8.972000	 64.6704
9.056000	 64.6314
9.140000	 64.6459
9.224000	 64.6396
9.308000	 64.789
9.391999	 64.7389
9.475999	 64.8271
9.560000	 64.9061
9.644000	 64.7271
9.728000	 64.6483
9.812000	 64.6021
9.896000	 64.4028
9.980000	 64.5531
10.064	64.9503
10.148	64.6526
10.232	64.5219
10.316	64.8624
10.4	64.6084
10.484	64.8664
10.568	64.9185
10.652	64.7904
10.736	64.6412
10.82	64.744
10.904	64.7476
10.988	64.5349
11.072	64.7468
11.156	64.6151
11.24	64.5241
11.324	64.6141
11.408	64.5521
11.492	64.6337
11.576	64.3057
11.66	63.9124
11.744	64.0563
11.828	64.463
11.912	64.3671
11.996	64.2319
12.08	64.2773
12.164	64.2925
12.248	63.9276
12.332	63.9737
12.416	64.1883
12.5	64.0664
12.584	63.643
12.668	63.6318
12.752	63.9001
12.836	64.0549
12.92	63.9837
13.004	63.8845
13.088	63.7999
13.172	63.7314
13.256	63.8316
13.34	63.6092
13.424	63.5575
13.508	63.5736
13.592	63.4317
13.676	63.5167
13.76	63.4524
13.844	63.5006
13.928	63.6107
14.012	63.4971
14.096	63.3576
14.18	63.2676
14.264	63.289
14.348	63.2497
14.432	63.1876
14.516	63.1608
14.6	62.9618
14.684	62.8404
14.768	62.9008
14.852	62.9104
14.936	62.8806
15.02	62.8508
15.104	62.8275
15.188	62.8495
15.272	62.7804
15.356	62.5667
15.44	62.4296
15.524	62.4793
15.608	62.5104
15.692	62.3258
15.776	62.0825
15.86	61.9815
15.944	61.9572
16.028	61.9319
16.112	61.8772
16.196	61.7736
16.28	61.7834
16.364	62.0189
16.448	62.2859
16.532	62.3579
16.616	62.2119
16.7	61.9373
16.784	61.7099
16.868	61.731
16.952	61.9817
17.036	62.216
17.12	62.2814
17.204	62.2277
17.288	62.0829
17.372	61.8269
17.456	61.5765
17.54	61.5271
17.624	61.6762
17.708	61.8088
17.792	61.7542
17.876	61.5254
17.96	61.2637
18.044	61.1195
18.128	61.143
18.212	61.2239
18.296	61.1933
18.38	61.0073
18.464	60.788
18.548	60.6702
18.632	60.652
18.716	60.628
18.8	60.5105
18.884	60.286
18.968	59.995
19.052	59.7268
19.136	59.6031
19.22	59.7118
19.304	60.0227
19.388	60.3834
19.472	60.6167
19.556	60.6333
19.64	60.4687
19.724	60.2297
19.808	60.0118
19.892	59.8571
19.976	59.7596
20.06	59.6964
20.144	59.6494
20.228	59.6209
20.312	59.6306
20.396	59.6997
20.48	59.8174
20.564	59.9193
20.648	59.9101
20.732	59.7218
20.816	59.3758
20.9	58.9726
20.984	58.6166
21.068	58.3509
21.152	58.1738
21.236	58.0954
21.32	58.1614
21.404	58.4272
21.488	58.8884
21.572	59.4486
21.656	59.9429
21.74	60.2077
21.824	60.1667
21.908	59.873
21.992	59.4666
22.076	59.0886
22.16	58.7969
22.244	58.551
22.328	58.2854
22.412	58.0012
22.496	57.8175
22.58	57.9087
22.664	58.3926
22.748	59.2178
22.832	60.1632
22.916	60.9342
23	61.2966
23.084	61.1753
23.168	60.6458
23.252	59.8501
23.336	58.9304
23.42	57.9847
23.504	57.0829
23.588	56.3125
23.672	55.7767
23.756	55.5405
23.84	55.6
23.924	55.8589
24.008	56.173
24.092	56.4291
24.176	56.6218
24.26	56.818
24.344	57.1387
24.428	57.6823
24.512	58.4304
24.596	59.2625
24.68	60.0333
24.764	60.652
24.848	61.0862
24.932	61.2829
25.016	61.1313
25.1	60.4724
25.184	59.1774
25.268	57.2471
25.352	54.8286
25.436	52.2966
25.52	50.1046
25.604	48.6045
25.688	48.0806
25.772	48.8233
25.856	51.1501
25.94	55.1054
26.024	60.4113
26.108	66.5002
26.192	72.5548
26.276	77.6579
26.36	81.0648
26.444	82.1645
26.528	80.6774
26.612	76.7807
26.696	71.2888
26.78	65.6055
26.864	61.3117
26.948	59.3725
27.028	59.3906

File: C-4040-8_t69_cm-1.asc
PE IR       SPECTRUM    SPECTRUM    ASCII       PEDS        1.60
  -1
C-9CE0~1.ASC
17/03/27
20:12:02.00
17/03/27
20:12:02.00
tln
$C-4040-8_t0069$<tbV0>[7.8,2.6,8.0,0.0,27,1,0]
370
64

2002,4.07
MIRTGS : RIGHTBACK : INTERNAL 2
MIR : ON : INTERNAL 2
OPTKBR

0.200000
8
8.000000
FILLER
RATIO
SPECTRUM
UNLOCKED 256

DOUBLE
64
COMBINED
1
0
0

1.000000
RATIO

1
0
TRUE
51149
0
LEFT NOT FITTED RIGHT NOT FITTED 0
NONE
NONE
15600
12
4.427000
51148
TRUE
1 0 8 72 0 0 0 0

15798

#HDR
-1
-1
#GR
CM-1
%T
2.38419e-05
0.0
5000
-1.000000
4631
8
82.1178
48.128
#DATA
5000	65.1887
4984	65.3427
4968	64.4523
4952	65.2236
4936	64.6471
4920	64.896
4904	65.2232
4888	64.7874
4872	66.3588
4856	64.9897
4840	64.8032
4824	64.9758
4808	65.1161
4792	64.7113
4776	64.8509
4760	64.911
4744	65.1517
4728	65.0693
4712	64.9284
4696	64.77
4680	65.3626
4664	65.2924
4648	65.2597
4632	65.2784
4616	64.806
4600	64.8466
4584	65.2487
4568	64.8537
4552	64.7668
4536	65.0858
4520	65.0978
4504	64.6726
4488	65.0418
4472	64.8228
4456	64.3875
4440	64.904
4424	64.9918
4408	63.9117
4392	64.485
4376	65.4084
4360	63.6413
4344	64.8766
4328	65.3765
4312	65.3335
4296	65.1046
4280	65.0383
4264	64.2885
4248	65.2442
4232	64.8041
4216	64.6634
4200	65.0838
4184	65.5885
4168	65.7182
4152	64.9844
4136	65.1722
4120	65.0561
4104	65.051
4088	65.0362
4072	64.783
4056	65.1626
4040	65.0733
4024	65.1198
4008	65.2249
3992	65.1191
3976	65.3385
3960	65.1687
3944	65.1208
3928	65.0981
3912	65.326
3896	65.0751
3880	65.0082
3864	65.1025
3848	65.0194
3832	65.1208
3816	65.1999
3800	65.0271
3784	65.2134
3768	65.207
3752	65.2261
3736	65.2389
3720	65.1962
3704	65.0945
3688	65.1557
3672	65.0329
3656	65.2444
3640	65.3093
3624	65.2483
3608	65.106
3592	65.1538
3576	65.3445
3560	64.9472
3544	65.2884
3528	65.2695
3512	65.1484
3496	65.2349
3480	65.1941
3464	65.295
3448	65.2645
3432	65.1732
3416	65.2809
3400	64.9527
3384	65.0388
3368	65.0702
3352	64.9324
3336	65.4052
3320	65.2513
3304	65.0798
3288	65.2189
3272	65.1149
3256	65.3095
3240	65.2126
3224	64.9954
3208	65.0987
3192	65.1004
3176	65.0196
3160	65.111
3144	65.5182
3128	65.0483
3112	65.2983
3096	65.3961
3080	65.1967
3064	65.2139
3048	65.0344
3032	65.2202
3016	65.1755
3000	65.2966
2984	65.2345
2968	65.0001
2952	64.922
2936	65.0108
2920	64.6915
2904	65.0288
2888	65.1642
2872	65.0987
2856	65.3323
2840	65.0316
2824	65.154
2808	65.1348
2792	65.196
2776	65.3141
2760	65.3233
2744	65.3297
2728	65.3617
2712	65.3813
2696	65.2218
2680	65.1938
2664	65.213
2648	65.25
2632	65.3161
2616	65.3002
2600	65.1556
2584	65.2895
2568	65.2404
2552	65.3055
2536	65.2584
2520	65.3701
2504	65.0522
2488	65.3066
2472	65.3672
2456	65.3413
2440	65.4165
2424	65.213
2408	65.4749
2392	65.2252
2376	65.3616
2360	65.2841
2344	65.1227
2328	65.3055
2312	65.2424
2296	65.2556
2280	65.283
2264	65.2475
2248	65.3197
2232	65.2971
2216	65.2759
2200	65.2783
2184	65.3243
2168	65.3227
2152	65.0376
2136	65.3152
2120	65.3164
2104	65.3385
2088	65.3897
2072	65.3087
2056	65.2693
2040	65.2109
2024	65.2557
2008	65.4038
1992	65.3114
1976	65.2076
1960	65.273
1944	65.258
1928	65.3885
1912	65.3684
1896	65.2736
1880	65.2387
1864	65.2083
1848	65.1904
1832	65.296
1816	65.3619
1800	65.2578
1784	65.2877
1768	65.3864
1752	65.1909
1736	65.0596
1720	65.1529
1704	65.0978
1688	65.2552
1672	65.2929
1656	65.1377
1640	65.1541
1624	65.1549
1608	65.0871
1592	65.042
1576	64.994
1560	64.9539
1544	65.0737
1528	65.0734
1512	64.9799
1496	65.1545
1480	65.1183
1464	64.9583
1448	64.7348
1432	65.1831
1416	65.1234
1400	64.9186
1384	64.9975
1368	65.0402
1352	65.0874
1336	65.0167
1320	65.0011
1304	64.9253
1288	65.0267
1272	64.8808
1256	64.9422
1240	64.7764
1224	64.8324
1208	65.0551
1192	64.785
1176	64.6387
1160	64.636
1144	64.6404
1128	64.7863
1112	64.6599
1096	64.6868
1080	64.6626
1064	64.7302
1048	64.7929
1032	64.5077
1016	64.5076
1000	64.5927
984	 64.5925
968	 64.8407
952	 64.8001
936	 64.7098
920	 64.779
904	 64.7198
888	 64.5594
872	 64.6341
856	 63.8862
840	 64.38
824	 64.3522
808	 64.1021
792	 63.5675
776	 64.0346
760	 63.724
744	 63.5839
728	 63.4813
712	 63.4385
696	 63.2271
680	 62.8484
664	 62.8343
648	 62.4338
632	 62.0083
616	 61.7508
600	 62.0527
584	 62.2811
568	 61.6362
552	 61.1322
536	 60.6509
520	 59.7424
504	 59.9425
488	 59.8346
472	 58.1277
456	 59.7715
440	 58.9924
424	 56.3371
408	 58.4094
392	 50.3287
376	 77.6904
370	 59.3906

File: C-4040-8_t70.asc
PE IR       SPECTRUM    SPECTRUM    ASCII       PEDS        1.60
  -1
C-A14A~1.ASC
17/03/27
20:16:39.00
17/03/27
20:17:05.00
tln
$C-4040-8_t0070$<tbV0>[5.2,2.6,8.0,0.0,27,1,0]
27.028
64

2002,4.07
MIRTGS : RIGHTBACK : INTERNAL 2
MIR : ON : INTERNAL 2
OPTKBR

0.200000
8
8.000000
FILLER
RATIO
SPECTRUM
UNLOCKED 256

DOUBLE
64
COMBINED
1
0
0

0.002000
RATIO

1
0
TRUE
51149
0
LEFT NOT FITTED RIGHT NOT FITTED 0
NONE
NONE
15600
12
4.427000
51148
TRUE
1 0 8 72 0 0 0 0

15798

#HDR
-1
-1
#GR
µM
%T
2.38419e-05
0.0
2.000000
0.002000
12515
8
87.3601
28.6632
#DATA
2.000000	 65.1682
2.084000	 65.0033
2.168000	 65.0603
2.252000	 64.3503
2.336000	 64.6437
2.420000	 64.9889
2.504000	 65.42
2.588000	 65.2977
2.672000	 65.1952
2.756000	 65.1873
2.840000	 65.3242
2.924000	 65.0977
3.008000	 65.1944
3.092000	 65.1687
3.176000	 65.3447
3.260000	 65.3133
3.344000	 65.2238
3.428000	 64.9887
3.512000	 65.2552
3.596000	 65.3621
3.680000	 65.4665
3.764000	 65.3673
3.848000	 65.3577
3.932000	 65.2882
4.016000	 65.3808
4.100000	 65.2152
4.184000	 65.2905
4.268000	 65.4316
4.352000	 65.458
4.436000	 65.4022
4.520000	 65.3877
4.604000	 65.3327
4.688000	 65.4267
4.772000	 65.4762
4.856000	 65.2425
4.940000	 65.5385
5.024000	 65.3487
5.108000	 65.5055
5.192000	 65.5775
5.276000	 65.3695
5.359999	 65.4686
5.444000	 65.4207
5.528000	 65.3965
5.612000	 65.4103
5.696000	 65.3994
5.780000	 65.1854
5.864000	 65.3046
5.948000	 65.331
6.032000	 65.4297
6.116000	 65.2845
6.200000	 65.1055
6.284000	 65.1369
6.368000	 65.0625
6.452000	 65.056
6.536000	 65.143
6.620000	 65.1304
6.704000	 65.3322
6.788000	 65.2154
6.872000	 65.3149
6.956000	 65.0249
7.040000	 65.1907
7.124000	 65.2139
7.208000	 65.1344
7.292000	 65.1498
7.376000	 65.0844
7.460000	 65.1113
7.544000	 65.0695
7.628000	 65.0422
7.712000	 65.1469
7.796000	 65.1823
7.880000	 65.1247
7.964000	 64.9314
8.048000	 64.9382
8.132000	 64.8731
8.216000	 64.9568
8.300000	 64.9856
8.384000	 65.0079
8.468000	 64.9758
8.552000	 64.8907
8.635999	 64.8688
8.719999	 64.7761
8.804000	 64.8751
8.888000	 64.6837
8.972000	 64.9399
9.056000	 65.2049
9.140000	 64.2852
9.224000	 64.5011
9.308000	 64.7239
9.391999	 64.7129
9.475999	 64.8126
9.560000	 64.8604
9.644000	 64.7207
9.728000	 64.517
9.812000	 64.4002
9.896000	 64.5607
9.980000	 64.892
10.064	64.757
10.148	64.2654
10.232	63.9393
10.316	64.2514
10.4	64.6809
10.484	64.6952
10.568	64.7193
10.652	64.5142
10.736	64.4441
10.82	64.5558
10.904	64.4899
10.988	64.6864
11.072	64.7651
11.156	64.8512
11.24	64.6973
11.324	64.5517
11.408	64.4223
11.492	64.3654
11.576	64.496
11.66	64.4248
11.744	64.3622
11.828	64.3036
11.912	64.3563
11.996	64.2758
12.08	64.2663
12.164	64.3176
12.248	64.487
12.332	64.4809
12.416	64.3153
12.5	63.9673
12.584	63.8962
12.668	64.0004
12.752	64.1797
12.836	64.1885
12.92	63.9173
13.004	63.8504
13.088	64.0628
13.172	63.9315
13.256	63.7689
13.34	63.8321
13.424	63.9627
13.508	63.7936
13.592	63.3507
13.676	63.2351
13.76	63.2059
13.844	63.5027
13.928	63.8439
14.012	63.5917
14.096	63.1638
14.18	62.9884
14.264	63.1674
14.348	63.3767
14.432	63.2987
14.516	63.0356
14.6	62.8972
14.684	63.053
14.768	63.1782
14.852	63.0133
14.936	62.7319
15.02	62.6193
15.104	62.7446
15.188	62.8502
15.272	62.8054
15.356	62.7126
15.44	62.5761
15.524	62.4729
15.608	62.5419
15.692	62.7358
15.776	62.9265
15.86	62.9791
15.944	62.8267
16.028	62.5527
16.112	62.3047
16.196	62.2075
16.28	62.2493
16.364	62.2918
16.448	62.3443
16.532	62.5275
16.616	62.7487
16.7	62.7761
16.784	62.5954
16.868	62.408
16.952	62.3608
17.036	62.4434
17.12	62.5993
17.204	62.7704
17.288	62.8052
17.372	62.5767
17.456	62.2132
17.54	61.9798
17.624	61.9604
17.708	62.0386
17.792	62.1071
17.876	62.1146
17.96	62.0178
18.044	61.8419
18.128	61.7085
18.212	61.6883
18.296	61.7164
18.38	61.7062
18.464	61.6537
18.548	61.5704
18.632	61.4182
18.716	61.1932
18.8	60.9829
18.884	60.8506
18.968	60.7354
19.052	60.5776
19.136	60.4913
19.22	60.684
19.304	61.1672
19.388	61.6595
19.472	61.8348
19.556	61.6312
19.64	61.2709
19.724	61.0064
19.808	60.8934
19.892	60.8062
19.976	60.6233
20.06	60.364
20.144	60.1565
20.228	60.1205
20.312	60.2988
20.396	60.6583
20.48	61.1006
20.564	61.4758
20.648	61.6219
20.732	61.4494
20.816	61.0061
20.9	60.4559
20.984	59.9802
21.068	59.6876
21.152	59.5893
21.236	59.6386
21.32	59.7821
21.404	59.9676
21.488	60.1492
21.572	60.2926
21.656	60.4259
21.74	60.6281
21.824	60.9554
21.908	61.357
21.992	61.6786
22.076	61.7615
22.16	61.5516
22.244	61.1434
22.328	60.7143
22.412	60.4092
22.496	60.2677
22.58	60.215
22.664	60.1203
22.748	59.8415
22.832	59.2667
22.916	58.3642
23	57.2345
23.084	56.0856
23.168	55.1867
23.252	54.724
23.336	54.7348
23.42	55.1202
23.504	55.7004
23.588	56.3296
23.672	56.9373
23.756	57.4783
23.84	57.9543
23.924	58.3635
24.008	58.7129
24.092	59.0663
24.176	59.5611
24.26	60.302
24.344	61.3157
24.428	62.4974
24.512	63.548
24.596	64.1105
24.68	63.9216
24.764	62.9486
24.848	61.4142
24.932	59.6093
25.016	57.6871
25.1	55.5865
25.184	53.06
25.268	49.8723
25.352	46.0124
25.436	41.6001
25.52	36.9843
25.604	32.7631
25.688	29.7248
25.772	28.669
25.856	30.1571
25.94	34.3586
26.024	40.8239
26.108	48.4421
26.192	55.7721
26.276	61.4734
26.36	64.6683
26.444	65.192
26.528	63.5426
26.612	60.7017
26.696	57.6866
26.78	55.1776
26.864	53.4389
26.948	52.5647
27.028	52.7415

File: C-4040-8_t70_cm-1.asc
PE IR       SPECTRUM    SPECTRUM    ASCII       PEDS        1.60
  -1
C-1D61~1.ASC
17/03/27
20:16:39.00
17/03/27
20:16:39.00
tln
$C-4040-8_t0070$<tbV0>[5.2,2.6,8.0,0.0,27,1,0]
370
64

2002,4.07
MIRTGS : RIGHTBACK : INTERNAL 2
MIR : ON : INTERNAL 2
OPTKBR

0.200000
8
8.000000
FILLER
RATIO
SPECTRUM
UNLOCKED 256

DOUBLE
64
COMBINED
1
0
0

1.000000
RATIO

1
0
TRUE
51149
0
LEFT NOT FITTED RIGHT NOT FITTED 0
NONE
NONE
15600
12
4.427000
51148
TRUE
1 0 8 72 0 0 0 0

15798

#HDR
-1
-1
#GR
CM-1
%T
2.38419e-05
0.0
5000
-1.000000
4631
8
88.0222
28.672
#DATA
5000	65.1682
4984	65.1109
4968	64.2761
4952	65.7505
4936	65.0435
4920	64.895
4904	64.5993
4888	64.4169
4872	65.2327
4856	64.9156
4840	65.2898
4824	64.6013
4808	64.8667
4792	64.6518
4776	65.1368
4760	64.9817
4744	65.3018
4728	64.6611
4712	65.5165
4696	65.2201
4680	65.3368
4664	64.7712
4648	65.068
4632	65.3804
4616	65.0667
4600	65.0461
4584	64.7546
4568	64.9341
4552	65.232
4536	65.6814
4520	64.5487
4504	64.9247
4488	64.5867
4472	64.1577
4456	64.5146
4440	64.3561
4424	64.2934
4408	63.496
4392	62.7916
4376	79.0654
4360	64.5164
4344	64.5172
4328	64.8894
4312	64.7828
4296	64.9313
4280	64.6727
4264	64.879
4248	64.8911
4232	64.9711
4216	64.7088
4200	65.1153
4184	65.0321
4168	65.8483
4152	65.0048
4136	64.7964
4120	65.254
4104	65.192
4088	65.388
4072	64.8449
4056	65.4705
4040	65.1677
4024	65.3949
4008	65.4677
3992	65.4857
3976	65.5216
3960	65.3997
3944	65.1526
3928	65.2412
3912	65.3968
3896	65.229
3880	65.0724
3864	65.2981
3848	65.3225
3832	65.1924
3816	65.7183
3800	65.3062
3784	65.1704
3768	65.3077
3752	65.2634
3736	65.1383
3720	65.3807
3704	65.1239
3688	65.3213
3672	65.4069
3656	65.2719
3640	65.4322
3624	65.3099
3608	65.262
3592	65.2085
3576	65.3055
3560	65.2617
3544	65.3061
3528	65.3233
3512	65.266
3496	65.2661
3480	65.1287
3464	64.9119
3448	65.2982
3432	65.1196
3416	65.3582
3400	64.9893
3384	65.3586
3368	65.1966
3352	65.4301
3336	65.2749
3320	65.1723
3304	65.4389
3288	65.4602
3272	65.2221
3256	65.32
3240	65.0812
3224	65.1028
3208	65.1579
3192	65.4322
3176	65.297
3160	65.2788
3144	65.3738
3128	65.243
3112	65.1865
3096	65.4519
3080	65.2112
3064	65.2805
3048	65.2366
3032	65.3445
3016	65.2609
3000	65.0698
2984	65.2412
2968	64.9947
2952	65.0086
2936	65.0303
2920	64.9277
2904	65.1294
2888	65.227
2872	65.2971
2856	65.4468
2840	65.3466
2824	65.4038
2808	65.3908
2792	65.2748
2776	65.3886
2760	65.3969
2744	65.4635
2728	65.2477
2712	65.5813
2696	65.3719
2680	65.4268
2664	65.3018
2648	65.2941
2632	65.5322
2616	65.5033
2600	65.3685
2584	65.3207
2568	65.3304
2552	65.2587
2536	65.2824
2520	65.383
2504	65.3548
2488	65.3351
2472	65.5154
2456	65.5161
2440	65.2426
2424	65.1176
2408	65.3523
2392	65.2551
2376	65.2657
2360	65.4606
2344	65.431
2328	65.379
2312	65.609
2296	65.4364
2280	65.4445
2264	65.3578
2248	65.4062
2232	65.406
2216	65.3683
2200	65.2988
2184	65.4227
2168	65.3369
2152	65.3088
2136	65.3913
2120	65.3612
2104	65.4045
2088	65.4073
2072	65.3674
2056	65.1971
2040	65.4116
2024	65.5355
2008	65.405
1992	65.3479
1976	65.1809
1960	65.4905
1944	65.306
1928	65.5735
1912	65.3338
1896	65.3482
1880	65.375
1864	65.462
1848	65.3779
1832	65.4621
1816	65.5317
1800	65.3702
1784	65.42
1768	65.2761
1752	65.3672
1736	65.2289
1720	65.1948
1704	65.3599
1688	65.3048
1672	65.4303
1656	65.3954
1640	65.371
1624	65.1671
1608	65.1512
1592	65.1379
1576	65.1504
1560	65.0878
1544	65.1071
1528	65.1581
1512	65.1136
1496	65.3111
1480	65.3074
1464	65.1195
1448	64.9096
1432	65.2068
1416	65.132
1400	65.2378
1384	65.1512
1368	65.1443
1352	65.1103
1336	65.1463
1320	64.9668
1304	65.1517
1288	65.228
1272	65.1081
1256	64.9363
1240	64.9212
1224	64.8912
1208	64.9873
1192	65.0129
1176	64.9954
1160	64.8879
1144	64.7762
1128	64.7633
1112	65.0383
1096	64.4094
1080	64.6718
1064	64.6968
1048	64.8087
1032	64.5785
1016	64.4552
1000	64.8806
984	 64.1714
968	 64.3487
952	 64.6883
936	 64.478
920	 64.5161
904	 64.7563
888	 64.6376
872	 64.3372
856	 64.4052
840	 64.3518
824	 64.2861
808	 64.4329
792	 63.9385
776	 64.0324
760	 63.9775
744	 63.9718
728	 63.2023
712	 63.4113
696	 63.386
680	 63.1069
664	 62.6608
648	 62.5902
632	 62.9807
616	 62.2172
600	 62.7966
584	 62.6063
568	 61.9511
552	 61.7208
536	 61.3571
520	 60.7327
504	 60.865
488	 61.1609
472	 59.595
456	 61.4556
440	 59.9346
424	 56.3066
408	 63.5259
392	 37.5119
376	 61.2816
370	 52.7415

File: C-4040-8_t71.asc
PE IR       SPECTRUM    SPECTRUM    ASCII       PEDS        1.60
  -1
C-A14E~1.ASC
17/03/27
20:21:15.00
17/03/27
20:21:42.00
tln
$C-4040-8_t0071$<tbV0>[2.6,2.6,8.0,0.0,27,1,0]
27.028
64

2002,4.07
MIRTGS : RIGHTBACK : INTERNAL 2
MIR : ON : INTERNAL 2
OPTKBR

0.200000
8
8.000000
FILLER
RATIO
SPECTRUM
UNLOCKED 256

DOUBLE
64
COMBINED
1
0
0

0.002000
RATIO

1
0
TRUE
51149
0
LEFT NOT FITTED RIGHT NOT FITTED 0
NONE
NONE
15600
12
4.427000
51148
TRUE
1 0 8 72 0 0 0 0

15798

#HDR
-1
-1
#GR
µM
%T
2.38419e-05
0.0
2.000000
0.002000
12515
8
89.6526
42.1775
#DATA
2.000000	 64.9927
2.084000	 64.9949
2.168000	 65.1934
2.252000	 64.5397
2.336000	 64.482
2.420000	 65.0182
2.504000	 65.6331
2.588000	 65.5273
2.672000	 65.3773
2.756000	 65.3518
2.840000	 65.4446
2.924000	 65.1636
3.008000	 65.2033
3.092000	 65.2447
3.176000	 65.3215
3.260000	 65.4398
3.344000	 65.21
3.428000	 64.913
3.512000	 65.0244
3.596000	 65.3883
3.680000	 65.4443
3.764000	 65.4301
3.848000	 65.1624
3.932000	 65.2759
4.016000	 65.1728
4.100000	 65.5135
4.184000	 65.4247
4.268000	 65.4902
4.352000	 65.4139
4.436000	 65.4852
4.520000	 65.4813
4.604000	 65.4657
4.688000	 65.3664
4.772000	 65.4778
4.856000	 64.9167
4.940000	 65.3049
5.024000	 65.3344
5.108000	 65.3338
5.192000	 65.3589
5.276000	 65.3317
5.359999	 65.38
5.444000	 65.4392
5.528000	 65.3982
5.612000	 65.4236
5.696000	 65.3397
5.780000	 64.9807
5.864000	 65.2385
5.948000	 65.3595
6.032000	 65.2492
6.116000	 65.1748
6.200000	 65.0154
6.284000	 65.0191
6.368000	 65.0771
6.452000	 65.1525
6.536000	 65.1742
6.620000	 65.1241
6.704000	 65.0358
6.788000	 65.198
6.872000	 65.0747
6.956000	 65.286
7.040000	 65.2377
7.124000	 65.1659
7.208000	 65.207
7.292000	 65.1194
7.376000	 65.1995
7.460000	 65.2176
7.544000	 65.1456
7.628000	 64.9508
7.712000	 65.2119
7.796000	 65.1625
7.880000	 65.0434
7.964000	 65.141
8.048000	 64.9075
8.132000	 65.1433
8.216000	 65.0127
8.300000	 65.1427
8.384000	 64.8492
8.468000	 65.0322
8.552000	 64.8965
8.635999	 64.9572
8.719999	 64.7181
8.804000	 64.9394
8.888000	 64.9009
8.972000	 64.7322
9.056000	 65.1288
9.140000	 65.0858
9.224000	 64.6364
9.308000	 64.6876
9.391999	 64.6127
9.475999	 64.5106
9.560000	 64.4545
9.644000	 64.9561
9.728000	 64.9164
9.812000	 64.0536
9.896000	 64.4595
9.980000	 64.5653
10.064	65.1591
10.148	64.7205
10.232	64.2485
10.316	64.4056
10.4	64.6757
10.484	64.8583
10.568	64.93
10.652	64.765
10.736	64.6839
10.82	64.7728
10.904	64.9224
10.988	64.5849
11.072	64.5564
11.156	64.808
11.24	64.7873
11.324	64.6292
11.408	64.454
11.492	64.5596
11.576	64.4955
11.66	64.3028
11.744	64.2242
11.828	64.4635
11.912	64.7884
11.996	64.6577
12.08	64.3427
12.164	64.2005
12.248	64.2242
12.332	64.3132
12.416	64.4049
12.5	64.407
12.584	64.2188
12.668	64.2163
12.752	64.425
12.836	64.2598
12.92	64.065
13.004	64.0966
13.088	64.1112
13.172	64.0439
13.256	64.1085
13.34	64.0799
13.424	63.5697
13.508	63.0693
13.592	63.1152
13.676	63.5734
13.76	63.8821
13.844	63.9422
13.928	63.8289
14.012	63.4511
14.096	63.131
14.18	63.1474
14.264	63.537
14.348	63.9137
14.432	63.8667
14.516	63.4932
14.6	63.1884
14.684	63.284
14.768	63.4988
14.852	63.4782
14.936	63.2606
15.02	62.8314
15.104	62.3653
15.188	62.2932
15.272	62.5172
15.356	62.6428
15.44	62.6655
15.524	62.732
15.608	62.8345
15.692	62.8412
15.776	62.6648
15.86	62.4369
15.944	62.3289
16.028	62.3802
16.112	62.4797
16.196	62.4301
16.28	62.2497
16.364	62.213
16.448	62.4215
16.532	62.649
16.616	62.6971
16.7	62.6178
16.784	62.5459
16.868	62.5289
16.952	62.5674
17.036	62.6826
17.12	62.8456
17.204	62.9201
17.288	62.7872
17.372	62.4711
17.456	62.0996
17.54	61.8128
17.624	61.6935
17.708	61.6936
17.792	61.6505
17.876	61.4556
17.96	61.2121
18.044	61.1348
18.128	61.3033
18.212	61.5717
18.296	61.7299
18.38	61.7046
18.464	61.5783
18.548	61.4689
18.632	61.4317
18.716	61.466
18.8	61.5524
18.884	61.6555
18.968	61.7007
19.052	61.6143
19.136	61.41
19.22	61.1955
19.304	61.0499
19.388	60.9423
19.472	60.8038
19.556	60.6444
19.64	60.5443
19.724	60.5376
19.808	60.549
19.892	60.4638
19.976	60.2499
20.06	59.9884
20.144	59.7965
20.228	59.7376
20.312	59.8015
20.396	59.933
20.48	60.0452
20.564	60.0417
20.648	59.8578
20.732	59.5233
20.816	59.17
20.9	58.9577
20.984	58.9615
21.068	59.1181
21.152	59.2757
21.236	59.2943
21.32	59.1229
21.404	58.8144
21.488	58.4988
21.572	58.3163
21.656	58.3608
21.74	58.6306
21.824	59.0362
21.908	59.4485
21.992	59.756
22.076	59.9031
22.16	59.8913
22.244	59.7562
22.328	59.5542
22.412	59.3331
22.496	59.1292
22.58	58.9605
22.664	58.8111
22.748	58.6189
22.832	58.3015
22.916	57.7768
23	57.0244
23.084	56.0849
23.168	55.0795
23.252	54.1655
23.336	53.4873
23.42	53.1363
23.504	53.1829
23.588	53.6399
23.672	54.4582
23.756	55.5395
23.84	56.6837
23.924	57.6157
24.008	58.0671
24.092	57.8665
24.176	57.02
24.26	55.7158
24.344	54.2354
24.428	52.7794
24.512	51.3902
24.596	49.9287
24.68	48.2074
24.764	46.1921
24.848	44.0948
24.932	42.5268
25.016	42.307
25.1	44.088
25.184	48.1165
25.268	54.0021
25.352	60.8416
25.436	67.3975
25.52	72.5981
25.604	75.901
25.688	77.192
25.772	76.7339
25.856	74.9712
25.94	72.4576
26.024	69.7286
26.108	67.1754
26.192	65.0305
26.276	63.3542
26.36	62.1131
26.444	61.1394
26.528	60.1643
26.612	58.944
26.696	57.1867
26.78	54.5347
26.864	50.9363
26.948	46.7377
27.028	42.7967