Folder: Masteroppgave/Bakgrunnsmateriale/MATLAB/FTIR/ftir_data/subBb/Mapping_121 (part 39)

File: C-4040-8_t89.asc
PE IR       SPECTRUM    SPECTRUM    ASCII       PEDS        1.60
  -1
C-C54E~1.ASC
17/03/27
21:51:24.00
17/03/27
21:51:51.00
tln
$C-4040-8_t0089$<tbV0>[13.0,7.8,8.0,0.0,27,1,0]
27.028
64

2002,4.07
MIRTGS : RIGHTBACK : INTERNAL 2
MIR : ON : INTERNAL 2
OPTKBR

0.200000
8
8.000000
FILLER
RATIO
SPECTRUM
UNLOCKED 256

DOUBLE
64
COMBINED
1
0
0

0.002000
RATIO

1
0
TRUE
51149
0
LEFT NOT FITTED RIGHT NOT FITTED 0
NONE
NONE
15600
12
4.427000
51148
TRUE
1 0 8 72 0 0 0 0

15798

#HDR
-1
-1
#GR
µM
%T
2.38419e-05
0.0
2.000000
0.002000
12515
8
173.319
24.173
#DATA
2.000000	 64.8829
2.084000	 64.7222
2.168000	 65.2078
2.252000	 64.0864
2.336000	 64.4998
2.420000	 64.9756
2.504000	 65.0554
2.588000	 65.2594
2.672000	 65.3129
2.756000	 65.2045
2.840000	 65.2082
2.924000	 65.1276
3.008000	 65.2115
3.092000	 64.9695
3.176000	 64.9318
3.260000	 65.1921
3.344000	 65.026
3.428000	 64.9576
3.512000	 64.9939
3.596000	 65.2002
3.680000	 65.1964
3.764000	 65.102
3.848000	 65.2072
3.932000	 65.2773
4.016000	 65.2942
4.100000	 65.345
4.184000	 65.2271
4.268000	 65.2199
4.352000	 65.1618
4.436000	 65.452
4.520000	 65.284
4.604000	 65.3363
4.688000	 65.4737
4.772000	 65.3895
4.856000	 65.2767
4.940000	 65.2362
5.024000	 65.4888
5.108000	 65.2442
5.192000	 65.2538
5.276000	 65.2575
5.359999	 65.33
5.444000	 65.3192
5.528000	 65.3581
5.612000	 65.3163
5.696000	 64.9828
5.780000	 64.7637
5.864000	 65.214
5.948000	 65.2013
6.032000	 65.1559
6.116000	 65.2229
6.200000	 65.0716
6.284000	 65.1142
6.368000	 64.9316
6.452000	 65.1435
6.536000	 65.1492
6.620000	 64.9407
6.704000	 65.0937
6.788000	 65.2004
6.872000	 65.2611
6.956000	 65.1013
7.040000	 65.135
7.124000	 65.1297
7.208000	 65.1196
7.292000	 65.0572
7.376000	 65.2394
7.460000	 64.9509
7.544000	 65.0078
7.628000	 64.9163
7.712000	 64.9836
7.796000	 65.0228
7.880000	 64.8191
7.964000	 64.9338
8.048000	 64.9511
8.132000	 64.9845
8.216000	 65.0804
8.300000	 64.8574
8.384000	 64.96
8.468000	 64.8829
8.552000	 64.9846
8.635999	 64.8917
8.719999	 64.7809
8.804000	 64.972
8.888000	 64.8498
8.972000	 65.2112
9.056000	 65.1788
9.140000	 64.6457
9.224000	 64.5039
9.308000	 64.5393
9.391999	 64.7409
9.475999	 64.8737
9.560000	 65.2499
9.644000	 64.8269
9.728000	 64.8704
9.812000	 64.7087
9.896000	 64.1097
9.980000	 64.4248
10.064	64.6702
10.148	64.8969
10.232	64.8762
10.316	64.8122
10.4	64.7709
10.484	64.6463
10.568	64.807
10.652	64.5947
10.736	64.1975
10.82	64.9013
10.904	64.3105
10.988	63.7736
11.072	64.4373
11.156	64.1396
11.24	64.4711
11.324	64.8435
11.408	64.9343
11.492	65.0423
11.576	64.8849
11.66	64.6049
11.744	64.5503
11.828	64.5207
11.912	64.3433
11.996	64.1273
12.08	64.3018
12.164	64.2557
12.248	64.1169
12.332	64.1951
12.416	64.1851
12.5	64.2455
12.584	64.1058
12.668	63.6823
12.752	63.558
12.836	63.6015
12.92	63.5113
13.004	63.7239
13.088	64.0269
13.172	64.1747
13.256	64.2974
13.34	64.2291
13.424	63.9726
13.508	63.5181
13.592	63.2849
13.676	63.3023
13.76	63.3439
13.844	63.4936
13.928	63.7062
14.012	63.8029
14.096	63.8516
14.18	63.7649
14.264	63.6249
14.348	63.4543
14.432	63.1783
14.516	63.1501
14.6	63.4703
14.684	63.6373
14.768	63.4798
14.852	63.2554
14.936	63.0384
15.02	62.7808
15.104	62.6441
15.188	62.7408
15.272	62.9016
15.356	63.0601
15.44	63.1806
15.524	63.1
15.608	62.8898
15.692	62.7713
15.776	62.7988
15.86	62.9054
15.944	63.0049
16.028	63.045
16.112	62.9938
16.196	62.8342
16.28	62.7534
16.364	62.9594
16.448	63.187
16.532	63.0901
16.616	62.9125
16.7	62.9687
16.784	63.0017
16.868	62.7537
16.952	62.4459
17.036	62.3528
17.12	62.4381
17.204	62.5471
17.288	62.6594
17.372	62.7837
17.456	62.8039
17.54	62.6114
17.624	62.3015
17.708	62.0597
17.792	61.9487
17.876	61.9523
17.96	62.0331
18.044	62.0829
18.128	61.9994
18.212	61.8208
18.296	61.6726
18.38	61.6184
18.464	61.6629
18.548	61.8173
18.632	62.0527
18.716	62.262
18.8	62.3302
18.884	62.1921
18.968	61.8441
19.052	61.3777
19.136	60.9762
19.22	60.8038
19.304	60.8576
19.388	60.9777
19.472	61.0118
19.556	60.9353
19.64	60.8049
19.724	60.659
19.808	60.5023
19.892	60.371
19.976	60.3542
20.06	60.5308
20.144	60.8793
20.228	61.2759
20.312	61.5717
20.396	61.6743
20.48	61.5564
20.564	61.2418
20.648	60.7997
20.732	60.3474
20.816	59.9988
20.9	59.8053
20.984	59.7172
21.068	59.6202
21.152	59.4135
21.236	59.0651
21.32	58.62
21.404	58.1659
21.488	57.8015
21.572	57.6005
21.656	57.5899
21.74	57.7474
21.824	58.0354
21.908	58.4362
21.992	58.9453
22.076	59.5315
22.16	60.0978
22.244	60.4947
22.328	60.6037
22.412	60.3947
22.496	59.9629
22.58	59.4582
22.664	59.0073
22.748	58.6712
22.832	58.4547
22.916	58.3488
23	58.3462
23.084	58.4229
23.168	58.5233
23.252	58.5638
23.336	58.4425
23.42	58.1214
23.504	57.6221
23.588	57.0586
23.672	56.6021
23.756	56.4081
23.84	56.5559
23.924	56.9884
24.008	57.5674
24.092	58.1534
24.176	58.6294
24.26	58.9243
24.344	58.9918
24.428	58.812
24.512	58.4113
24.596	57.8495
24.68	57.1067
24.764	56.0214
24.848	54.5479
24.932	52.6014
25.016	50.1328
25.1	47.3979
25.184	44.8678
25.268	42.9523
25.352	41.7177
25.436	40.9158
25.52	40.1778
25.604	39.2616
25.688	37.9858
25.772	36.1877
25.856	33.7279
25.94	30.9238
26.024	28.4343
26.108	27.0081
26.192	26.4561
26.276	26.1451
26.36	25.0425
26.444	24.1814
26.528	26.6907
26.612	37.2793
26.696	58.9248
26.78	90.5467
26.864	125.951
26.948	156.227
27.028	173.319

File: C-4040-8_t89_cm-1.asc
PE IR       SPECTRUM    SPECTRUM    ASCII       PEDS        1.60
  -1
C-9DE0~1.ASC
17/03/27
21:51:24.00
17/03/27
21:51:24.00
tln
$C-4040-8_t0089$<tbV0>[13.0,7.8,8.0,0.0,27,1,0]
370
64

2002,4.07
MIRTGS : RIGHTBACK : INTERNAL 2
MIR : ON : INTERNAL 2
OPTKBR

0.200000
8
8.000000
FILLER
RATIO
SPECTRUM
UNLOCKED 256

DOUBLE
64
COMBINED
1
0
0

1.000000
RATIO

1
0
TRUE
51149
0
LEFT NOT FITTED RIGHT NOT FITTED 0
NONE
NONE
15600
12
4.427000
51148
TRUE
1 0 8 72 0 0 0 0

15798

#HDR
-1
-1
#GR
CM-1
%T
2.38419e-05
0.0
5000
-1.000000
4631
8
173.319
24.2702
#DATA
5000	64.8829
4984	65.1941
4968	65.7302
4952	65.3676
4936	64.6605
4920	64.9222
4904	65.2645
4888	65.8897
4872	65.3024
4856	64.7674
4840	64.536
4824	64.9385
4808	65.2589
4792	64.8337
4776	65.1408
4760	65.0059
4744	65.3794
4728	64.7264
4712	64.8809
4696	65.284
4680	65.2448
4664	65.7001
4648	65.5811
4632	65.0053
4616	65.4723
4600	64.565
4584	65.069
4568	64.4835
4552	64.8456
4536	63.5022
4520	64.7492
4504	64.2706
4488	64.1883
4472	64.3858
4456	64.3068
4440	64.0534
4424	64.6184
4408	63.7461
4392	73.2851
4376	66.0935
4360	64.7019
4344	64.0233
4328	64.7357
4312	64.3442
4296	64.095
4280	64.5154
4264	64.6501
4248	64.2466
4232	64.3697
4216	64.8188
4200	64.8717
4184	64.4389
4168	64.9045
4152	65.3987
4136	65.2802
4120	65.0481
4104	65.1713
4088	64.9708
4072	64.8464
4056	65.0651
4040	65.155
4024	65.314
4008	65.1144
3992	65.0951
3976	65.1477
3960	65.2331
3944	65.0193
3928	64.9256
3912	65.0354
3896	64.9566
3880	65.0924
3864	65.2594
3848	65.1905
3832	64.9265
3816	65.2731
3800	65.03
3784	64.8809
3768	65.3982
3752	65.3338
3736	65.2042
3720	65.2733
3704	65.2951
3688	65.2562
3672	65.3037
3656	65.0202
3640	65.151
3624	65.429
3608	65.2061
3592	65.2474
3576	65.341
3560	65.6459
3544	64.9975
3528	65.28
3512	65.0489
3496	65.1203
3480	65.0946
3464	65.2998
3448	64.8828
3432	65.3313
3416	65.1091
3400	65.1764
3384	65.2134
3368	65.181
3352	65.1505
3336	65.017
3320	65.1861
3304	65.0706
3288	65.1141
3272	65.2579
3256	65.0883
3240	64.9773
3224	65.1627
3208	65.0551
3192	64.9446
3176	65.2774
3160	65.3547
3144	64.9861
3128	65.13
3112	65.2639
3096	65.2889
3080	65.2055
3064	65.1303
3048	65.2689
3032	65.1376
3016	65.119
3000	65.0518
2984	64.9107
2968	65.0574
2952	64.9572
2936	65.2429
2920	64.8791
2904	65.1979
2888	65.2223
2872	65.2166
2856	65.1069
2840	65.0218
2824	65.1241
2808	65.2264
2792	65.3781
2776	65.1574
2760	65.2242
2744	65.3431
2728	65.1429
2712	65.1612
2696	65.1025
2680	65.1082
2664	65.3185
2648	65.178
2632	65.1572
2616	65.2292
2600	65.2132
2584	65.2662
2568	65.2493
2552	65.2677
2536	65.1763
2520	65.2802
2504	65.1824
2488	65.3216
2472	65.2444
2456	65.1234
2440	65.3091
2424	65.2003
2408	65.25
2392	65.2067
2376	65.3475
2360	65.3287
2344	65.2066
2328	65.3613
2312	65.3589
2296	65.2052
2280	65.3087
2264	65.3946
2248	65.3007
2232	65.2129
2216	65.3832
2200	65.2552
2184	65.3372
2168	65.4254
2152	65.5333
2136	65.5052
2120	65.289
2104	65.3614
2088	65.4224
2072	65.9018
2056	65.1297
2040	65.2806
2024	65.2433
2008	65.4307
1992	65.47
1976	65.4651
1960	65.2991
1944	65.2565
1928	65.2629
1912	65.2028
1896	65.2447
1880	65.3773
1864	65.3336
1848	65.3343
1832	65.3254
1816	65.2943
1800	65.2437
1784	65.3085
1768	65.2804
1752	65.033
1736	64.8698
1720	65.2115
1704	65.2042
1688	65.1697
1672	65.2356
1656	65.1405
1640	65.2562
1624	65.1937
1608	65.0175
1592	65.1087
1576	64.936
1560	64.9337
1544	65.1518
1528	65.0947
1512	64.9495
1496	65.1693
1480	65.1622
1464	65.1666
1448	65.2622
1432	64.9537
1416	65.098
1400	65.1604
1384	65.1085
1368	65.0523
1352	65.1768
1336	64.9267
1320	65.0473
1304	64.9929
1288	65.0158
1272	64.9454
1256	64.9259
1240	64.9233
1224	64.9794
1208	64.8994
1192	64.9557
1176	64.896
1160	64.9537
1144	64.9339
1128	64.8414
1112	65.1875
1096	64.6885
1080	64.4437
1064	64.7599
1048	65.3015
1032	64.7969
1016	64.3884
1000	64.4887
984	 64.918
968	 64.8346
952	 64.715
936	 64.338
920	 64.6738
904	 64.3722
888	 64.6832
872	 65.0486
856	 64.574
840	 64.3708
824	 64.3131
808	 64.1917
792	 63.8866
776	 63.5424
760	 64.1482
744	 63.8885
728	 63.3287
712	 63.8292
696	 63.3923
680	 63.6187
664	 62.6854
648	 63.1761
632	 62.8542
616	 62.7689
600	 62.9246
584	 62.4425
568	 62.3687
552	 62.0198
536	 62.123
520	 60.8001
504	 60.4432
488	 61.5231
472	 59.2868
456	 58.5584
440	 58.7427
424	 57.0781
408	 58.424
392	 40.2701
376	 34.3725
370	 173.319

File: C-4040-8_t90.asc
PE IR       SPECTRUM    SPECTRUM    ASCII       PEDS        1.60
  -1
C-A94A~1.ASC
17/03/27
21:56:01.00
17/03/27
21:56:27.00
tln
$C-4040-8_t0090$<tbV0>[10.4,7.8,8.0,0.0,27,1,0]
27.028
64

2002,4.07
MIRTGS : RIGHTBACK : INTERNAL 2
MIR : ON : INTERNAL 2
OPTKBR

0.200000
8
8.000000
FILLER
RATIO
SPECTRUM
UNLOCKED 256

DOUBLE
64
COMBINED
1
0
0

0.002000
RATIO

1
0
TRUE
51149
0
LEFT NOT FITTED RIGHT NOT FITTED 0
NONE
NONE
15600
12
4.427000
51148
TRUE
1 0 8 72 0 0 0 0

15798

#HDR
-1
-1
#GR
µM
%T
2.38419e-05
0.0
2.000000
0.002000
12515
8
163.401
53.4166
#DATA
2.000000	 65.1561
2.084000	 65.3417
2.168000	 65.2341
2.252000	 62.9023
2.336000	 63.8679
2.420000	 65.2865
2.504000	 65.4102
2.588000	 65.0357
2.672000	 65.2705
2.756000	 65.3626
2.840000	 65.4058
2.924000	 65.2556
3.008000	 65.2644
3.092000	 65.2209
3.176000	 65.4215
3.260000	 65.2539
3.344000	 65.3436
3.428000	 64.9596
3.512000	 64.9118
3.596000	 65.4215
3.680000	 65.4352
3.764000	 65.4294
3.848000	 65.1823
3.932000	 65.3083
4.016000	 65.3418
4.100000	 65.2057
4.184000	 65.3036
4.268000	 65.3102
4.352000	 65.4712
4.436000	 65.3348
4.520000	 65.3354
4.604000	 65.4353
4.688000	 65.4167
4.772000	 65.3367
4.856000	 65.2168
4.940000	 65.3794
5.024000	 65.3289
5.108000	 65.355
5.192000	 65.3602
5.276000	 65.4329
5.359999	 65.2975
5.444000	 65.4561
5.528000	 65.435
5.612000	 65.3131
5.696000	 65.2439
5.780000	 65.0379
5.864000	 65.3327
5.948000	 65.3158
6.032000	 65.3313
6.116000	 65.2166
6.200000	 65.2589
6.284000	 65.2672
6.368000	 65.0982
6.452000	 65.1384
6.536000	 65.2123
6.620000	 65.1311
6.704000	 65.184
6.788000	 65.1975
6.872000	 65.1735
6.956000	 65.2121
7.040000	 65.309
7.124000	 65.3412
7.208000	 65.1486
7.292000	 65.0482
7.376000	 65.2119
7.460000	 65.1049
7.544000	 65.2165
7.628000	 64.9718
7.712000	 65.1872
7.796000	 65.0486
7.880000	 64.9347
7.964000	 65.0672
8.048000	 65.0285
8.132000	 65.0224
8.216000	 65.1359
8.300000	 65.0664
8.384000	 65.0303
8.468000	 65.0116
8.552000	 65.0339
8.635999	 64.9771
8.719999	 64.8988
8.804000	 64.9385
8.888000	 64.8498
8.972000	 65.0098
9.056000	 64.8484
9.140000	 64.5425
9.224000	 64.5623
9.308000	 64.8717
9.391999	 64.8444
9.475999	 64.9949
9.560000	 65.1399
9.644000	 64.9012
9.728000	 65.1366
9.812000	 64.7177
9.896000	 64.6405
9.980000	 64.6427
10.064	64.835
10.148	64.7221
10.232	64.8198
10.316	64.9526
10.4	64.8704
10.484	64.7822
10.568	65.1546
10.652	64.4698
10.736	64.0945
10.82	64.405
10.904	64.1479
10.988	64.4774
11.072	64.0775
11.156	64.2487
11.24	64.4535
11.324	64.1745
11.408	64.3386
11.492	64.4062
11.576	64.5527
11.66	64.6857
11.744	64.5747
11.828	64.2538
11.912	64.3698
11.996	64.4704
12.08	64.3926
12.164	64.3665
12.248	64.4702
12.332	64.3537
12.416	64.4007
12.5	64.2835
12.584	64.2871
12.668	63.8996
12.752	63.6244
12.836	63.7422
12.92	63.9673
13.004	63.9544
13.088	64.1603
13.172	64.3284
13.256	64.1454
13.34	63.9937
13.424	63.8239
13.508	63.2869
13.592	63.1525
13.676	63.1601
13.76	63.355
13.844	63.7678
13.928	63.7287
14.012	63.372
14.096	63.2016
14.18	63.2174
14.264	63.2617
14.348	63.1754
14.432	63.2133
14.516	63.4382
14.6	63.441
14.684	63.2641
14.768	63.1474
14.852	63.0867
14.936	63.0943
15.02	63.1798
15.104	63.1304
15.188	62.9291
15.272	62.9159
15.356	63.1091
15.44	63.0999
15.524	62.7981
15.608	62.5916
15.692	62.5712
15.776	62.4751
15.86	62.3376
15.944	62.3685
16.028	62.5208
16.112	62.6209
16.196	62.5909
16.28	62.3994
16.364	62.1027
16.448	62.0075
16.532	62.3514
16.616	62.8327
16.7	62.9491
16.784	62.6945
16.868	62.4427
16.952	62.3474
17.036	62.2681
17.12	62.1398
17.204	62.0977
17.288	62.2173
17.372	62.3503
17.456	62.2979
17.54	62.0679
17.624	61.8741
17.708	61.8414
17.792	61.862
17.876	61.8128
17.96	61.7815
18.044	61.9296
18.128	62.2142
18.212	62.3559
18.296	62.1308
18.38	61.6536
18.464	61.2943
18.548	61.2789
18.632	61.4439
18.716	61.4758
18.8	61.2957
18.884	61.0746
18.968	60.9607
19.052	60.9591
19.136	61.0281
19.22	61.1525
19.304	61.3051
19.388	61.3998
19.472	61.3561
19.556	61.1689
19.64	60.9067
19.724	60.6544
19.808	60.4775
19.892	60.4246
19.976	60.5218
20.06	60.7429
20.144	60.9716
20.228	61.0425
20.312	60.8689
20.396	60.5433
20.48	60.2881
20.564	60.2825
20.648	60.5107
20.732	60.7838
20.816	60.9097
20.9	60.8346
20.984	60.6414
21.068	60.4419
21.152	60.2856
21.236	60.1587
21.32	60.0385
21.404	59.9293
21.488	59.8702
21.572	59.9014
21.656	60.0414
21.74	60.2733
21.824	60.5277
21.908	60.6903
21.992	60.6544
22.076	60.3849
22.16	59.9585
22.244	59.5388
22.328	59.2808
22.412	59.2455
22.496	59.3515
22.58	59.4292
22.664	59.3158
22.748	58.9504
22.832	58.4116
22.916	57.8698
23	57.5027
23.084	57.4101
23.168	57.558
23.252	57.8119
23.336	58.0275
23.42	58.1416
23.504	58.1715
23.588	58.2127
23.672	58.3677
23.756	58.6517
23.84	58.9439
23.924	59.0731
24.008	58.9276
24.092	58.5138
24.176	57.9494
24.26	57.3667
24.344	56.842
24.428	56.4073
24.512	56.1528
24.596	56.3192
24.68	57.1527
24.764	58.666
24.848	60.7147
24.932	62.7289
25.016	63.8562
25.1	63.3324
25.184	61.0545
25.268	57.7919
25.352	54.8288
25.436	53.439
25.52	54.2469
25.604	57.0414
25.688	61.0432
25.772	65.2068
25.856	68.5824
25.94	70.3486
26.024	69.9316
26.108	67.2399
26.192	63.0465
26.276	59.153
26.36	58.0849
26.444	62.5011
26.528	74.01
26.612	92.5249
26.696	115.543
26.78	138.485
26.864	155.875
26.948	163.299
27.028	159.689

File: C-4040-8_t90_cm-1.asc
PE IR       SPECTRUM    SPECTRUM    ASCII       PEDS        1.60
  -1
C-1E61~1.ASC
17/03/27
21:56:01.00
17/03/27
21:56:01.00
tln
$C-4040-8_t0090$<tbV0>[10.4,7.8,8.0,0.0,27,1,0]
370
64

2002,4.07
MIRTGS : RIGHTBACK : INTERNAL 2
MIR : ON : INTERNAL 2
OPTKBR

0.200000
8
8.000000
FILLER
RATIO
SPECTRUM
UNLOCKED 256

DOUBLE
64
COMBINED
1
0
0

1.000000
RATIO

1
0
TRUE
51149
0
LEFT NOT FITTED RIGHT NOT FITTED 0
NONE
NONE
15600
12
4.427000
51148
TRUE
1 0 8 72 0 0 0 0

15798

#HDR
-1
-1
#GR
CM-1
%T
2.38419e-05
0.0
5000
-1.000000
4631
8
163.39
53.4172
#DATA
5000	65.1561
4984	65.1325
4968	64.6783
4952	64.5254
4936	64.7714
4920	64.4968
4904	64.8093
4888	65.0825
4872	64.9821
4856	64.9666
4840	64.5474
4824	65.0356
4808	65.0299
4792	65.5371
4776	65.1126
4760	64.8884
4744	64.8816
4728	65.2718
4712	65.3814
4696	65.634
4680	65.3862
4664	65.2326
4648	65.8914
4632	65.5552
4616	65.3317
4600	65.0287
4584	65.5303
4568	64.7159
4552	65.0033
4536	63.8459
4520	64.2269
4504	64.1952
4488	64.0229
4472	63.801
4456	63.2924
4440	62.8753
4424	63.2679
4408	62.9388
4392	69.6137
4376	67.9836
4360	63.4318
4344	63.8202
4328	63.7635
4312	63.2997
4296	63.461
4280	63.9243
4264	64.4579
4248	64.0192
4232	64.4565
4216	64.648
4200	64.6033
4184	64.9365
4168	64.7741
4152	64.9563
4136	65.4826
4120	65.364
4104	65.6059
4088	65.26
4072	65.1623
4056	65.482
4040	65.338
4024	65.5922
4008	65.4943
3992	65.4038
3976	65.3629
3960	65.2077
3944	65.1995
3928	65.032
3912	65.1133
3896	64.9582
3880	65.2617
3864	65.0352
3848	64.7595
3832	64.8543
3816	64.9072
3800	65.0369
3784	65.3586
3768	65.1758
3752	65.1401
3736	65.2091
3720	65.2858
3704	65.3322
3688	65.4886
3672	65.3512
3656	65.293
3640	65.4334
3624	65.4248
3608	65.1247
3592	65.4037
3576	65.2318
3560	65.4821
3544	65.275
3528	65.4027
3512	65.3615
3496	65.2097
3480	65.1786
3464	64.934
3448	65.342
3432	65.4942
3416	65.2524
3400	65.159
3384	65.0854
3368	65.0519
3352	65.2151
3336	65.2695
3320	65.1698
3304	65.1743
3288	65.3316
3272	65.2865
3256	65.3116
3240	65.2276
3224	65.401
3208	65.3579
3192	65.3881
3176	65.6314
3160	65.5124
3144	65.4775
3128	65.7872
3112	65.1591
3096	65.383
3080	65.2413
3064	65.2256
3048	65.3149
3032	65.4155
3016	65.3741
3000	65.3714
2984	65.2432
2968	65.2054
2952	65.0905
2936	65.1571
2920	64.9392
2904	65.1625
2888	65.1965
2872	65.3011
2856	65.1671
2840	65.2312
2824	65.2774
2808	65.3184
2792	65.5249
2776	65.3362
2760	65.3043
2744	65.3844
2728	65.3223
2712	65.3772
2696	65.3128
2680	65.3321
2664	65.6245
2648	65.2769
2632	65.33
2616	65.3239
2600	65.1565
2584	65.4167
2568	65.3958
2552	65.3905
2536	65.2468
2520	65.2897
2504	65.1271
2488	65.385
2472	65.5646
2456	65.3467
2440	65.1943
2424	64.8229
2408	65.2639
2392	65.3472
2376	65.3693
2360	65.4426
2344	65.3138
2328	65.3858
2312	65.3749
2296	65.4793
2280	65.4954
2264	65.457
2248	65.4418
2232	65.3707
2216	65.3567
2200	65.3875
2184	65.4842
2168	65.4918
2152	65.5258
2136	65.3646
2120	65.3134
2104	65.4152
2088	65.2462
2072	65.9721
2056	65.0842
2040	65.4587
2024	65.3737
2008	65.4146
1992	65.337
1976	65.2859
1960	65.3785
1944	65.3514
1928	65.3102
1912	65.3093
1896	65.4299
1880	65.4204
1864	65.306
1848	65.4337
1832	65.491
1816	65.4766
1800	65.4447
1784	65.2702
1768	65.387
1752	65.2511
1736	65.1653
1720	65.2705
1704	65.2751
1688	65.3798
1672	65.3344
1656	65.3098
1640	65.267
1624	65.2097
1608	65.1908
1592	65.2715
1576	65.2822
1560	65.1747
1544	65.2818
1528	65.2181
1512	65.1657
1496	65.311
1480	65.2337
1464	65.2672
1448	65.3026
1432	65.1259
1416	65.2985
1400	65.3031
1384	65.1711
1368	65.0594
1352	65.1685
1336	65.0721
1320	65.2217
1304	65.0298
1288	65.1394
1272	64.9889
1256	65.0696
1240	65.0067
1224	65.0773
1208	65.1046
1192	65.0266
1176	65.0367
1160	64.9585
1144	64.9091
1128	64.8291
1112	64.8689
1096	64.7027
1080	64.8046
1064	64.8469
1048	65.115
1032	64.9829
1016	64.5935
1000	64.7299
984	 64.7562
968	 64.9863
952	 64.9376
936	 64.1712
920	 64.279
904	 64.1709
888	 64.3714
872	 64.3983
856	 64.6942
840	 64.3547
824	 64.3215
808	 64.3855
792	 64.1471
776	 63.8968
760	 64.3273
744	 63.7265
728	 63.2555
712	 63.274
696	 63.1582
680	 63.2246
664	 63.1864
648	 63.117
632	 62.3868
616	 62.5262
600	 62.9617
584	 62.1355
568	 61.9031
552	 62.1746
536	 61.4777
520	 61.1717
504	 60.4396
488	 60.2701
472	 60.2319
456	 60.7035
440	 59.0619
424	 58.2095
408	 56.1548
392	 54.0424
376	 88.4985
370	 159.689

File: C-4040-8_t91.asc
PE IR       SPECTRUM    SPECTRUM    ASCII       PEDS        1.60
  -1
C-A94E~1.ASC
17/03/27
22:00:38.00
17/03/27
22:01:04.00
tln
$C-4040-8_t0091$<tbV0>[7.8,7.8,8.0,0.0,27,1,0]
27.028
64

2002,4.07
MIRTGS : RIGHTBACK : INTERNAL 2
MIR : ON : INTERNAL 2
OPTKBR

0.200000
8
8.000000
FILLER
RATIO
SPECTRUM
UNLOCKED 256

DOUBLE
64
COMBINED
1
0
0

0.002000
RATIO

1
0
TRUE
51149
0
LEFT NOT FITTED RIGHT NOT FITTED 0
NONE
NONE
15600
12
4.427000
51148
TRUE
1 0 8 72 0 0 0 0

15798

#HDR
-1
-1
#GR
µM
%T
2.38419e-05
0.0
2.000000
0.002000
12515
8
123.752
45.3768
#DATA
2.000000	 65.3317
2.084000	 65.086
2.168000	 65.1782
2.252000	 64.7395
2.336000	 65.0299
2.420000	 65.117
2.504000	 65.1288
2.588000	 65.1954
2.672000	 65.1813
2.756000	 65.1998
2.840000	 65.1904
2.924000	 65.2624
3.008000	 65.2045
3.092000	 65.2649
3.176000	 65.3144
3.260000	 65.2709
3.344000	 65.243
3.428000	 64.8604
3.512000	 65.1143
3.596000	 65.3862
3.680000	 65.2743
3.764000	 65.3469
3.848000	 65.1452
3.932000	 65.4242
4.016000	 65.6112
4.100000	 65.1748
4.184000	 65.2822
4.268000	 65.2822
4.352000	 65.2186
4.436000	 65.2939
4.520000	 65.3276
4.604000	 65.3253
4.688000	 65.3201
4.772000	 65.3364
4.856000	 65.2882
4.940000	 65.272
5.024000	 65.3867
5.108000	 65.3866
5.192000	 65.4072
5.276000	 65.3248
5.359999	 65.3505
5.444000	 65.4804
5.528000	 65.2736
5.612000	 65.2516
5.696000	 65.3899
5.780000	 65.1937
5.864000	 65.358
5.948000	 65.2257
6.032000	 65.2516
6.116000	 65.3247
6.200000	 65.1495
6.284000	 65.2629
6.368000	 64.9527
6.452000	 65.225
6.536000	 65.1479
6.620000	 65.1382
6.704000	 65.2374
6.788000	 65.1365
6.872000	 65.1589
6.956000	 65.1804
7.040000	 65.1057
7.124000	 65.2622
7.208000	 65.234
7.292000	 65.2107
7.376000	 65.2195
7.460000	 65.1046
7.544000	 65.2287
7.628000	 64.9549
7.712000	 65.1238
7.796000	 65.1427
7.880000	 64.9075
7.964000	 65.0741
8.048000	 65.0403
8.132000	 65.0465
8.216000	 65.1307
8.300000	 65.0447
8.384000	 65.0384
8.468000	 64.823
8.552000	 64.9383
8.635999	 65.0476
8.719999	 64.8081
8.804000	 64.8008
8.888000	 64.8795
8.972000	 64.8962
9.056000	 64.8541
9.140000	 64.5974
9.224000	 64.6073
9.308000	 64.7316
9.391999	 64.8565
9.475999	 65.0011
9.560000	 65.3521
9.644000	 64.7099
9.728000	 64.5177
9.812000	 64.5608
9.896000	 64.4534
9.980000	 64.6849
10.064	64.7139
10.148	64.6789
10.232	64.7378
10.316	64.9916
10.4	64.8547
10.484	64.5255
10.568	64.6468
10.652	64.4673
10.736	64.79
10.82	65.4289
10.904	65.2067
10.988	65.345
11.072	65.0127
11.156	64.5375
11.24	64.248
11.324	64.2929
11.408	64.4578
11.492	64.5546
11.576	64.3325
11.66	64.4008
11.744	64.6386
11.828	64.6389
11.912	64.6171
11.996	64.5442
12.08	64.4586
12.164	64.1533
12.248	64.1992
12.332	64.1282
12.416	63.9934
12.5	64.0354
12.584	64.2069
12.668	64.067
12.752	63.9233
12.836	63.8441
12.92	63.9422
13.004	63.9982
13.088	64.0879
13.172	64.0421
13.256	63.6703
13.34	63.5515
13.424	63.5785
13.508	63.1842
13.592	63.098
13.676	63.3791
13.76	63.4274
13.844	63.4354
13.928	63.4585
14.012	63.2905
14.096	63.2783
14.18	63.3883
14.264	63.4341
14.348	63.3159
14.432	63.1782
14.516	63.2408
14.6	63.3945
14.684	63.3896
14.768	63.2674
14.852	63.1293
14.936	62.9449
15.02	62.8827
15.104	63.01
15.188	63.1003
15.272	63.151
15.356	63.2574
15.44	63.2819
15.524	63.1314
15.608	62.9039
15.692	62.7042
15.776	62.5766
15.86	62.5751
15.944	62.6868
16.028	62.7833
16.112	62.8003
16.196	62.7764
16.28	62.7455
16.364	62.7198
16.448	62.6317
16.532	62.4122
16.616	62.2101
16.7	62.2198
16.784	62.3714
16.868	62.5092
16.952	62.5839
17.036	62.5464
17.12	62.3655
17.204	62.1712
17.288	62.1527
17.372	62.3134
17.456	62.4545
17.54	62.3999
17.624	62.2116
17.708	62.1096
17.792	62.2033
17.876	62.4072
17.96	62.5812
18.044	62.6673
18.128	62.6854
18.212	62.6442
18.296	62.5193
18.38	62.3118
18.464	62.1035
18.548	61.983
18.632	61.9269
18.716	61.8387
18.8	61.6786
18.884	61.4715
18.968	61.2331
19.052	60.9836
19.136	60.7996
19.22	60.7627
19.304	60.8466
19.388	60.9351
19.472	60.9641
19.556	60.9773
19.64	61.0274
19.724	61.0854
19.808	61.0867
19.892	61.0258
19.976	60.9731
20.06	60.9938
20.144	61.0779
20.228	61.169
20.312	61.2377
20.396	61.3047
20.48	61.3926
20.564	61.4734
20.648	61.4783
20.732	61.3687
20.816	61.1921
20.9	61.0473
20.984	60.9803
21.068	60.9313
21.152	60.7934
21.236	60.5132
21.32	60.1384
21.404	59.7759
21.488	59.5108
21.572	59.364
21.656	59.3084
21.74	59.3043
21.824	59.3279
21.908	59.3736
21.992	59.4413
22.076	59.5251
22.16	59.6065
22.244	59.651
22.328	59.6162
22.412	59.4796
22.496	59.2629
22.58	59.0346
22.664	58.8839
22.748	58.8746
22.832	59.0029
22.916	59.2006
23	59.3594
23.084	59.4173
23.168	59.372
23.252	59.274
23.336	59.2112
23.42	59.2443
23.504	59.3308
23.588	59.3617
23.672	59.2351
23.756	58.8866
23.84	58.3248
23.924	57.6443
24.008	57.0021
24.092	56.5584
24.176	56.389
24.26	56.4346
24.344	56.5723
24.428	56.7693
24.512	57.1756
24.596	58.1715
24.68	60.0897
24.764	62.8515
24.848	65.9619
24.932	68.3934
25.016	68.9829
25.1	66.967
25.184	62.4138
25.268	56.4113
25.352	50.7146
25.436	46.854
25.52	45.4005
25.604	45.9301
25.688	47.4632
25.772	49.0298
25.856	50.1273
25.94	50.5877
26.024	50.4925
26.108	50.0273
26.192	50.0589
26.276	51.9556
26.36	57.1995
26.444	66.5299
26.528	79.4156
26.612	93.968
26.696	107.548
26.78	117.606
26.864	122.803
26.948	123.675
27.028	122.695