Folder: Masteroppgave/Bakgrunnsmateriale/MATLAB/FTIR/ftir_data/subBb/Mapping_36 (part 11)

File: C-4040-8_t22_cm-1.asc
PE IR       SPECTRUM    SPECTRUM    ASCII       PEDS        1.60
  -1
C-9A64~1.ASC
17/05/02
12:41:22.00
17/05/02
12:41:22.00
tln
$C-4040-8_t0022$<tbV0>[-2.5,2.0,8.0,0.0,22,1,0]
370
64

2002,4.07
MIRTGS : RIGHTBACK : INTERNAL 2
MIR : ON : INTERNAL 2
OPTKBR

0.200000
8
8.000000
FILLER
RATIO
SPECTRUM
UNLOCKED 256

DOUBLE
64
COMBINED
1
0
0

1.000000
RATIO

1
0
TRUE
51149
0
LEFT NOT FITTED RIGHT NOT FITTED 0
NONE
NONE
15600
12
4.427000
51148
TRUE
1 0 8 72 0 0 0 0

15798

#HDR
-1
-1
#GR
CM-1
%T
2.38419e-05
0.0
7800
-1.000000
7431
8
83.1801
47.4951
#DATA
7800	73.2663
7775	76.7019
7750	71.2247
7725	68.4432
7700	70.6342
7675	67.3241
7650	62.7134
7625	64.9908
7600	64.2376
7575	65.5673
7550	65.6285
7525	64.7243
7500	68.3645
7475	65.9077
7450	61.9054
7425	64.629
7400	64.6745
7375	67.1672
7350	66.834
7325	65.2756
7300	68.7467
7275	66.7204
7250	68.7558
7225	66.4945
7200	64.4425
7175	62.1907
7150	62.594
7125	64.9784
7100	65.2824
7075	65.9716
7050	62.1968
7025	68.171
7000	63.1436
6975	65.1228
6950	62.9228
6925	64.8393
6900	65.1061
6875	65.6218
6850	64.2817
6825	63.7219
6800	65.3764
6775	62.0615
6750	63.7282
6725	61.9361
6700	63.0589
6675	63.2243
6650	63.2941
6625	65.3798
6600	63.8414
6575	63.5713
6550	65.1861
6525	65.016
6500	65.8655
6475	64.5672
6450	64.9567
6425	62.9595
6400	66.6587
6375	64.7964
6350	65.8899
6325	66.0755
6300	65.3367
6275	62.8938
6250	64.7498
6225	64.9564
6200	64.8305
6175	65.6916
6150	65.9863
6125	65.2851
6100	64.0004
6075	65.4782
6050	65.4822
6025	64.7322
6000	66.2662
5975	65.3383
5950	66.2459
5925	64.9629
5900	64.9764
5875	65.1572
5850	65.4027
5825	65.0517
5800	65.0893
5775	64.6622
5750	65.5148
5725	65.0997
5700	64.9212
5675	65.217
5650	65.0368
5625	65.9875
5600	65.2397
5575	64.9807
5550	64.3298
5525	65.4634
5500	64.7871
5475	64.8702
5450	65.5951
5425	64.279
5400	65.32
5375	65.3261
5350	64.6232
5325	64.8946
5300	64.3306
5275	63.14
5250	67.9776
5225	65.7275
5200	64.6544
5175	64.6183
5150	65.3288
5125	65.0576
5100	65.0007
5075	64.9046
5050	64.9903
5025	64.6268
5000	65.3174
4975	64.8252
4950	64.6715
4925	64.7595
4900	65.0911
4875	64.8744
4850	65.0196
4825	65.0827
4800	65.0096
4775	65.2133
4750	65.0958
4725	65.5116
4700	65.3285
4675	64.8356
4650	65.5201
4625	65.1208
4600	65.0701
4575	64.8895
4550	65.09
4525	64.4968
4500	64.73
4475	64.7687
4450	64.9837
4425	64.5236
4400	64.8322
4375	64.6273
4350	65.3311
4325	64.8605
4300	65.0888
4275	64.9039
4250	64.8192
4225	65.0223
4200	64.949
4175	65.2624
4150	65.1999
4125	64.602
4100	65.2916
4075	64.5522
4050	65.0992
4025	65.3544
4000	65.1979
3975	65.1647
3950	65.1263
3925	65.372
3900	65.117
3875	65.1971
3850	65.2498
3825	65.4532
3800	65.0465
3775	65.2112
3750	65.52
3725	65.1138
3700	65.3087
3675	65.1998
3650	65.3468
3625	65.2855
3600	65.2628
3575	65.3212
3550	65.3521
3525	65.2591
3500	65.0857
3475	65.231
3450	65.372
3425	65.1168
3400	65.1316
3375	65.1437
3350	65.3797
3325	65.1792
3300	65.1573
3275	65.1506
3250	65.2451
3225	65.1431
3200	65.2133
3175	65.321
3150	65.1805
3125	65.4282
3100	65.3919
3075	65.3035
3050	65.1096
3025	65.1998
3000	65.1303
2975	65.1631
2950	65.0223
2925	64.9762
2900	65.0563
2875	65.1246
2850	64.9563
2825	65.3071
2800	65.2109
2775	65.2227
2750	65.2838
2725	65.2495
2700	65.3738
2675	65.2484
2650	65.3261
2625	65.2927
2600	65.4122
2575	65.3978
2550	65.2588
2525	65.2973
2500	65.307
2475	65.3258
2450	65.3597
2425	65.2989
2400	65.2795
2375	65.35
2350	65.4105
2325	65.3616
2300	65.3743
2275	65.2946
2250	65.3554
2225	65.3593
2200	65.2752
2175	65.3765
2150	65.2945
2125	65.3013
2100	65.1861
2075	65.3507
2050	65.3896
2025	65.3762
2000	65.3303
1975	65.3957
1950	65.3053
1925	65.2939
1900	65.2477
1875	65.3282
1850	65.301
1825	65.2133
1800	65.2303
1775	65.3531
1750	65.1794
1725	65.0399
1700	65.22
1675	65.1595
1650	65.348
1625	65.1403
1600	65.1868
1575	65.0204
1550	65.0434
1525	65.0906
1500	65.3275
1475	65.0144
1450	64.9923
1425	65.2314
1400	65.0524
1375	64.9671
1350	65.0378
1325	64.9709
1300	65.1597
1275	64.9424
1250	64.9654
1225	64.9528
1200	64.8683
1175	65.1145
1150	64.8347
1125	64.7511
1100	64.9152
1075	64.7974
1050	64.7996
1025	64.8853
1000	64.764
975	 64.8486
950	 64.9671
925	 64.698
900	 64.981
875	 64.6354
850	 64.2402
825	 64.5713
800	 64.2106
775	 64.0499
750	 63.9567
725	 63.9623
700	 63.5799
675	 62.9679
650	 63.254
625	 63.0435
600	 62.4539
575	 62.2032
550	 62.2337
525	 61.4014
500	 61.4059
475	 60.3185
450	 60.1696
425	 58.4418
400	 58.677
375	 66.082
370	 47.4951

File: C-4040-8_t23.asc
PE IR       SPECTRUM    SPECTRUM    ASCII       PEDS        1.60
  -1
C-AD26~1.ASC
17/05/02
12:46:03.00
17/05/02
12:46:30.00
tln
$C-4040-8_t0023$<tbV0>[-7.5,2.0,8.0,0.0,22,1,0]
27.028
64

2002,4.07
MIRTGS : RIGHTBACK : INTERNAL 2
MIR : ON : INTERNAL 2
OPTKBR

0.200000
8
8.000000
FILLER
RATIO
SPECTRUM
UNLOCKED 256

DOUBLE
64
COMBINED
1
0
0

0.002000
RATIO

1
0
TRUE
51149
0
LEFT NOT FITTED RIGHT NOT FITTED 0
NONE
NONE
15600
12
4.427000
51148
TRUE
1 0 8 72 0 0 0 0

15798

#HDR
-1
-1
#GR
µM
%T
2.38419e-05
0.0
1.282000
0.002000
12874
8
93.369
44.291
#DATA
1.282000	 68.4168
1.368000	 63.8781
1.454000	 68.0701
1.540000	 64.8762
1.626000	 64.4507
1.712000	 65.2937
1.798000	 65.092
1.884000	 64.5795
1.970000	 65.1812
2.056000	 64.752
2.142000	 65.4981
2.228000	 64.232
2.314000	 64.4827
2.400000	 64.8751
2.486000	 65.2244
2.572000	 65.1952
2.658000	 65.1367
2.744000	 65.4783
2.830000	 65.1892
2.916000	 65.3398
3.002000	 65.0561
3.088000	 65.2581
3.174000	 65.1047
3.260000	 65.3715
3.346000	 65.2279
3.432000	 64.8988
3.518000	 65.0714
3.604000	 65.2617
3.690000	 65.2431
3.776000	 65.3253
3.862000	 65.3264
3.948000	 65.3666
4.034000	 65.3071
4.120000	 65.3979
4.206000	 65.3142
4.292000	 65.3798
4.378000	 65.2635
4.464000	 65.4211
4.550000	 65.2316
4.636000	 65.4687
4.722000	 65.2769
4.808000	 65.319
4.894000	 65.3149
4.980000	 65.3419
5.066000	 65.3523
5.152000	 65.4558
5.238000	 65.3403
5.324000	 65.3216
5.410000	 65.339
5.496000	 65.273
5.582000	 65.3617
5.668000	 65.3621
5.754000	 65.2018
5.840000	 65.2849
5.926000	 65.3344
6.012000	 65.2434
6.098000	 65.2653
6.184000	 65.3198
6.270000	 65.261
6.356000	 65.1313
6.442000	 65.0011
6.528000	 65.1554
6.614000	 65.22
6.700000	 65.126
6.786000	 65.0483
6.872000	 65.0953
6.958000	 65.1212
7.044000	 65.0967
7.130000	 65.1352
7.216000	 65.0865
7.302000	 65.119
7.388000	 65.2209
7.474000	 65.1632
7.560000	 65.1236
7.646000	 65.2052
7.732000	 65.1312
7.818000	 64.9427
7.904000	 65.0778
7.990000	 65.0237
8.076000	 65.1154
8.161999	 65.0736
8.248000	 64.9809
8.334000	 64.8985
8.420000	 64.9431
8.506000	 64.9876
8.592000	 64.9794
8.678000	 64.9762
8.763999	 64.9092
8.850000	 64.8319
8.936000	 64.8422
9.022000	 64.8312
9.108000	 64.8389
9.193999	 64.9272
9.280000	 64.9707
9.366000	 65.036
9.452000	 64.8124
9.538000	 64.9434
9.624000	 65.1114
9.710000	 64.8151
9.795999	 64.6485
9.882000	 64.7456
9.968000	 64.7621
10.054	64.8417
10.14	64.5871
10.226	64.6549
10.312	64.8222
10.398	64.9456
10.484	64.8191
10.57	65.0344
10.656	64.648
10.742	64.4162
10.828	64.1886
10.914	64.2324
11	63.972
11.086	63.8842
11.172	64.3382
11.258	64.38
11.344	64.4956
11.43	64.8721
11.516	64.9439
11.602	64.7804
11.688	64.4693
11.774	64.5531
11.86	64.5186
11.946	64.3212
12.032	64.4655
12.118	64.4261
12.204	64.0608
12.29	64.0323
12.376	64.1408
12.462	64.1872
12.548	64.2029
12.634	64.3308
12.72	64.3763
12.806	64.3771
12.892	64.333
12.978	64.1868
13.064	64.139
13.15	63.8823
13.236	63.861
13.322	63.9442
13.408	63.8905
13.494	63.9446
13.58	64.063
13.666	64.1336
13.752	64.073
13.838	63.9859
13.924	63.8763
14.01	63.6552
14.096	63.5684
14.182	63.6709
14.268	63.652
14.354	63.581
14.44	63.5664
14.526	63.5257
14.612	63.3769
14.698	63.1775
14.784	63.0857
14.87	63.1285
14.956	63.1875
15.042	63.1994
15.128	63.1837
15.214	63.2226
15.3	63.2095
15.386	63.0883
15.472	63.0537
15.558	63.1275
15.644	63.1934
15.73	63.1717
15.816	63.1246
15.902	63.2886
15.988	63.5754
16.074	63.6098
16.16	63.3773
16.246	63.1116
16.332	62.9036
16.418	62.7878
16.504	62.7782
16.59	62.7823
16.676	62.7402
16.762	62.7431
16.848	62.8762
16.934	63.0421
17.02	63.0733
17.106	62.9823
17.192	62.9311
17.278	62.9632
17.364	62.9268
17.45	62.7008
17.536	62.4047
17.622	62.3045
17.708	62.5088
17.794	62.8123
17.88	62.9102
17.966	62.7527
18.052	62.5479
18.138	62.4446
18.224	62.4036
18.31	62.3976
18.396	62.4982
18.482	62.6774
18.568	62.7385
18.654	62.5657
18.74	62.2854
18.826	62.1025
18.912	62.0829
18.998	62.1425
19.084	62.1979
19.17	62.2722
19.256	62.4275
19.342	62.6484
19.428	62.8415
19.514	62.9284
19.6	62.902
19.686	62.8096
19.772	62.7046
19.858	62.6008
19.944	62.4717
20.03	62.2923
20.116	62.0733
20.202	61.8482
20.288	61.6452
20.374	61.4858
20.46	61.3814
20.546	61.326
20.632	61.2948
20.718	61.2653
20.804	61.24
20.89	61.2449
20.976	61.3035
21.062	61.4002
21.148	61.46
21.234	61.39
21.32	61.1413
21.406	60.7454
21.492	60.285
21.578	59.8386
21.664	59.4646
21.75	59.211
21.836	59.1181
21.922	59.1894
22.008	59.3622
22.094	59.5265
22.18	59.5912
22.266	59.554
22.352	59.5123
22.438	59.5902
22.524	59.8357
22.61	60.1628
22.696	60.3897
22.782	60.3604
22.868	60.0329
22.954	59.5098
23.04	58.9544
23.126	58.5092
23.212	58.2155
23.298	58.0301
23.384	57.8689
23.47	57.6796
23.556	57.4593
23.642	57.2197
23.728	56.9984
23.814	56.8386
23.9	56.7742
23.986	56.8288
24.072	57.0127
24.158	57.2817
24.244	57.5644
24.33	57.7946
24.416	57.9344
24.502	57.998
24.588	58.0191
24.674	58.0058
24.76	57.9251
24.846	57.7208
24.932	57.4461
25.018	57.3291
25.104	57.7048
25.19	58.9251
25.276	61.124
25.362	64.0899
25.448	67.214
25.534	69.7186
25.62	70.8795
25.706	70.2747
25.792	67.9645
25.878	64.4479
25.964	60.5343
26.05	57.0412
26.136	54.5309
26.222	53.2745
26.308	53.169
26.394	53.8109
26.48	54.6689
26.566	55.1693
26.652	54.8562
26.738	53.5151
26.824	51.2301
26.91	48.3353
26.996	45.1666
27.028	44.291

File: C-4040-8_t23_cm-1.asc
PE IR       SPECTRUM    SPECTRUM    ASCII       PEDS        1.60
  -1
C-9AE1~1.ASC
17/05/02
12:46:03.00
17/05/02
12:46:03.00
tln
$C-4040-8_t0023$<tbV0>[-7.5,2.0,8.0,0.0,22,1,0]
370
64

2002,4.07
MIRTGS : RIGHTBACK : INTERNAL 2
MIR : ON : INTERNAL 2
OPTKBR

0.200000
8
8.000000
FILLER
RATIO
SPECTRUM
UNLOCKED 256

DOUBLE
64
COMBINED
1
0
0

1.000000
RATIO

1
0
TRUE
51149
0
LEFT NOT FITTED RIGHT NOT FITTED 0
NONE
NONE
15600
12
4.427000
51148
TRUE
1 0 8 72 0 0 0 0

15798

#HDR
-1
-1
#GR
CM-1
%T
2.38419e-05
0.0
7800
-1.000000
7431
8
93.3986
44.291
#DATA
7800	68.4168
7775	65.5222
7750	63.7277
7725	61.817
7700	66.3841
7675	69.3185
7650	67.8822
7625	72.2408
7600	64.7869
7575	66.9371
7550	62.8352
7525	68.3459
7500	62.0397
7475	61.0582
7450	65.8077
7425	63.7686
7400	65.3449
7375	66.2093
7350	66.9746
7325	65.0099
7300	70.497
7275	66.1555
7250	65.5232
7225	65.1722
7200	67.8306
7175	63.7719
7150	64.4993
7125	63.6201
7100	65.4398
7075	62.6118
7050	63.1605
7025	69.5024
7000	62.6989
6975	64.2628
6950	64.0585
6925	65.8552
6900	66.1827
6875	67.5524
6850	63.5985
6825	64.8702
6800	65.7712
6775	62.7921
6750	62.8715
6725	61.2348
6700	65.0868
6675	62.8899
6650	61.9888
6625	66.6571
6600	64.6326
6575	63.7094
6550	65.466
6525	64.3079
6500	65.6227
6475	65.2712
6450	64.1787
6425	64.3259
6400	66.1328
6375	65.0282
6350	63.89
6325	63.7527
6300	63.6641
6275	62.5377
6250	64.9174
6225	65.4653
6200	64.7294
6175	64.8121
6150	64.4618
6125	65.9017
6100	64.4844
6075	64.871
6050	64.8658
6025	64.8309
6000	65.8179
5975	65.273
5950	64.8533
5925	65.2059
5900	64.8579
5875	64.3707
5850	65.928
5825	64.1712
5800	65.0095
5775	64.5616
5750	64.9343
5725	64.5327
5700	65.0953
5675	64.0898
5650	64.5866
5625	65.725
5600	66.1826
5575	65.3146
5550	65.0675
5525	65.4596
5500	66.2597
5475	65.6512
5450	65.0375
5425	64.6282
5400	65.4605
5375	65.4272
5350	65.1623
5325	64.1616
5300	63.9849
5275	62.3147
5250	66.9056
5225	65.6822
5200	65.3949
5175	64.7513
5150	65.1693
5125	65.1867
5100	65.4132
5075	65.1782
5050	64.9012
5025	65.4649
5000	65.875
4975	65.0558
4950	64.9821
4925	65.1427
4900	65.2205
4875	65.1707
4850	65.0749
4825	64.9462
4800	65.0105
4775	65.5562
4750	65.0719
4725	65.2494
4700	65.6354
4675	65.421
4650	65.588
4625	65.4276
4600	65.0164
4575	64.6052
4550	64.9008
4525	64.7496
4500	64.5502
4475	64.5348
4450	64.5711
4425	63.3396
4400	63.6446
4375	65.752
4350	64.8301
4325	64.4407
4300	64.5038
4275	64.5671
4250	64.8853
4225	64.9254
4200	64.8154
4175	64.981
4150	65.2227
4125	65.0416
4100	65.487
4075	65.1935
4050	65.485
4025	65.2052
4000	65.379
3975	65.2455
3950	65.1713
3925	65.2573
3900	65.0285
3875	65.1388
3850	65.3419
3825	65.3973
3800	65.21
3775	65.2724
3750	65.3784
3725	65.1768
3700	65.2308
3675	65.432
3650	65.3546
3625	65.3221
3600	65.4405
3575	65.3003
3550	65.2923
3525	65.031
3500	64.8689
3475	65.4032
3450	65.4297
3425	65.2724
3400	65.0918
3375	65.2895
3350	65.1033
3325	65.1751
3300	65.205
3275	65.3018
3250	65.315
3225	65.1075
3200	65.277
3175	65.3456
3150	65.109
3125	65.3991
3100	65.3638
3075	65.3683
3050	65.473
3025	65.2784
3000	65.2965
2975	65.2085
2950	64.9458
2925	64.9129
2900	65.1293
2875	65.201
2850	64.9484
2825	65.2469
2800	65.2724
2775	65.2625
2750	65.2335
2725	65.438
2700	65.2896
2675	65.276
2650	65.3265
2625	65.4319
2600	65.2193
2575	65.3082
2550	65.3434
2525	65.3271
2500	65.4226
2475	65.3428
2450	65.324
2425	65.354
2400	65.2373
2375	65.3199
2350	65.2922
2325	65.3519
2300	65.4119
2275	65.462
2250	65.3437
2225	65.2964
2200	65.2497
2175	65.3517
2150	65.2711
2125	65.2979
2100	65.2643
2075	65.3749
2050	65.3754
2025	65.3668
2000	65.2936
1975	65.3564
1950	65.3178
1925	65.2933
1900	65.3224
1875	65.3121
1850	65.3465
1825	65.2738
1800	65.3078
1775	65.3939
1750	65.2227
1725	65.1363
1700	65.2458
1675	65.1883
1650	65.1731
1625	65.2176
1600	65.2618
1575	65.1484
1550	65.0143
1525	65.1466
1500	65.3069
1475	65.0628
1450	65.0393
1425	65.1638
1400	65.1631
1375	65.1219
1350	65.2004
1325	65.128
1300	65.1299
1275	64.9973
1250	65.0204
1225	65.0736
1200	64.8989
1175	64.9904
1150	64.9952
1125	64.8444
1100	64.8257
1075	64.9765
1050	64.8273
1025	64.7954
1000	64.797
975	 64.7271
950	 64.9213
925	 64.2149
900	 63.9801
875	 64.8668
850	 64.5253
825	 64.413
800	 64.1819
775	 64.3127
750	 63.9386
725	 64.0287
700	 63.6345
675	 63.0908
650	 63.09
625	 63.6015
600	 62.745
575	 62.8753
550	 62.4206
525	 62.1758
500	 62.3608
475	 61.3899
450	 59.5817
425	 57.5308
400	 57.3235
375	 54.7026
370	 44.291

File: C-4040-8_t24.asc
PE IR       SPECTRUM    SPECTRUM    ASCII       PEDS        1.60
  -1
C-BD2A~1.ASC
17/05/02
12:50:44.00
17/05/02
12:51:11.00
tln
$C-4040-8_t0024$<tbV0>[-12.5,2.0,8.0,0.0,22,1,0]
27.028
64

2002,4.07
MIRTGS : RIGHTBACK : INTERNAL 2
MIR : ON : INTERNAL 2
OPTKBR

0.200000
8
8.000000
FILLER
RATIO
SPECTRUM
UNLOCKED 256

DOUBLE
64
COMBINED
1
0
0

0.002000
RATIO

1
0
TRUE
51149
0
LEFT NOT FITTED RIGHT NOT FITTED 0
NONE
NONE
15600
12
4.427000
51148
TRUE
1 0 8 72 0 0 0 0

15798

#HDR
-1
-1
#GR
µM
%T
2.38419e-05
0.0
1.282000
0.002000
12874
8
85.6056
43.4696
#DATA
1.282000	 61.5177
1.368000	 65.5456
1.454000	 63.3343
1.540000	 65.5956
1.626000	 65.5506
1.712000	 64.7058
1.798000	 65.7285
1.884000	 63.0844
1.970000	 64.7287
2.056000	 64.8066
2.142000	 65.0965
2.228000	 63.9865
2.314000	 64.384
2.400000	 65.0173
2.486000	 65.4214
2.572000	 65.2525
2.658000	 65.2045
2.744000	 65.229
2.830000	 65.2146
2.916000	 65.1425
3.002000	 64.9034
3.088000	 65.0479
3.174000	 65.1951
3.260000	 65.2193
3.346000	 65.1974
3.432000	 64.7962
3.518000	 65.0083
3.604000	 65.2045
3.690000	 65.181
3.776000	 65.2839
3.862000	 65.2717
3.948000	 65.4241
4.034000	 65.3366
4.120000	 65.2165
4.206000	 65.3346
4.292000	 65.3227
4.378000	 65.399
4.464000	 65.4168
4.550000	 65.3178
4.636000	 65.4318
4.722000	 65.3543
4.808000	 65.2198
4.894000	 65.241
4.980000	 65.3218
5.066000	 65.4055
5.152000	 65.3452
5.238000	 65.3648
5.324000	 65.3489
5.410000	 65.3157
5.496000	 65.3224
5.582000	 65.3229
5.668000	 65.3452
5.754000	 65.1442
5.840000	 65.2086
5.926000	 65.2271
6.012000	 65.1941
6.098000	 65.12
6.184000	 65.2511
6.270000	 65.1215
6.356000	 65.0788
6.442000	 65.1605
6.528000	 65.122
6.614000	 65.1088
6.700000	 65.1854
6.786000	 65.1678
6.872000	 65.0787
6.958000	 65.0585
7.044000	 65.0289
7.130000	 65.155
7.216000	 65.1478
7.302000	 65.0597
7.388000	 65.0992
7.474000	 65.191
7.560000	 65.1455
7.646000	 65.1391
7.732000	 65.0741
7.818000	 65.0628
7.904000	 65.0279
7.990000	 65.0482
8.076000	 65.0231
8.161999	 65.0985
8.248000	 64.992
8.334000	 64.9748
8.420000	 64.9493
8.506000	 65.0249
8.592000	 65.0071
8.678000	 64.894
8.763999	 64.8219
8.850000	 64.8302
8.936000	 64.7816
9.022000	 64.9573
9.108000	 64.8211
9.193999	 64.8238
9.280000	 64.7725
9.366000	 64.9933
9.452000	 64.7879
9.538000	 64.8384
9.624000	 65.0741
9.710000	 64.9253
9.795999	 64.7269
9.882000	 64.6905
9.968000	 64.8426
10.054	64.921
10.14	64.9568
10.226	64.6951
10.312	64.8318
10.398	64.8555
10.484	64.8489
10.57	64.8334
10.656	64.5705
10.742	64.6097
10.828	64.9357
10.914	64.5914
11	64.5838
11.086	64.3545
11.172	64.1686
11.258	64.6703
11.344	65.448
11.43	65.0495
11.516	64.8522
11.602	64.8093
11.688	64.366
11.774	64.3924
11.86	64.4337
11.946	64.3837
12.032	64.4387
12.118	64.6178
12.204	64.3576
12.29	64.123
12.376	64.0456
12.462	64.0023
12.548	64.0177
12.634	64.2987
12.72	64.469
12.806	64.2362
12.892	64.0867
12.978	64.1789
13.064	64.2183
13.15	64.1534
13.236	64.068
13.322	64.1473
13.408	64.007
13.494	63.787
13.58	63.7028
13.666	63.7239
13.752	63.8173
13.838	63.9615
13.924	63.8537
14.01	63.657
14.096	63.6315
14.182	63.6097
14.268	63.5464
14.354	63.4931
14.44	63.5535
14.526	63.5555
14.612	63.3812
14.698	63.313
14.784	63.3779
14.87	63.4304
14.956	63.3565
15.042	63.1168
15.128	62.9593
15.214	63.1001
15.3	63.3289
15.386	63.3577
15.472	63.1881
15.558	63.015
15.644	62.9658
15.73	63.0325
15.816	63.1614
15.902	63.2275
15.988	63.1551
16.074	63.0547
16.16	62.9765
16.246	62.8679
16.332	62.8491
16.418	63.0777
16.504	63.3349
16.59	63.3223
16.676	63.1876
16.762	63.1541
16.848	63.1878
16.934	63.162
17.02	62.9918
17.106	62.7592
17.192	62.6583
17.278	62.6724
17.364	62.5786
17.45	62.3689
17.536	62.3003
17.622	62.4605
17.708	62.6711
17.794	62.8104
17.88	62.9215
17.966	63.0271
18.052	63.0812
18.138	63.0786
18.224	63.0541
18.31	63.0077
18.396	62.9205
18.482	62.8011
18.568	62.6819
18.654	62.6113
18.74	62.6294
18.826	62.7171
18.912	62.7987
18.998	62.8106
19.084	62.7559
19.17	62.685
19.256	62.6189
19.342	62.5389
19.428	62.4454
19.514	62.3842
19.6	62.3787
19.686	62.3835
19.772	62.3328
19.858	62.1954
19.944	61.9759
20.03	61.6867
20.116	61.3457
20.202	61.0072
20.288	60.7702
20.374	60.739
20.46	60.9413
20.546	61.2832
20.632	61.5986
20.718	61.763
20.804	61.77
20.89	61.7119
20.976	61.6851
21.062	61.7004
21.148	61.6769
21.234	61.5239
21.32	61.2377
21.406	60.9189
21.492	60.6734
21.578	60.5214
21.664	60.4019
21.75	60.2558
21.836	60.0974
21.922	60.0001
22.008	60.0176
22.094	60.1113
22.18	60.1643
22.266	60.0625
22.352	59.7738
22.438	59.3833
22.524	59.042
22.61	58.8891
22.696	58.9779
22.782	59.2567
22.868	59.5959
22.954	59.8509
23.04	59.9375
23.126	59.8477
23.212	59.6485
23.298	59.4349
23.384	59.2417
23.47	59.0202
23.556	58.695
23.642	58.2152
23.728	57.6262
23.814	57.0847
23.9	56.7695
23.986	56.7954
24.072	57.1721
24.158	57.7536
24.244	58.3143
24.33	58.6093
24.416	58.4458
24.502	57.7529
24.588	56.6301
24.674	55.3599
24.76	54.3875
24.846	54.1729
24.932	55.0961
25.018	57.2721
25.104	60.4938
25.19	64.1848
25.276	67.5908
25.362	69.9729
25.448	70.8096
25.534	69.9503
25.62	67.569
25.706	64.0462
25.792	59.8478
25.878	55.4445
25.964	51.2756
26.05	47.714
26.136	45.0741
26.222	43.6551
26.308	43.644
26.394	45.0235
26.48	47.4428
26.566	50.3444
26.652	53.1088
26.738	55.3952
26.824	57.1981
26.91	58.812
26.996	60.5588
27.028	61.0647

File: C-4040-8_t24_cm-1.asc
PE IR       SPECTRUM    SPECTRUM    ASCII       PEDS        1.60
  -1
C-9A6F~1.ASC
17/05/02
12:50:44.00
17/05/02
12:50:44.00
tln
$C-4040-8_t0024$<tbV0>[-12.5,2.0,8.0,0.0,22,1,0]
370
64

2002,4.07
MIRTGS : RIGHTBACK : INTERNAL 2
MIR : ON : INTERNAL 2
OPTKBR

0.200000
8
8.000000
FILLER
RATIO
SPECTRUM
UNLOCKED 256

DOUBLE
64
COMBINED
1
0
0

1.000000
RATIO

1
0
TRUE
51149
0
LEFT NOT FITTED RIGHT NOT FITTED 0
NONE
NONE
15600
12
4.427000
51148
TRUE
1 0 8 72 0 0 0 0

15798

#HDR
-1
-1
#GR
CM-1
%T
2.38419e-05
0.0
7800
-1.000000
7431
8
85.8146
43.5031
#DATA
7800	61.5177
7775	60.3098
7750	62.8462
7725	70.8089
7700	66.9053
7675	76.3035
7650	68.2858
7625	68.1983
7600	68.6866
7575	62.2546
7550	66.0656
7525	68.0789
7500	65.1316
7475	67.469
7450	64.333
7425	65.559
7400	65.862
7375	65.6768
7350	66.3859
7325	69.8387
7300	68.856
7275	63.9826
7250	66.4283
7225	62.6841
7200	63.8969
7175	67.0899
7150	64.7829
7125	63.3911
7100	64.0085
7075	64.1412
7050	62.7613
7025	70.4691
7000	63.7297
6975	64.5036
6950	63.6322
6925	65.9008
6900	64.3353
6875	63.526
6850	62.2638
6825	64.7361
6800	64.131
6775	62.7599
6750	61.6514
6725	62.992
6700	64.061
6675	64.3527
6650	63.7097
6625	66.8208
6600	65.3269
6575	64.8116
6550	65.2588
6525	64.8091
6500	67.4314
6475	66.098
6450	65.8657
6425	62.7642
6400	65.2827
6375	63.9033
6350	64.9013
6325	65.4238
6300	64.5605
6275	63.6998
6250	63.9271
6225	64.0618
6200	65.0799
6175	64.6719
6150	65.5625
6125	66.1015
6100	63.9296
6075	64.8138
6050	65.4927
6025	64.9219
6000	66.4357
5975	64.6763
5950	64.6975
5925	65.1814
5900	64.3899
5875	64.7342
5850	64.5425
5825	64.6001
5800	64.6397
5775	64.6065
5750	65.5344
5725	64.9963
5700	65.2435
5675	65.2598
5650	64.6482
5625	66.3023
5600	64.9418
5575	64.7905
5550	65.0052
5525	66.5177
5500	65.3827
5475	65.0939
5450	64.9077
5425	64.9794
5400	64.7629
5375	65.1835
5350	64.2346
5325	63.545
5300	61.5569
5275	66.3052
5250	67.5231
5225	65.6389
5200	64.8777
5175	64.9972
5150	65.1837
5125	65.0218
5100	64.5677
5075	64.8756
5050	65.0349
5025	65.0551
5000	65.292
4975	64.7192
4950	64.7969
4925	64.8758
4900	64.9205
4875	64.6053
4850	65.0592
4825	65.0675
4800	64.9925
4775	65.2583
4750	65.0513
4725	65.3604
4700	65.3824
4675	65.295
4650	65.1289
4625	65.0822
4600	64.9539
4575	64.4349
4550	64.5326
4525	64.3239
4500	64.5157
4475	64.7125
4450	64.6486
4425	64.5426
4400	63.14
4375	66.1828
4350	64.7914
4325	64.4142
4300	64.6407
4275	64.8307
4250	64.799
4225	64.7752
4200	64.6052
4175	64.9639
4150	65.0087
4125	65.2749
4100	65.3467
4075	65.2362
4050	65.341
4025	65.3685
4000	64.9981
3975	65.383
3950	65.133
3925	65.0047
3900	64.9566
3875	65.0878
3850	65.301
3825	65.0527
3800	65.0807
3775	65.1147
3750	65.3038
3725	65.1718
3700	65.2222
3675	65.3211
3650	65.1349
3625	65.3815
3600	65.2712
3575	65.5488
3550	65.2446
3525	65.0669
3500	64.8475
3475	65.169
3450	65.2414
3425	65.1027
3400	65.1908
3375	65.2115
3350	64.9559
3325	65.0407
3300	65.22
3275	65.1623
3250	65.1513
3225	65.0424
3200	65.0566
3175	65.1938
3150	65.1993
3125	65.3114
3100	65.2425
3075	65.2494
3050	65.2734
3025	65.2607
3000	65.1773
2975	65.0558
2950	64.9122
2925	64.8947
2900	65.0166
2875	65.1551
2850	64.9011
2825	65.2098
2800	65.2326
2775	65.2103
2750	65.2575
2725	65.2961
2700	65.2384
2675	65.2297
2650	65.2872
2625	65.3064
2600	65.3651
2575	65.2571
2550	65.2381
2525	65.2863
2500	65.2615
2475	65.3758
2450	65.2945
2425	65.2213
2400	65.3077
2375	65.3363
2350	65.2929
2325	65.3668
2300	65.3869
2275	65.3735
2250	65.3181
2225	65.2156
2200	65.3462
2175	65.3594
2150	65.3677
2125	65.3021
2100	65.2033
2075	65.3887
2050	65.2468
2025	65.3437
2000	65.3155
1975	65.4163
1950	65.3399
1925	65.2715
1900	65.3474
1875	65.356
1850	65.3486
1825	65.3342
1800	65.2808
1775	65.4321
1750	65.2229
1725	65.0677
1700	65.304
1675	65.1528
1650	65.2583
1625	65.1741
1600	65.1896
1575	65.1026
1550	65.1666
1525	65.1397
1500	65.209
1475	65.1599
1450	65.0958
1425	65.1289
1400	65.2118
1375	65.0661
1350	65.0835
1325	65.1115
1300	64.9623
1275	65.0121
1250	65.0558
1225	65.1001
1200	64.9762
1175	65.0378
1150	64.8988
1125	64.8835
1100	64.9013
1075	64.7307
1050	64.7546
1025	64.9141
1000	64.8347
975	 64.7662
950	 64.8015
925	 64.9002
900	 64.334
875	 65.0581
850	 64.3609
825	 64.6188
800	 63.9716
775	 64.0975
750	 64.1455
725	 63.8983
700	 63.5315
675	 63.4037
650	 63.3592
625	 63.1395
600	 63.1989
575	 62.5139
550	 63.0678
525	 62.7841
500	 61.7949
475	 61.699
450	 60.1386
425	 58.8115
400	 56.7181
375	 53.5368
370	 61.0647