Folder: Masteroppgave/Bakgrunnsmateriale/MATLAB/FTIR/ftir_data/subBb/Mapping_121 (part 26)

File: C-4040-8_t56_cm-1.asc
PE IR       SPECTRUM    SPECTRUM    ASCII       PEDS        1.60
  -1
C-1C6E~1.ASC
17/03/27
19:05:18.00
17/03/27
19:05:18.00
tln
$C-4040-8_t0056$<tbV0>[13.0,0.0,8.0,0.0,27,1,0]
370
64

2002,4.07
MIRTGS : RIGHTBACK : INTERNAL 2
MIR : ON : INTERNAL 2
OPTKBR

0.200000
8
8.000000
FILLER
RATIO
SPECTRUM
UNLOCKED 256

DOUBLE
64
COMBINED
1
0
0

1.000000
RATIO

1
0
TRUE
51149
0
LEFT NOT FITTED RIGHT NOT FITTED 0
NONE
NONE
15600
12
4.427000
51148
TRUE
1 0 8 72 0 0 0 0

15798

#HDR
-1
-1
#GR
CM-1
%T
2.38419e-05
0.0
5000
-1.000000
4631
8
92.2904
22.9496
#DATA
5000	64.7402
4984	65.2668
4968	66.1034
4952	64.3358
4936	65.053
4920	64.8151
4904	65.423
4888	64.9654
4872	65.3934
4856	64.3055
4840	64.4851
4824	64.9896
4808	64.9684
4792	65.2218
4776	64.8924
4760	64.3554
4744	64.5797
4728	64.1595
4712	64.9161
4696	64.4559
4680	64.5278
4664	64.7791
4648	64.3598
4632	64.7811
4616	64.7367
4600	64.8744
4584	64.9773
4568	64.821
4552	64.6229
4536	64.9525
4520	64.8888
4504	65.3772
4488	65.3905
4472	65.5282
4456	65.6716
4440	65.7091
4424	66.0415
4408	65.9353
4392	66.4667
4376	65.8076
4360	51.9526
4344	70.611
4328	66.5497
4312	65.8104
4296	66.0401
4280	66.0352
4264	65.6111
4248	65.632
4232	65.3821
4216	65.3402
4200	65.0038
4184	64.9683
4168	65.1929
4152	65.2837
4136	65.1443
4120	64.7665
4104	64.6438
4088	65.0147
4072	64.9312
4056	64.7711
4040	64.8483
4024	64.7242
4008	64.9016
3992	64.889
3976	64.9704
3960	64.8997
3944	65.2779
3928	64.8246
3912	64.9951
3896	65.1571
3880	65.1394
3864	65.3507
3848	65.3471
3832	64.9382
3816	65.2032
3800	65.2913
3784	65.4731
3768	65.0624
3752	65.1174
3736	65.179
3720	65.2846
3704	65.028
3688	65.2168
3672	65.2552
3656	65.1329
3640	65.2868
3624	64.9628
3608	64.8669
3592	64.8864
3576	65.2797
3560	65.152
3544	65.1654
3528	65.0676
3512	64.9158
3496	64.97
3480	65.1445
3464	65.0913
3448	65.2619
3432	65.2109
3416	65.1691
3400	65.2128
3384	65.2104
3368	65.0001
3352	65.0911
3336	65.3064
3320	65.2557
3304	65.0497
3288	65.2482
3272	65.0438
3256	65.2927
3240	65.1453
3224	65.0912
3208	65.0518
3192	65.1171
3176	65.2124
3160	64.99
3144	65.1654
3128	64.8897
3112	64.8381
3096	65.1411
3080	65.1045
3064	65.1335
3048	65.3551
3032	65.3182
3016	65.3002
3000	65.1259
2984	65.1061
2968	65.0288
2952	65.1156
2936	65.1035
2920	64.8497
2904	65.1165
2888	65.0831
2872	65.097
2856	65.1658
2840	65.0402
2824	64.9906
2808	65.0818
2792	65.1138
2776	65.0893
2760	65.2091
2744	65.1078
2728	65.1006
2712	65.0814
2696	65.053
2680	65.1328
2664	65.2335
2648	65.2095
2632	65.1453
2616	65.3048
2600	65.1791
2584	65.204
2568	65.3123
2552	65.2777
2536	65.2162
2520	65.3027
2504	65.3398
2488	65.1069
2472	65.2384
2456	65.3275
2440	65.2269
2424	65.5693
2408	65.2742
2392	65.355
2376	65.2856
2360	65.2091
2344	65.2758
2328	65.2315
2312	65.1828
2296	65.2681
2280	65.0645
2264	65.3522
2248	65.3706
2232	65.2178
2216	65.268
2200	65.0747
2184	65.2935
2168	65.1615
2152	65.2823
2136	65.2023
2120	65.2402
2104	65.2631
2088	65.3794
2072	65.4174
2056	65.2185
2040	65.2032
2024	65.2503
2008	65.1955
1992	65.2543
1976	65.2972
1960	65.1624
1944	65.2782
1928	65.3023
1912	65.1571
1896	65.3804
1880	65.2982
1864	65.1481
1848	65.2842
1832	65.3315
1816	65.2771
1800	65.2582
1784	65.1322
1768	65.1927
1752	65.1939
1736	64.9154
1720	65.0499
1704	65.1577
1688	65.1487
1672	65.3452
1656	65.1583
1640	65.3354
1624	65.1065
1608	65.1008
1592	64.9763
1576	65.2225
1560	64.8931
1544	65.0954
1528	65.0459
1512	65.0381
1496	65.2563
1480	64.9846
1464	65.1998
1448	64.7707
1432	64.7612
1416	65.0309
1400	65.1774
1384	65.1385
1368	65.0783
1352	64.9163
1336	64.8559
1320	64.9409
1304	65.1193
1288	65.0306
1272	64.826
1256	65.0039
1240	65.0144
1224	64.8811
1208	64.8584
1192	64.9514
1176	64.8786
1160	64.9133
1144	64.9568
1128	64.6054
1112	64.5854
1096	64.7524
1080	65.031
1064	65.1112
1048	64.6173
1032	64.4757
1016	64.5964
1000	64.5699
984	 64.5231
968	 64.4224
952	 64.6217
936	 64.3831
920	 64.3929
904	 64.1847
888	 64.1007
872	 64.1642
856	 64.2255
840	 64.275
824	 63.8832
808	 64.0196
792	 63.8214
776	 63.9189
760	 63.6616
744	 63.3942
728	 62.9639
712	 63.2695
696	 62.8303
680	 62.4468
664	 62.1568
648	 62.3645
632	 62.0326
616	 62.5294
600	 61.2747
584	 61.1122
568	 61.3459
552	 60.7495
536	 60.6939
520	 60.3201
504	 60.1893
488	 58.7296
472	 58.5488
456	 57.1018
440	 59.8715
424	 57.7792
408	 67.1633
392	 30.1943
376	 83.511
370	 75.9145

File: C-4040-8_t57.asc
PE IR       SPECTRUM    SPECTRUM    ASCII       PEDS        1.60
  -1
C-B936~1.ASC
17/03/27
19:09:55.00
17/03/27
19:10:21.00
tln
$C-4040-8_t0057$<tbV0>[10.4,0.0,8.0,0.0,27,1,0]
27.028
64

2002,4.07
MIRTGS : RIGHTBACK : INTERNAL 2
MIR : ON : INTERNAL 2
OPTKBR

0.200000
8
8.000000
FILLER
RATIO
SPECTRUM
UNLOCKED 256

DOUBLE
64
COMBINED
1
0
0

0.002000
RATIO

1
0
TRUE
51149
0
LEFT NOT FITTED RIGHT NOT FITTED 0
NONE
NONE
15600
12
4.427000
51148
TRUE
1 0 8 72 0 0 0 0

15798

#HDR
-1
-1
#GR
µM
%T
2.38419e-05
0.0
2.000000
0.002000
12515
8
85.7645
18.6864
#DATA
2.000000	 65.1597
2.084000	 64.8002
2.168000	 64.3272
2.252000	 65.5111
2.336000	 65.8263
2.420000	 64.9596
2.504000	 65.0406
2.588000	 65.2034
2.672000	 65.1441
2.756000	 65.035
2.840000	 65.121
2.924000	 65.0997
3.008000	 65.1378
3.092000	 65.0858
3.176000	 65.0021
3.260000	 65.2716
3.344000	 65.2827
3.428000	 64.853
3.512000	 65.107
3.596000	 65.0967
3.680000	 65.0849
3.764000	 65.3816
3.848000	 65.2665
3.932000	 65.3306
4.016000	 65.2378
4.100000	 65.3066
4.184000	 65.2465
4.268000	 65.138
4.352000	 65.235
4.436000	 65.3446
4.520000	 65.277
4.604000	 65.2512
4.688000	 65.3167
4.772000	 65.3259
4.856000	 65.2719
4.940000	 65.2396
5.024000	 65.3012
5.108000	 65.3495
5.192000	 65.2775
5.276000	 65.249
5.359999	 65.2132
5.444000	 65.2565
5.528000	 65.1281
5.612000	 65.1665
5.696000	 65.1332
5.780000	 65.1065
5.864000	 65.1706
5.948000	 65.1277
6.032000	 65.1932
6.116000	 65.0836
6.200000	 65.1105
6.284000	 65.0815
6.368000	 65.1868
6.452000	 65.0393
6.536000	 65.018
6.620000	 65.0572
6.704000	 65.1869
6.788000	 64.937
6.872000	 64.7895
6.956000	 65.1172
7.040000	 64.9227
7.124000	 65.1109
7.208000	 64.9761
7.292000	 65.0405
7.376000	 64.9997
7.460000	 64.8253
7.544000	 64.9435
7.628000	 65.0391
7.712000	 64.9391
7.796000	 65.0175
7.880000	 64.9144
7.964000	 64.8801
8.048000	 64.9196
8.132000	 64.8998
8.216000	 64.9361
8.300000	 64.9576
8.384000	 64.8988
8.468000	 64.8284
8.552000	 64.7656
8.635999	 64.9486
8.719999	 64.8758
8.804000	 64.7504
8.888000	 64.6796
8.972000	 64.589
9.056000	 64.5403
9.140000	 64.6349
9.224000	 65.1672
9.308000	 64.692
9.391999	 64.6246
9.475999	 64.72
9.560000	 64.6116
9.644000	 64.6028
9.728000	 64.6235
9.812000	 64.6548
9.896000	 64.9249
9.980000	 64.8618
10.064	64.7053
10.148	64.6939
10.232	64.5681
10.316	64.5054
10.4	64.5371
10.484	64.6213
10.568	64.5675
10.652	64.3115
10.736	64.3373
10.82	64.536
10.904	64.6185
10.988	64.3369
11.072	64.4366
11.156	64.4699
11.24	64.4637
11.324	64.3911
11.408	63.8639
11.492	63.9858
11.576	64.2378
11.66	64.2118
11.744	64.2225
11.828	64.2112
11.912	64.4241
11.996	64.2034
12.08	64.0678
12.164	64.2621
12.248	64.2159
12.332	64.28
12.416	64.092
12.5	64.0245
12.584	64.1427
12.668	63.9471
12.752	63.776
12.836	63.9553
12.92	64.0389
13.004	63.9104
13.088	63.7731
13.172	63.5127
13.256	63.2506
13.34	63.4264
13.424	63.4037
13.508	63.2555
13.592	63.6241
13.676	63.7134
13.76	63.387
13.844	63.0791
13.928	63.109
14.012	63.255
14.096	63.2751
14.18	63.4164
14.264	63.3682
14.348	63.133
14.432	63.1877
14.516	63.248
14.6	62.9935
14.684	62.7104
14.768	62.718
14.852	62.8972
14.936	62.832
15.02	62.6062
15.104	62.6495
15.188	62.8333
15.272	62.8407
15.356	62.7084
15.44	62.5168
15.524	62.392
15.608	62.4215
15.692	62.3546
15.776	62.1404
15.86	62.0835
15.944	62.2027
16.028	62.285
16.112	62.3102
16.196	62.337
16.28	62.36
16.364	62.352
16.448	62.2451
16.532	61.9925
16.616	61.7135
16.7	61.5573
16.784	61.5019
16.868	61.4989
16.952	61.5778
17.036	61.689
17.12	61.7028
17.204	61.6094
17.288	61.4848
17.372	61.3067
17.456	61.038
17.54	60.8132
17.624	60.8096
17.708	60.9592
17.792	61.0152
17.876	60.8844
17.96	60.7041
18.044	60.5985
18.128	60.5508
18.212	60.5146
18.296	60.4978
18.38	60.5323
18.464	60.6387
18.548	60.8224
18.632	61.0219
18.716	61.1105
18.8	61.0249
18.884	60.8694
18.968	60.7927
19.052	60.7589
19.136	60.574
19.22	60.1513
19.304	59.6765
19.388	59.4384
19.472	59.5486
19.556	59.8573
19.64	60.1374
19.724	60.3188
19.808	60.4904
19.892	60.7272
19.976	60.9562
20.06	61.0266
20.144	60.8714
20.228	60.5692
20.312	60.2523
20.396	59.9877
20.48	59.7529
20.564	59.5018
20.648	59.2158
20.732	58.9028
20.816	58.5756
20.9	58.245
20.984	57.9521
21.068	57.7554
21.152	57.6928
21.236	57.7466
21.32	57.865
21.404	58.0021
21.488	58.1327
21.572	58.2429
21.656	58.317
21.74	58.3454
21.824	58.3294
21.908	58.2708
21.992	58.1554
22.076	57.9507
22.16	57.6307
22.244	57.2198
22.328	56.7964
22.412	56.448
22.496	56.2278
22.58	56.1415
22.664	56.1699
22.748	56.2874
22.832	56.4711
22.916	56.7005
23	56.923
23.084	57.0763
23.168	57.1046
23.252	56.9749
23.336	56.6726
23.42	56.2018
23.504	55.612
23.588	55.0099
23.672	54.5352
23.756	54.3205
23.84	54.4191
23.924	54.7608
24.008	55.1535
24.092	55.382
24.176	55.4048
24.26	55.4159
24.344	55.7782
24.428	56.7773
24.512	58.4572
24.596	60.4271
24.68	62.0494
24.764	62.8045
24.848	62.5479
24.932	61.6124
25.016	60.647
25.1	60.2583
25.184	60.6778
25.268	61.6273
25.352	62.5464
25.436	62.9501
25.52	62.835
25.604	62.7429
25.688	63.584
25.772	66.1378
25.856	70.545
25.94	76.1852
26.024	81.6623
26.108	85.2161
26.192	85.2773
26.276	80.9343
26.36	72.2541
26.444	60.376
26.528	47.2203
26.612	34.9201
26.696	25.4023
26.78	19.9226
26.864	18.8021
26.948	21.4894
27.028	26.4903

File: C-4040-8_t57_cm-1.asc
PE IR       SPECTRUM    SPECTRUM    ASCII       PEDS        1.60
  -1
C-1CEF~1.ASC
17/03/27
19:09:55.00
17/03/27
19:09:55.00
tln
$C-4040-8_t0057$<tbV0>[10.4,0.0,8.0,0.0,27,1,0]
370
64

2002,4.07
MIRTGS : RIGHTBACK : INTERNAL 2
MIR : ON : INTERNAL 2
OPTKBR

0.200000
8
8.000000
FILLER
RATIO
SPECTRUM
UNLOCKED 256

DOUBLE
64
COMBINED
1
0
0

1.000000
RATIO

1
0
TRUE
51149
0
LEFT NOT FITTED RIGHT NOT FITTED 0
NONE
NONE
15600
12
4.427000
51148
TRUE
1 0 8 72 0 0 0 0

15798

#HDR
-1
-1
#GR
CM-1
%T
2.38419e-05
0.0
5000
-1.000000
4631
8
85.5673
19.0304
#DATA
5000	65.1597
4984	65.086
4968	65.6158
4952	65.1706
4936	65.4909
4920	65.3454
4904	65.0569
4888	64.1382
4872	64.5433
4856	64.9405
4840	64.7439
4824	64.8606
4808	64.9027
4792	64.9143
4776	64.7817
4760	64.8144
4744	64.3405
4728	64.5555
4712	64.8235
4696	64.6966
4680	65.1087
4664	64.5275
4648	64.7629
4632	64.9831
4616	64.4734
4600	65.0352
4584	64.9246
4568	64.9008
4552	64.8232
4536	65.2072
4520	65.169
4504	65.0756
4488	65.2065
4472	64.9585
4456	65.2187
4440	65.5145
4424	65.8382
4408	65.8084
4392	64.985
4376	66.0386
4360	57.1508
4344	62.9356
4328	65.8058
4312	65.0398
4296	65.6297
4280	65.8554
4264	65.4871
4248	64.8323
4232	65.1358
4216	65.3536
4200	65.3588
4184	64.655
4168	64.3816
4152	64.6484
4136	65.1264
4120	65.1669
4104	64.8725
4088	65.1425
4072	64.896
4056	64.9209
4040	64.8905
4024	64.8692
4008	64.9034
3992	65.0483
3976	64.8678
3960	64.9849
3944	64.9732
3928	65.0282
3912	65.2467
3896	64.7972
3880	65.0548
3864	65.2031
3848	64.9776
3832	65.1252
3816	65.0637
3800	65.3077
3784	65.185
3768	65.1443
3752	65.0226
3736	65.161
3720	65.1522
3704	64.9579
3688	65.2385
3672	65.1874
3656	64.99
3640	65.063
3624	64.9732
3608	65.2376
3592	65.0703
3576	65.2209
3560	65.201
3544	65.1475
3528	65.0063
3512	65.1027
3496	65.0154
3480	65.108
3464	65.3969
3448	65.0678
3432	65.0117
3416	65.0522
3400	65.1232
3384	65.2004
3368	65.2525
3352	64.9702
3336	65.1929
3320	65.2898
3304	65.1832
3288	65.0603
3272	65.1446
3256	65.3424
3240	65.0421
3224	65.0311
3208	65.1787
3192	65.0117
3176	65.2632
3160	65.2159
3144	64.9198
3128	65.28
3112	64.9302
3096	65.1262
3080	64.9894
3064	65.308
3048	65.1685
3032	65.2825
3016	65.2398
3000	65.1353
2984	65.2237
2968	65.4226
2952	65.186
2936	65.1019
2920	64.8233
2904	65.1665
2888	65.2744
2872	65.0526
2856	65.0232
2840	65.1185
2824	65.03
2808	65.2225
2792	65.2073
2776	65.1642
2760	65.1232
2744	65.1634
2728	65.0392
2712	65.1125
2696	65.0602
2680	65.1592
2664	65.2904
2648	65.3061
2632	65.2553
2616	65.255
2600	65.2831
2584	65.2399
2568	65.253
2552	65.385
2536	65.2225
2520	65.1974
2504	65.1826
2488	65.268
2472	65.2431
2456	65.2426
2440	65.3123
2424	65.4475
2408	65.2555
2392	65.273
2376	65.1317
2360	65.1778
2344	65.1299
2328	65.2924
2312	65.0472
2296	65.2083
2280	65.1915
2264	65.1939
2248	65.3878
2232	65.2694
2216	65.3316
2200	65.2244
2184	65.2789
2168	65.2084
2152	65.2775
2136	65.286
2120	65.396
2104	65.307
2088	65.4134
2072	65.296
2056	65.2576
2040	65.1633
2024	65.2303
2008	65.2546
1992	65.2452
1976	65.277
1960	65.3255
1944	65.2415
1928	65.2981
1912	65.2975
1896	65.2423
1880	65.2759
1864	65.201
1848	65.2536
1832	65.3426
1816	65.1949
1800	65.217
1784	65.1822
1768	65.2261
1752	65.1163
1736	65.0686
1720	64.8867
1704	65.2214
1688	65.0675
1672	65.246
1656	65.1983
1640	65.1605
1624	65.2244
1608	65.0978
1592	65.0737
1576	65.1418
1560	64.9447
1544	65.1108
1528	65.0165
1512	65.0364
1496	65.2424
1480	65.1334
1464	64.9348
1448	65.0119
1432	64.9324
1416	64.9758
1400	65.0985
1384	65.0635
1368	65.0582
1352	64.9716
1336	64.8557
1320	64.9548
1304	64.9229
1288	65.0317
1272	64.8973
1256	64.878
1240	64.9253
1224	64.9041
1208	64.9098
1192	64.9166
1176	64.7437
1160	64.9082
1144	64.9109
1128	64.6314
1112	64.4718
1096	64.5146
1080	64.8412
1064	64.6406
1048	64.688
1032	64.586
1016	64.621
1000	64.8817
984	 64.6469
968	 64.4726
952	 64.6397
936	 64.2362
920	 64.6045
904	 64.4302
888	 64.467
872	 63.8717
856	 64.2061
840	 64.4102
824	 64.2322
808	 64.2014
792	 64.0873
776	 64.0455
760	 63.5686
744	 63.3454
728	 63.4943
712	 63.2624
696	 63.1158
680	 62.6793
664	 62.5849
648	 62.5351
632	 62.0765
616	 62.349
600	 61.6026
584	 61.7007
568	 60.7899
552	 60.5564
536	 61.0653
520	 60.0875
504	 60.577
488	 59.7194
472	 57.7035
456	 58.2473
440	 56.2517
424	 55.0304
408	 58.4081
392	 62.8581
376	 37.1161
370	 26.4903

File: C-4040-8_t58.asc
PE IR       SPECTRUM    SPECTRUM    ASCII       PEDS        1.60
  -1
C-C93A~1.ASC
17/03/27
19:14:32.00
17/03/27
19:14:58.00
tln
$C-4040-8_t0058$<tbV0>[7.8,0.0,8.0,0.0,27,1,0]
27.028
64

2002,4.07
MIRTGS : RIGHTBACK : INTERNAL 2
MIR : ON : INTERNAL 2
OPTKBR

0.200000
8
8.000000
FILLER
RATIO
SPECTRUM
UNLOCKED 256

DOUBLE
64
COMBINED
1
0
0

0.002000
RATIO

1
0
TRUE
51149
0
LEFT NOT FITTED RIGHT NOT FITTED 0
NONE
NONE
15600
12
4.427000
51148
TRUE
1 0 8 72 0 0 0 0

15798

#HDR
-1
-1
#GR
µM
%T
2.38419e-05
0.0
2.000000
0.002000
12515
8
73.5809
29.2642
#DATA
2.000000	 65.1107
2.084000	 64.9372
2.168000	 64.6177
2.252000	 65.2747
2.336000	 65.7312
2.420000	 65.1529
2.504000	 65.1951
2.588000	 65.1457
2.672000	 65.097
2.756000	 65.1975
2.840000	 65.2306
2.924000	 65.1512
3.008000	 65.36
3.092000	 65.3308
3.176000	 65.0396
3.260000	 65.1927
3.344000	 65.1354
3.428000	 64.9813
3.512000	 64.9638
3.596000	 65.1032
3.680000	 65.1283
3.764000	 65.2115
3.848000	 65.2553
3.932000	 65.2902
4.016000	 65.0815
4.100000	 65.4739
4.184000	 65.3237
4.268000	 65.2468
4.352000	 65.3964
4.436000	 65.3818
4.520000	 65.3267
4.604000	 65.0611
4.688000	 65.2384
4.772000	 65.3141
4.856000	 65.059
4.940000	 65.4091
5.024000	 65.2688
5.108000	 65.2907
5.192000	 65.3281
5.276000	 65.2791
5.359999	 65.208
5.444000	 65.3235
5.528000	 65.2138
5.612000	 65.2793
5.696000	 65.2707
5.780000	 65.0207
5.864000	 65.0809
5.948000	 65.3314
6.032000	 65.1147
6.116000	 65.0657
6.200000	 65.011
6.284000	 65.0973
6.368000	 65.0916
6.452000	 65.1634
6.536000	 64.9436
6.620000	 65.0573
6.704000	 65.0572
6.788000	 65.1126
6.872000	 64.5867
6.956000	 65.0056
7.040000	 65.0438
7.124000	 65.0844
7.208000	 65.0768
7.292000	 64.9478
7.376000	 65.1032
7.460000	 65.0099
7.544000	 65.06
7.628000	 64.9447
7.712000	 65.0154
7.796000	 64.9342
7.880000	 64.7213
7.964000	 64.8829
8.048000	 65.0208
8.132000	 64.773
8.216000	 64.8686
8.300000	 64.8651
8.384000	 64.8196
8.468000	 64.6693
8.552000	 64.843
8.635999	 64.8819
8.719999	 65.1666
8.804000	 64.125
8.888000	 64.8089
8.972000	 64.7086
9.056000	 64.3185
9.140000	 64.8599
9.224000	 65.0915
9.308000	 64.6448
9.391999	 64.7341
9.475999	 64.8327
9.560000	 64.2835
9.644000	 64.4102
9.728000	 64.2415
9.812000	 64.107
9.896000	 64.6446
9.980000	 64.5534
10.064	64.6175
10.148	64.4906
10.232	64.3546
10.316	64.2633
10.4	64.4212
10.484	64.5192
10.568	64.4369
10.652	64.3289
10.736	64.4531
10.82	64.4717
10.904	64.3325
10.988	64.4043
11.072	64.3924
11.156	64.2113
11.24	64.1346
11.324	64.372
11.408	64.2991
11.492	64.4212
11.576	64.3667
11.66	64.1751
11.744	64.182
11.828	64.233
11.912	64.0774
11.996	64.1059
12.08	64.0289
12.164	64.1275
12.248	64.1952
12.332	64.0903
12.416	63.8331
12.5	63.7013
12.584	63.6373
12.668	63.7475
12.752	63.7648
12.836	63.6886
12.92	63.6856
13.004	63.8183
13.088	63.6157
13.172	63.1519
13.256	63.4053
13.34	64.1236
13.424	64.0409
13.508	63.5483
13.592	63.3291
13.676	63.1261
13.76	62.7597
13.844	62.5209
13.928	62.989
14.012	63.4167
14.096	63.2573
14.18	63.3002
14.264	63.5509
14.348	63.5732
14.432	63.3902
14.516	63.2016
14.6	62.9944
14.684	62.6645
14.768	62.3849
14.852	62.2672
14.936	62.2202
15.02	62.2674
15.104	62.5363
15.188	62.9124
15.272	63.0588
15.356	62.899
15.44	62.5971
15.524	62.3317
15.608	62.2512
15.692	62.2361
15.776	62.1392
15.86	62.0417
15.944	62.0008
16.028	61.9717
16.112	61.9575
16.196	62.0237
16.28	62.1972
16.364	62.3832
16.448	62.4933
16.532	62.5157
16.616	62.4444
16.7	62.2679
16.784	62.0159
16.868	61.7689
16.952	61.5835
17.036	61.4227
17.12	61.2191
17.204	61.0079
17.288	60.8927
17.372	60.8944
17.456	60.9182
17.54	60.8867
17.624	60.8573
17.708	60.9203
17.792	61.037
17.876	61.0963
17.96	61.0898
18.044	61.1089
18.128	61.1999
18.212	61.3252
18.296	61.4428
18.38	61.5411
18.464	61.5994
18.548	61.5782
18.632	61.4547
18.716	61.2582
18.8	61.0675
18.884	60.9615
18.968	60.9305
19.052	60.8423
19.136	60.5742
19.22	60.1785
19.304	59.8731
19.388	59.8325
19.472	60.0293
19.556	60.2796
19.64	60.4226
19.724	60.4378
19.808	60.4016
19.892	60.3794
19.976	60.3788
20.06	60.3773
20.144	60.3565
20.228	60.2979
20.312	60.1667
20.396	59.9185
20.48	59.5253
20.564	59.0047
20.648	58.4334
20.732	57.9262
20.816	57.5921
20.9	57.4704
20.984	57.5186
21.068	57.6378
21.152	57.7385
21.236	57.7839
21.32	57.7985
21.404	57.8203
21.488	57.853
21.572	57.857
21.656	57.7914
21.74	57.6558
21.824	57.4726
21.908	57.2552
21.992	56.9897
22.076	56.6477
22.16	56.2355
22.244	55.7908
22.328	55.3718
22.412	55.0071
22.496	54.6849
22.58	54.3693
22.664	54.0267
22.748	53.6435
22.832	53.226
22.916	52.799
23	52.4661
23.084	52.3593
23.168	52.6312
23.252	53.3754
23.336	54.5575
23.42	55.9912
23.504	57.4464
23.588	58.7165
23.672	59.6894
23.756	60.3989
23.84	60.9288
23.924	61.3329
24.008	61.6352
24.092	61.8596
24.176	62.011
24.26	62.0064
24.344	61.5963
24.428	60.4637
24.512	58.4069
24.596	55.4778
24.68	52.0101
24.764	48.5734
24.848	45.7579
24.932	44.3097
25.016	44.9349
25.1	48.1013
25.184	53.6269
25.268	60.4909
25.352	67.0815
25.436	71.7643
25.52	73.57
25.604	72.4306
25.688	69.0178
25.772	64.3778
25.856	59.4318
25.94	54.8328
26.024	50.883
26.108	47.5665
26.192	44.7054
26.276	42.0599
26.36	39.3807
26.444	36.54
26.528	33.6667
26.612	31.1072
26.696	29.4907
26.78	29.5379
26.864	31.7835
26.948	36.1588
27.028	41.3785

File: C-4040-8_t58_cm-1.asc
PE IR       SPECTRUM    SPECTRUM    ASCII       PEDS        1.60
  -1
C-1C65~1.ASC
17/03/27
19:14:32.00
17/03/27
19:14:32.00
tln
$C-4040-8_t0058$<tbV0>[7.8,0.0,8.0,0.0,27,1,0]
370
64

2002,4.07
MIRTGS : RIGHTBACK : INTERNAL 2
MIR : ON : INTERNAL 2
OPTKBR

0.200000
8
8.000000
FILLER
RATIO
SPECTRUM
UNLOCKED 256

DOUBLE
64
COMBINED
1
0
0

1.000000
RATIO

1
0
TRUE
51149
0
LEFT NOT FITTED RIGHT NOT FITTED 0
NONE
NONE
15600
12
4.427000
51148
TRUE
1 0 8 72 0 0 0 0

15798

#HDR
-1
-1
#GR
CM-1
%T
2.38419e-05
0.0
5000
-1.000000
4631
8
73.5169
29.2659
#DATA
5000	65.1107
4984	65.491
4968	64.9515
4952	65.1582
4936	65.42
4920	65.1354
4904	64.9467
4888	64.1095
4872	63.5783
4856	64.7718
4840	64.9116
4824	64.9723
4808	64.8507
4792	64.8368
4776	65.2948
4760	64.8604
4744	64.6662
4728	64.6064
4712	65.1499
4696	64.5543
4680	64.9206
4664	64.5655
4648	64.9466
4632	64.5476
4616	64.6842
4600	65.1616
4584	64.852
4568	64.4967
4552	64.168
4536	64.8056
4520	65.4547
4504	64.9868
4488	64.9104
4472	65.3296
4456	65.8751
4440	65.2615
4424	65.6081
4408	65.6029
4392	65.5018
4376	64.1858
4360	51.7384
4344	65.7994
4328	66.3364
4312	65.6054
4296	65.8135
4280	65.7001
4264	65.3306
4248	64.8905
4232	64.8047
4216	65.1517
4200	64.8957
4184	64.8822
4168	65.5672
4152	65.1303
4136	65.322
4120	64.9486
4104	64.9975
4088	65.1534
4072	65.1172
4056	65.1375
4040	65.2309
4024	64.9277
4008	65.0412
3992	65.2005
3976	65.0496
3960	65.0507
3944	65.2649
3928	64.8223
3912	65.172
3896	65.1958
3880	65.0913
3864	65.1464
3848	65.1342
3832	65.0671
3816	64.9817
3800	65.2914
3784	65.3336
3768	65.1763
3752	65.0999
3736	65.0529
3720	65.2583
3704	65.0326
3688	65.2657
3672	65.1711
3656	65.1007
3640	65.1867
3624	65.2218
3608	65.1736
3592	64.9757
3576	65.4395
3560	65.0448
3544	65.2727
3528	65.1152
3512	65.262
3496	65.2431
3480	65.1676
3464	65.2425
3448	65.2747
3432	65.3669
3416	65.2124
3400	65.2845
3384	65.2313
3368	65.1439
3352	65.1675
3336	65.254
3320	65.2949
3304	65.1974
3288	64.9511
3272	65.0369
3256	65.4089
3240	65.1314
3224	65.3133
3208	64.9262
3192	65.2363
3176	65.3421
3160	65.1659
3144	64.8372
3128	65.4515
3112	64.9711
3096	65.1527
3080	65.1123
3064	65.2922
3048	65.3593
3032	65.0765
3016	65.1558
3000	65.1744
2984	65.0414
2968	65.1715
2952	65.2503
2936	64.9857
2920	65.0126
2904	65.1765
2888	65.1172
2872	65.1605
2856	64.9906
2840	64.9182
2824	65.0635
2808	65.2407
2792	64.9947
2776	65.2186
2760	65.3198
2744	65.2197
2728	65.2722
2712	65.1315
2696	65.2135
2680	65.1995
2664	65.2245
2648	65.244
2632	65.338
2616	65.2771
2600	65.2734
2584	65.3135
2568	65.216
2552	65.4607
2536	65.2597
2520	65.2658
2504	65.17
2488	65.1349
2472	65.2235
2456	65.3506
2440	65.4397
2424	65.4873
2408	65.0999
2392	65.3105
2376	65.2572
2360	65.2883
2344	65.2448
2328	65.3876
2312	65.2422
2296	65.3704
2280	65.1421
2264	65.2946
2248	65.4858
2232	65.403
2216	65.343
2200	65.3336
2184	65.2296
2168	65.0709
2152	65.3064
2136	65.2322
2120	65.2851
2104	65.3807
2088	65.3561
2072	65.3228
2056	65.1728
2040	65.2047
2024	65.4032
2008	65.3023
1992	65.2613
1976	65.2814
1960	65.2983
1944	65.2356
1928	65.3203
1912	65.3488
1896	65.2682
1880	65.358
1864	65.2399
1848	65.1595
1832	65.3858
1816	65.2679
1800	65.1794
1784	65.2818
1768	65.3009
1752	65.2562
1736	65.0677
1720	64.8816
1704	65.1042
1688	65.2435
1672	65.3483
1656	65.1218
1640	65.1298
1624	65.1362
1608	65.0263
1592	65.1047
1576	65.0363
1560	65.046
1544	65.0613
1528	64.9181
1512	65.0744
1496	65.1009
1480	65.0836
1464	65.0543
1448	64.7672
1432	64.9939
1416	65.1506
1400	65.1343
1384	65.1095
1368	64.8985
1352	65.0469
1336	65.0345
1320	65.0692
1304	64.9414
1288	64.9434
1272	64.7354
1256	64.8932
1240	65.0048
1224	64.7963
1208	64.9045
1192	64.8242
1176	64.7138
1160	64.9725
1144	65.0754
1128	64.5499
1112	64.5749
1096	64.8143
1080	64.825
1064	64.7209
1048	64.3823
1032	64.2756
1016	64.193
1000	64.601
984	 64.442
968	 64.233
952	 64.4886
936	 64.3142
920	 64.3476
904	 64.4078
888	 64.1848
872	 64.3764
856	 64.1394
840	 64.0793
824	 64.083
808	 63.9421
792	 63.6907
776	 63.6611
760	 63.2045
744	 63.9361
728	 62.8777
712	 63.3872
696	 63.5407
680	 62.577
664	 62.3663
648	 62.6271
632	 62.0773
616	 62.0919
600	 62.35
584	 61.2104
568	 60.8576
552	 61.1834
536	 61.4017
520	 60.1296
504	 60.3893
488	 59.4589
472	 57.7635
456	 57.1923
440	 53.7413
424	 58.6749
408	 58.4723
392	 73.5169
376	 31.5459
370	 41.3785