Folder: Masteroppgave/Bakgrunnsmateriale/MATLAB/FTIR/ftir_data/subBb/Mapping_121 (part 33)

File: C-4040-8_t74.asc
PE IR       SPECTRUM    SPECTRUM    ASCII       PEDS        1.60
  -1
C-B14A~1.ASC
17/03/27
20:35:06.00
17/03/27
20:35:32.00
tln
$C-4040-8_t0074$<tbV0>[-5.2,2.6,8.0,0.0,27,1,0]
27.028
64

2002,4.07
MIRTGS : RIGHTBACK : INTERNAL 2
MIR : ON : INTERNAL 2
OPTKBR

0.200000
8
8.000000
FILLER
RATIO
SPECTRUM
UNLOCKED 256

DOUBLE
64
COMBINED
1
0
0

0.002000
RATIO

1
0
TRUE
51149
0
LEFT NOT FITTED RIGHT NOT FITTED 0
NONE
NONE
15600
12
4.427000
51148
TRUE
1 0 8 72 0 0 0 0

15798

#HDR
-1
-1
#GR
µM
%T
2.38419e-05
0.0
2.000000
0.002000
12515
8
75.6628
4.526193
#DATA
2.000000	 64.9391
2.084000	 65.4459
2.168000	 64.8403
2.252000	 65.6822
2.336000	 65.426
2.420000	 65.0166
2.504000	 65.403
2.588000	 65.3546
2.672000	 65.3763
2.756000	 65.2579
2.840000	 65.2988
2.924000	 65.1678
3.008000	 65.1998
3.092000	 65.0728
3.176000	 65.2429
3.260000	 65.3869
3.344000	 65.2426
3.428000	 64.7543
3.512000	 65.2859
3.596000	 65.3778
3.680000	 65.4525
3.764000	 65.3948
3.848000	 65.3215
3.932000	 65.2973
4.016000	 65.4594
4.100000	 65.4922
4.184000	 65.3061
4.268000	 65.3808
4.352000	 65.3023
4.436000	 65.3608
4.520000	 65.3266
4.604000	 65.2868
4.688000	 65.4292
4.772000	 65.321
4.856000	 65.5862
4.940000	 65.4625
5.024000	 65.4108
5.108000	 65.4375
5.192000	 65.4353
5.276000	 65.4236
5.359999	 65.353
5.444000	 65.4204
5.528000	 65.4725
5.612000	 65.3369
5.696000	 65.4914
5.780000	 65.2343
5.864000	 65.3567
5.948000	 65.4868
6.032000	 65.3357
6.116000	 65.2966
6.200000	 65.0247
6.284000	 65.1867
6.368000	 65.0988
6.452000	 64.9042
6.536000	 65.124
6.620000	 65.0983
6.704000	 65.1672
6.788000	 65.2562
6.872000	 65.1476
6.956000	 65.0629
7.040000	 65.1619
7.124000	 65.2354
7.208000	 65.118
7.292000	 65.2256
7.376000	 65.1578
7.460000	 65.1361
7.544000	 65.1777
7.628000	 64.9743
7.712000	 65.128
7.796000	 65.2354
7.880000	 65.0395
7.964000	 65.1479
8.048000	 65.0465
8.132000	 65.0136
8.216000	 65.0124
8.300000	 65.2661
8.384000	 65.0656
8.468000	 65.1757
8.552000	 64.8449
8.635999	 64.8107
8.719999	 64.7366
8.804000	 64.8442
8.888000	 64.9235
8.972000	 64.9588
9.056000	 64.7974
9.140000	 64.5589
9.224000	 64.8273
9.308000	 65.0039
9.391999	 64.7849
9.475999	 64.9379
9.560000	 64.8451
9.644000	 64.9433
9.728000	 64.7511
9.812000	 64.612
9.896000	 64.6563
9.980000	 64.9427
10.064	65.2181
10.148	65.0114
10.232	64.7456
10.316	65.328
10.4	64.5798
10.484	64.951
10.568	64.8175
10.652	64.6752
10.736	64.6915
10.82	64.8054
10.904	65.1577
10.988	64.9592
11.072	64.9516
11.156	65.2266
11.24	64.9081
11.324	64.82
11.408	65.0021
11.492	64.7434
11.576	64.7118
11.66	64.4367
11.744	64.1434
11.828	64.5497
11.912	64.8581
11.996	64.8342
12.08	64.604
12.164	64.3751
12.248	64.5459
12.332	64.5587
12.416	64.4626
12.5	64.6062
12.584	64.411
12.668	64.464
12.752	64.5383
12.836	64.4085
12.92	64.365
13.004	64.4723
13.088	64.7535
13.172	64.5142
13.256	64.1763
13.34	64.3352
13.424	64.3391
13.508	63.9193
13.592	63.6065
13.676	63.6773
13.76	63.635
13.844	63.6678
13.928	63.7963
14.012	63.6554
14.096	63.5749
14.18	63.7243
14.264	63.8452
14.348	63.6931
14.432	63.3839
14.516	63.2965
14.6	63.4417
14.684	63.5618
14.768	63.384
14.852	63.2066
14.936	63.2762
15.02	63.0499
15.104	62.606
15.188	62.6106
15.272	62.8708
15.356	62.933
15.44	62.9266
15.524	62.9906
15.608	62.8837
15.692	62.5944
15.776	62.5983
15.86	62.9995
15.944	63.2164
16.028	62.9819
16.112	62.7193
16.196	62.6936
16.28	62.7116
16.364	62.7136
16.448	62.9186
16.532	63.3166
16.616	63.5489
16.7	63.3494
16.784	62.8512
16.868	62.4488
16.952	62.4097
17.036	62.6653
17.12	62.9566
17.204	63.0941
17.288	63.0561
17.372	62.9529
17.456	62.8915
17.54	62.8474
17.624	62.7596
17.708	62.6475
17.792	62.5245
17.876	62.3474
17.96	62.1542
18.044	62.0931
18.128	62.2137
18.212	62.3609
18.296	62.3797
18.38	62.3169
18.464	62.3078
18.548	62.3458
18.632	62.2687
18.716	61.9913
18.8	61.6428
18.884	61.4278
18.968	61.4104
19.052	61.476
19.136	61.4826
19.22	61.3907
19.304	61.2699
19.388	61.2268
19.472	61.3335
19.556	61.5668
19.64	61.7981
19.724	61.8732
19.808	61.7303
19.892	61.4443
19.976	61.1526
20.06	60.95
20.144	60.8602
20.228	60.8763
20.312	60.9857
20.396	61.153
20.48	61.2962
20.564	61.3267
20.648	61.2187
20.732	61.0218
20.816	60.8002
20.9	60.5801
20.984	60.3673
21.068	60.1794
21.152	60.0433
21.236	59.964
21.32	59.9305
21.404	59.9571
21.488	60.1057
21.572	60.4377
21.656	60.9164
21.74	61.3858
21.824	61.6577
21.908	61.6447
21.992	61.4163
22.076	61.1281
22.16	60.9004
22.244	60.7513
22.328	60.6229
22.412	60.4537
22.496	60.231
22.58	59.9869
22.664	59.7644
22.748	59.6135
22.832	59.6051
22.916	59.821
23	60.3053
23.084	60.9735
23.168	61.6156
23.252	61.9782
23.336	61.812
23.42	61.0598
23.504	59.8646
23.588	58.5129
23.672	57.31
23.756	56.4978
23.84	56.1407
23.924	56.1559
24.008	56.3577
24.092	56.5325
24.176	56.5785
24.26	56.5152
24.344	56.4095
24.428	56.245
24.512	55.8531
24.596	54.8058
24.68	52.5666
24.764	48.828
24.848	43.7195
24.932	37.996
25.016	32.8772
25.1	29.6386
25.184	29.1693
25.268	31.5836
25.352	36.3572
25.436	42.3359
25.52	48.3355
25.604	53.7216
25.688	58.4486
25.772	62.8682
25.856	67.235
25.94	71.4218
26.024	74.6438
26.108	75.6022
26.192	73.0144
26.276	66.1353
26.36	55.1901
26.444	41.5742
26.528	27.5456
26.612	15.5334
26.696	7.552964
26.78	4.543116
26.864	6.502236
26.948	13.0027
27.028	23.1457

File: C-4040-8_t74_cm-1.asc
PE IR       SPECTRUM    SPECTRUM    ASCII       PEDS        1.60
  -1
C-1D6F~1.ASC
17/03/27
20:35:06.00
17/03/27
20:35:06.00
tln
$C-4040-8_t0074$<tbV0>[-5.2,2.6,8.0,0.0,27,1,0]
370
64

2002,4.07
MIRTGS : RIGHTBACK : INTERNAL 2
MIR : ON : INTERNAL 2
OPTKBR

0.200000
8
8.000000
FILLER
RATIO
SPECTRUM
UNLOCKED 256

DOUBLE
64
COMBINED
1
0
0

1.000000
RATIO

1
0
TRUE
51149
0
LEFT NOT FITTED RIGHT NOT FITTED 0
NONE
NONE
15600
12
4.427000
51148
TRUE
1 0 8 72 0 0 0 0

15798

#HDR
-1
-1
#GR
CM-1
%T
2.38419e-05
0.0
5000
-1.000000
4631
8
75.587
4.694247
#DATA
5000	64.9391
4984	65.4353
4968	65.1685
4952	66.2104
4936	64.9989
4920	65.1906
4904	65.4703
4888	65.45
4872	65.9521
4856	64.8799
4840	64.9561
4824	65.0474
4808	65.0969
4792	65.4256
4776	65.1167
4760	65.0923
4744	65.0773
4728	64.8298
4712	65.0832
4696	65.3846
4680	65.4963
4664	65.1629
4648	65.4001
4632	65.7013
4616	64.9849
4600	64.8241
4584	65.2572
4568	64.9896
4552	65.1667
4536	65.7691
4520	65.3873
4504	64.8548
4488	65.0053
4472	65.0114
4456	65.0092
4440	65.6846
4424	65.1525
4408	63.9889
4392	63.5526
4376	60.0631
4360	65.0018
4344	66.3256
4328	65.9085
4312	65.5991
4296	65.8308
4280	65.4479
4264	65.1267
4248	65.1197
4232	65.3648
4216	65.2105
4200	65.2313
4184	65.644
4168	65.5931
4152	65.2411
4136	65.012
4120	65.2122
4104	64.9736
4088	65.0057
4072	64.9725
4056	65.0324
4040	65.2897
4024	65.2817
4008	65.3403
3992	65.3823
3976	64.9517
3960	65.278
3944	65.0674
3928	65.2455
3912	65.4231
3896	65.3496
3880	64.9958
3864	65.3549
3848	65.1827
3832	65.1951
3816	65.1738
3800	65.2362
3784	65.114
3768	65.4506
3752	65.4567
3736	65.2395
3720	65.2766
3704	65.2788
3688	65.3823
3672	65.4061
3656	65.4179
3640	65.1522
3624	65.3466
3608	65.3152
3592	65.3678
3576	65.3382
3560	65.1389
3544	65.2725
3528	65.3521
3512	65.1547
3496	65.2743
3480	65.4757
3464	65.3464
3448	65.4019
3432	65.1655
3416	65.3406
3400	65.0229
3384	65.5098
3368	65.2996
3352	65.1656
3336	65.3997
3320	65.3106
3304	65.1964
3288	65.277
3272	65.2537
3256	65.3702
3240	64.9696
3224	65.2569
3208	65.0915
3192	65.4836
3176	65.2442
3160	65.2697
3144	65.2811
3128	65.0121
3112	65.3349
3096	65.4378
3080	65.2944
3064	65.3422
3048	65.1858
3032	65.3639
3016	65.1918
3000	65.2085
2984	65.1272
2968	65.2342
2952	65.0919
2936	65.0288
2920	64.7451
2904	65.1721
2888	65.1968
2872	65.1932
2856	65.133
2840	65.1516
2824	65.3111
2808	65.3112
2792	65.4077
2776	65.3429
2760	65.3261
2744	65.3894
2728	65.259
2712	65.537
2696	65.542
2680	65.3797
2664	65.321
2648	65.2886
2632	65.5512
2616	65.3377
2600	65.314
2584	65.427
2568	65.2822
2552	65.4607
2536	65.3688
2520	65.3904
2504	65.3654
2488	65.405
2472	65.4031
2456	65.3914
2440	65.4874
2424	65.4288
2408	65.2882
2392	65.2979
2376	65.4678
2360	65.2925
2344	65.3783
2328	65.4258
2312	65.2831
2296	65.3036
2280	65.4384
2264	65.4174
2248	65.4839
2232	65.4364
2216	65.2941
2200	65.4158
2184	65.4521
2168	65.2944
2152	65.428
2136	65.502
2120	65.3442
2104	65.4
2088	65.3974
2072	65.7854
2056	65.6041
2040	65.445
2024	65.4631
2008	65.5683
1992	65.3831
1976	65.3864
1960	65.4059
1944	65.4276
1928	65.4296
1912	65.4288
1896	65.4138
1880	65.3247
1864	65.3643
1848	65.3317
1832	65.3969
1816	65.461
1800	65.3092
1784	65.3129
1768	65.3606
1752	65.4065
1736	65.2203
1720	65.2401
1704	65.3578
1688	65.4445
1672	65.3701
1656	65.3424
1640	65.4191
1624	65.2333
1608	65.0035
1592	65.1646
1576	65.2106
1560	65.2381
1544	65.2121
1528	65.1489
1512	65.0933
1496	65.1853
1480	65.2885
1464	65.2775
1448	65.0943
1432	65.0756
1416	65.207
1400	65.2037
1384	65.1569
1368	65.1441
1352	65.1513
1336	65.2014
1320	65.1434
1304	65.0414
1288	65.1722
1272	65.0508
1256	65.1503
1240	65.0595
1224	64.8962
1208	65.2718
1192	65.0745
1176	65.0436
1160	64.7938
1144	64.6869
1128	64.8763
1112	64.9593
1096	64.5926
1080	65.1075
1064	64.7959
1048	64.8384
1032	64.847
1016	64.6739
1000	65.0432
984	 64.9536
968	 65.2771
952	 64.969
936	 64.6988
920	 65.0403
904	 64.9246
888	 64.7995
872	 64.8093
856	 64.3074
840	 64.8461
824	 64.419
808	 64.462
792	 64.386
776	 64.3697
760	 64.5964
744	 64.2825
728	 63.6611
712	 63.5914
696	 63.6185
680	 63.5456
664	 62.8149
648	 62.9229
632	 62.8033
616	 62.7097
600	 63.4811
584	 62.9655
568	 62.7824
552	 62.1899
536	 62.2062
520	 61.3748
504	 61.6263
488	 61.3087
472	 60.0046
456	 61.6003
440	 59.6407
424	 58.5612
408	 55.8704
392	 47.664
376	 17.5668
370	 23.1457

File: C-4040-8_t75.asc
PE IR       SPECTRUM    SPECTRUM    ASCII       PEDS        1.60
  -1
C-B14E~1.ASC
17/03/27
20:39:43.00
17/03/27
20:40:09.00
tln
$C-4040-8_t0075$<tbV0>[-7.8,2.6,8.0,0.0,27,1,0]
27.028
64

2002,4.07
MIRTGS : RIGHTBACK : INTERNAL 2
MIR : ON : INTERNAL 2
OPTKBR

0.200000
8
8.000000
FILLER
RATIO
SPECTRUM
UNLOCKED 256

DOUBLE
64
COMBINED
1
0
0

0.002000
RATIO

1
0
TRUE
51149
0
LEFT NOT FITTED RIGHT NOT FITTED 0
NONE
NONE
15600
12
4.427000
51148
TRUE
1 0 8 72 0 0 0 0

15798

#HDR
-1
-1
#GR
µM
%T
2.38419e-05
0.0
2.000000
0.002000
12515
8
79.4645
29.3774
#DATA
2.000000	 65.2743
2.084000	 64.8053
2.168000	 65.0279
2.252000	 65.097
2.336000	 65.0237
2.420000	 64.6703
2.504000	 64.9311
2.588000	 65.1832
2.672000	 65.2055
2.756000	 65.0339
2.840000	 65.2167
2.924000	 65.0475
3.008000	 65.1222
3.092000	 65.1858
3.176000	 65.1548
3.260000	 65.2172
3.344000	 65.0967
3.428000	 64.6113
3.512000	 64.865
3.596000	 65.2269
3.680000	 65.1671
3.764000	 65.1113
3.848000	 65.1229
3.932000	 65.2344
4.016000	 65.1926
4.100000	 65.3502
4.184000	 65.2316
4.268000	 65.2183
4.352000	 65.3051
4.436000	 65.255
4.520000	 65.1683
4.604000	 65.1522
4.688000	 65.1461
4.772000	 65.2671
4.856000	 65.1073
4.940000	 65.2993
5.024000	 65.0839
5.108000	 65.1586
5.192000	 65.2697
5.276000	 65.211
5.359999	 65.0154
5.444000	 65.2393
5.528000	 65.0901
5.612000	 65.1787
5.696000	 65.3085
5.780000	 65.0695
5.864000	 64.9809
5.948000	 65.1641
6.032000	 65.0987
6.116000	 65.1493
6.200000	 64.9385
6.284000	 65.0193
6.368000	 65.0056
6.452000	 64.8368
6.536000	 65.0155
6.620000	 64.9466
6.704000	 65.0441
6.788000	 65.0338
6.872000	 64.9751
6.956000	 65.0789
7.040000	 65.0196
7.124000	 64.8668
7.208000	 64.964
7.292000	 65.082
7.376000	 65.0715
7.460000	 65.0055
7.544000	 65.0462
7.628000	 64.9427
7.712000	 64.984
7.796000	 65.0105
7.880000	 64.9245
7.964000	 64.9808
8.048000	 64.7887
8.132000	 64.9515
8.216000	 64.821
8.300000	 64.8476
8.384000	 64.7247
8.468000	 64.889
8.552000	 64.7328
8.635999	 64.735
8.719999	 64.5547
8.804000	 64.5895
8.888000	 64.6638
8.972000	 64.7656
9.056000	 64.7275
9.140000	 64.6014
9.224000	 64.5229
9.308000	 64.531
9.391999	 64.5129
9.475999	 64.6922
9.560000	 64.7362
9.644000	 64.6763
9.728000	 64.4169
9.812000	 64.5328
9.896000	 64.5072
9.980000	 64.6929
10.064	64.7248
10.148	64.4399
10.232	64.3534
10.316	64.7251
10.4	64.5155
10.484	64.8392
10.568	65.0073
10.652	64.6123
10.736	64.242
10.82	64.4811
10.904	64.0841
10.988	64.1096
11.072	64.1774
11.156	64.5676
11.24	64.688
11.324	64.5201
11.408	64.4293
11.492	64.5362
11.576	64.5079
11.66	64.2876
11.744	64.3954
11.828	64.4356
11.912	64.5156
11.996	64.596
12.08	64.6388
12.164	64.5148
12.248	64.3224
12.332	64.3423
12.416	64.1755
12.5	64.1843
12.584	63.9991
12.668	64.1225
12.752	64.4807
12.836	64.5818
12.92	64.3281
13.004	64.1381
13.088	64.0645
13.172	63.9995
13.256	63.9922
13.34	63.943
13.424	63.8664
13.508	63.7369
13.592	63.5715
13.676	63.5481
13.76	63.5329
13.844	63.6083
13.928	63.4802
14.012	63.2686
14.096	63.3193
14.18	63.4118
14.264	63.3369
14.348	63.3023
14.432	63.3455
14.516	63.2936
14.6	63.2375
14.684	63.3218
14.768	63.3183
14.852	63.1064
14.936	63
15.02	62.9737
15.104	62.7567
15.188	62.5627
15.272	62.6425
15.356	62.8384
15.44	62.9746
15.524	62.9985
15.608	62.8849
15.692	62.7155
15.776	62.5805
15.86	62.5679
15.944	62.7004
16.028	62.7508
16.112	62.6017
16.196	62.4578
16.28	62.4479
16.364	62.5483
16.448	62.7212
16.532	62.8352
16.616	62.7684
16.7	62.5724
16.784	62.3842
16.868	62.3482
16.952	62.5093
17.036	62.7333
17.12	62.8786
17.204	62.9481
17.288	62.9736
17.372	62.9466
17.456	62.9055
17.54	62.8935
17.624	62.8457
17.708	62.6694
17.792	62.4107
17.876	62.2313
17.96	62.2054
18.044	62.2328
18.128	62.1804
18.212	62.0491
18.296	61.9552
18.38	61.971
18.464	62.0537
18.548	62.1137
18.632	62.1132
18.716	62.0785
18.8	62.0351
18.884	61.9532
18.968	61.7822
19.052	61.5489
19.136	61.3891
19.22	61.4325
19.304	61.6325
19.388	61.781
19.472	61.7157
19.556	61.4765
19.64	61.2311
19.724	61.0869
19.808	61.0059
19.892	60.901
19.976	60.7798
20.06	60.7628
20.144	60.9389
20.228	61.253
20.312	61.5532
20.396	61.7481
20.48	61.8717
20.564	61.9955
20.648	62.1079
20.732	62.1072
20.816	61.9259
20.9	61.6119
20.984	61.2701
21.068	60.9484
21.152	60.6095
21.236	60.2195
21.32	59.8375
21.404	59.6148
21.488	59.683
21.572	60.0322
21.656	60.4927
21.74	60.8248
21.824	60.8477
21.908	60.5299
21.992	59.9803
22.076	59.3691
22.16	58.8344
22.244	58.4481
22.328	58.2361
22.412	58.2251
22.496	58.4526
22.58	58.9161
22.664	59.5307
22.748	60.1169
22.832	60.4906
22.916	60.5605
23	60.4071
23.084	60.2095
23.168	60.1036
23.252	60.0462
23.336	59.8357
23.42	59.261
23.504	58.2589
23.588	57.0117
23.672	55.8447
23.756	55.056
23.84	54.7941
23.924	54.9885
24.008	55.4501
24.092	56.0012
24.176	56.5214
24.26	56.975
24.344	57.3415
24.428	57.5734
24.512	57.5989
24.596	57.401
24.68	57.0567
24.764	56.723
24.848	56.5985
24.932	56.7794
25.016	57.1513
25.1	57.4407
25.184	57.2409
25.268	56.2228
25.352	54.3235
25.436	51.5659
25.52	48.1404
25.604	44.4329
25.688	40.7921
25.772	37.4461
25.856	34.519
25.94	32.1281
26.024	30.4102
26.108	29.5062
26.192	29.4764
26.276	30.3581
26.36	32.1373
26.444	34.8338
26.528	38.4248
26.612	42.8026
26.696	47.592
26.78	52.0907
26.864	55.5203
26.948	57.5556
27.028	58.7693

File: C-4040-8_t75_cm-1.asc
PE IR       SPECTRUM    SPECTRUM    ASCII       PEDS        1.60
  -1
C-1DEE~1.ASC
17/03/27
20:39:43.00
17/03/27
20:39:43.00
tln
$C-4040-8_t0075$<tbV0>[-7.8,2.6,8.0,0.0,27,1,0]
370
64

2002,4.07
MIRTGS : RIGHTBACK : INTERNAL 2
MIR : ON : INTERNAL 2
OPTKBR

0.200000
8
8.000000
FILLER
RATIO
SPECTRUM
UNLOCKED 256

DOUBLE
64
COMBINED
1
0
0

1.000000
RATIO

1
0
TRUE
51149
0
LEFT NOT FITTED RIGHT NOT FITTED 0
NONE
NONE
15600
12
4.427000
51148
TRUE
1 0 8 72 0 0 0 0

15798

#HDR
-1
-1
#GR
CM-1
%T
2.38419e-05
0.0
5000
-1.000000
4631
8
79.8965
29.4175
#DATA
5000	65.2743
4984	64.5983
4968	64.5141
4952	66.2722
4936	64.6171
4920	64.5544
4904	65.243
4888	64.7645
4872	65.6437
4856	65.1083
4840	64.9865
4824	64.9979
4808	65.3659
4792	64.35
4776	64.8689
4760	64.8429
4744	64.547
4728	65.254
4712	65.0699
4696	65.0698
4680	64.9515
4664	65.3931
4648	65.1847
4632	65.1099
4616	64.9076
4600	65.065
4584	64.6177
4568	64.9928
4552	64.987
4536	64.7629
4520	64.8818
4504	64.7
4488	65.2358
4472	64.6865
4456	64.717
4440	65.0997
4424	64.3284
4408	63.742
4392	63.4648
4376	68.3291
4360	64.1555
4344	65.6303
4328	65.0109
4312	64.968
4296	65.1248
4280	65.0432
4264	64.7654
4248	65.222
4232	64.8738
4216	64.8095
4200	64.9156
4184	64.8338
4168	64.9601
4152	65.2861
4136	64.7718
4120	64.9556
4104	65.2069
4088	65.1182
4072	64.9355
4056	65.0956
4040	65.1953
4024	65.1083
4008	65.1661
3992	64.9265
3976	65.298
3960	65.1287
3944	65.0003
3928	65.0166
3912	65.099
3896	65.1139
3880	64.9463
3864	65.1834
3848	65.0173
3832	65.0251
3816	65.5239
3800	65.1139
3784	65.0273
3768	65.1031
3752	65.2152
3736	64.9768
3720	65.0656
3704	65.088
3688	64.9273
3672	64.9802
3656	65.3691
3640	65.1619
3624	65.1659
3608	65.2914
3592	65.2044
3576	65.3465
3560	65.0676
3544	64.9798
3528	65.2224
3512	65.3556
3496	65.3208
3480	65.402
3464	65.0148
3448	65.0078
3432	65.206
3416	65.2766
3400	65.1883
3384	65.1346
3368	64.9418
3352	64.9198
3336	65.1405
3320	65.1566
3304	65.1039
3288	65.1214
3272	65.0905
3256	64.8883
3240	65.1036
3224	65.1391
3208	65.1241
3192	65.2982
3176	65.1999
3160	65.2145
3144	65.334
3128	65.1958
3112	65.1112
3096	65.1969
3080	64.9047
3064	65.2159
3048	65.0103
3032	65.2082
3016	65.1274
3000	64.9209
2984	64.9919
2968	64.7856
2952	64.929
2936	64.9988
2920	64.5804
2904	65.097
2888	65.0146
2872	64.9674
2856	64.9634
2840	65.0159
2824	65.0095
2808	65.1409
2792	65.1806
2776	65.3311
2760	65.187
2744	65.2526
2728	65.0694
2712	65.1858
2696	65.2499
2680	65.1993
2664	65.1404
2648	65.0524
2632	65.1862
2616	65.1304
2600	65.1037
2584	65.1229
2568	65.2095
2552	65.2154
2536	65.3007
2520	65.2209
2504	65.3415
2488	65.1848
2472	65.3022
2456	65.1056
2440	65.3558
2424	64.789
2408	64.9178
2392	65.2149
2376	65.2195
2360	65.0975
2344	65.1984
2328	65.2769
2312	65.2994
2296	65.2802
2280	65.2069
2264	65.1402
2248	65.2623
2232	65.2925
2216	65.2333
2200	65.1168
2184	65.2315
2168	65.1271
2152	65.3171
2136	65.0846
2120	65.2009
2104	65.289
2088	65.2261
2072	65.4061
2056	65.1814
2040	65.3126
2024	65.2972
2008	65.3044
1992	65.0733
1976	65.1432
1960	65.16
1944	65.1591
1928	65.2507
1912	65.2006
1896	65.203
1880	65.1142
1864	65.0371
1848	65.073
1832	65.2289
1816	65.2553
1800	65.0513
1784	65.188
1768	65.0773
1752	65.1901
1736	65.0813
1720	65.259
1704	64.9993
1688	65.2207
1672	65.1463
1656	65.1068
1640	65.1045
1624	65.0608
1608	64.9624
1592	65.0115
1576	64.945
1560	64.8978
1544	64.9387
1528	65.0176
1512	64.9539
1496	64.9851
1480	64.9716
1464	64.9231
1448	64.7818
1432	65.0541
1416	64.9467
1400	64.9151
1384	65.0031
1368	65.0729
1352	64.926
1336	65.0302
1320	65.0533
1304	64.7852
1288	64.9922
1272	64.9417
1256	64.9948
1240	64.7852
1224	64.9511
1208	64.8677
1192	64.7382
1176	64.8148
1160	64.7128
1144	64.4758
1128	64.6939
1112	64.7445
1096	64.5987
1080	64.4975
1064	64.4969
1048	64.6476
1032	64.4105
1016	64.5207
1000	64.6691
984	 64.3748
968	 64.7403
952	 64.8925
936	 64.3257
920	 64.229
904	 64.1515
888	 64.6211
872	 64.4737
856	 64.2562
840	 64.4941
824	 64.6121
808	 64.2421
792	 63.9941
776	 64.4452
760	 64.0092
744	 63.8533
728	 63.5271
712	 63.2579
696	 63.3128
680	 63.3435
664	 62.8924
648	 62.9658
632	 62.5519
616	 62.4372
600	 62.6574
584	 62.8824
568	 62.8652
552	 62.1946
536	 62.1046
520	 61.4524
504	 60.9703
488	 61.8881
472	 60.4551
456	 60.4027
440	 59.986
424	 57.0576
408	 57.6011
392	 48.5595
376	 41.9069
370	 58.7693

File: C-4040-8_t76.asc
PE IR       SPECTRUM    SPECTRUM    ASCII       PEDS        1.60
  -1
C-B142~1.ASC
17/03/27
20:44:20.00
17/03/27
20:44:46.00
tln
$C-4040-8_t0076$<tbV0>[-10.4,2.6,8.0,0.0,27,1,0]
27.028
64

2002,4.07
MIRTGS : RIGHTBACK : INTERNAL 2
MIR : ON : INTERNAL 2
OPTKBR

0.200000
8
8.000000
FILLER
RATIO
SPECTRUM
UNLOCKED 256

DOUBLE
64
COMBINED
1
0
0

0.002000
RATIO

1
0
TRUE
51149
0
LEFT NOT FITTED RIGHT NOT FITTED 0
NONE
NONE
15600
12
4.427000
51148
TRUE
1 0 8 72 0 0 0 0

15798

#HDR
-1
-1
#GR
µM
%T
2.38419e-05
0.0
2.000000
0.002000
12515
8
80.8699
25.9197
#DATA
2.000000	 65.3125
2.084000	 65.3633
2.168000	 65.2605
2.252000	 64.8341
2.336000	 64.6188
2.420000	 64.9436
2.504000	 65.2818
2.588000	 65.3723
2.672000	 65.0148
2.756000	 65.1947
2.840000	 65.2567
2.924000	 65.3449
3.008000	 65.1793
3.092000	 65.2249
3.176000	 65.3199
3.260000	 65.3479
3.344000	 65.1368
3.428000	 64.7728
3.512000	 65.0336
3.596000	 65.3603
3.680000	 65.2731
3.764000	 65.1815
3.848000	 65.1567
3.932000	 65.3126
4.016000	 65.2798
4.100000	 65.2626
4.184000	 65.3073
4.268000	 65.2818
4.352000	 65.3096
4.436000	 65.3417
4.520000	 65.3179
4.604000	 65.3083
4.688000	 65.324
4.772000	 65.3292
4.856000	 65.3295
4.940000	 65.2324
5.024000	 65.2545
5.108000	 65.4427
5.192000	 65.3764
5.276000	 65.2533
5.359999	 65.2622
5.444000	 65.4538
5.528000	 65.341
5.612000	 65.3724
5.696000	 65.4388
5.780000	 64.9439
5.864000	 65.2179
5.948000	 65.2978
6.032000	 65.2546
6.116000	 65.1473
6.200000	 65.0925
6.284000	 65.0322
6.368000	 64.9499
6.452000	 65.0565
6.536000	 65.0717
6.620000	 65.0316
6.704000	 64.9874
6.788000	 65.1227
6.872000	 65.2276
6.956000	 65.0863
7.040000	 65.1938
7.124000	 65.125
7.208000	 65.1757
7.292000	 65.1207
7.376000	 65.1437
7.460000	 65.0541
7.544000	 65.1298
7.628000	 65.0169
7.712000	 65.0506
7.796000	 65.1551
7.880000	 64.9931
7.964000	 64.9446
8.048000	 65.0114
8.132000	 65.0843
8.216000	 64.9959
8.300000	 65.1098
8.384000	 64.8004
8.468000	 64.9948
8.552000	 64.7419
8.635999	 64.8766
8.719999	 64.9515
8.804000	 64.8337
8.888000	 64.7512
8.972000	 64.6935
9.056000	 64.7198
9.140000	 64.7054
9.224000	 64.9664
9.308000	 64.9902
9.391999	 64.8513
9.475999	 64.6933
9.560000	 64.833
9.644000	 64.8652
9.728000	 64.6036
9.812000	 64.6621
9.896000	 64.6579
9.980000	 64.6463
10.064	64.6255
10.148	64.704
10.232	64.7185
10.316	64.8319
10.4	64.7422
10.484	65.1587
10.568	64.7575
10.652	64.3986
10.736	64.358
10.82	64.1769
10.904	64.9297
10.988	65.5431
11.072	64.8822
11.156	64.6474
11.24	64.8468
11.324	64.8366
11.408	64.6896
11.492	64.4646
11.576	64.6763
11.66	64.5416
11.744	64.5921
11.828	64.6016
11.912	64.5281
11.996	64.5473
12.08	64.5648
12.164	64.3283
12.248	64.3328
12.332	64.5669
12.416	64.5269
12.5	64.3944
12.584	64.2323
12.668	64.1748
12.752	64.3306
12.836	64.4561
12.92	64.3444
13.004	64.2675
13.088	64.4497
13.172	64.3552
13.256	63.806
13.34	63.5661
13.424	63.9918
13.508	64.3329
13.592	63.9614
13.676	63.9172
13.76	64.0417
13.844	63.9629
13.928	64.0344
14.012	64.0924
14.096	63.8015
14.18	63.4608
14.264	63.4884
14.348	63.6499
14.432	63.6537
14.516	63.6325
14.6	63.628
14.684	63.5815
14.768	63.4479
14.852	63.3555
14.936	63.3552
15.02	63.2949
15.104	63.2049
15.188	63.2448
15.272	63.4088
15.356	63.5175
15.44	63.422
15.524	63.1333
15.608	62.8443
15.692	62.7246
15.776	62.7072
15.86	62.7526
15.944	62.8553
16.028	62.8377
16.112	62.6859
16.196	62.615
16.28	62.6124
16.364	62.5913
16.448	62.7418
16.532	63.0504
16.616	63.1424
16.7	62.9334
16.784	62.7593
16.868	62.8356
16.952	63.0415
17.036	63.1384
17.12	63.0283
17.204	62.8321
17.288	62.6559
17.372	62.4648
17.456	62.2831
17.54	62.2567
17.624	62.4206
17.708	62.5875
17.792	62.5809
17.876	62.4334
17.96	62.3047
18.044	62.2819
18.128	62.3204
18.212	62.3323
18.296	62.2581
18.38	62.068
18.464	61.8079
18.548	61.6046
18.632	61.5481
18.716	61.5959
18.8	61.6421
18.884	61.6397
18.968	61.6144
19.052	61.6128
19.136	61.6768
19.22	61.8372
19.304	62.058
19.388	62.2024
19.472	62.1167
19.556	61.7723
19.64	61.3078
19.724	60.9171
19.808	60.7013
19.892	60.6289
19.976	60.623
20.06	60.648
20.144	60.7024
20.228	60.7741
20.312	60.8482
20.396	60.9496
20.48	61.1348
20.564	61.4129
20.648	61.6812
20.732	61.7921
20.816	61.6973
20.9	61.5018
20.984	61.3468
21.068	61.2687
21.152	61.1785
21.236	60.9764
21.32	60.6551
21.404	60.299
21.488	60.0109
21.572	59.8414
21.656	59.7969
21.74	59.872
21.824	60.0581
21.908	60.3137
21.992	60.5514
22.076	60.6756
22.16	60.6346
22.244	60.4767
22.328	60.3121
22.412	60.2464
22.496	60.315
22.58	60.4504
22.664	60.5278
22.748	60.4442
22.832	60.1886
22.916	59.8422
23	59.5266
23.084	59.3276
23.168	59.2598
23.252	59.257
23.336	59.1942
23.42	58.959
23.504	58.4997
23.588	57.8518
23.672	57.1273
23.756	56.5085
23.84	56.1939
23.924	56.31
24.008	56.8432
24.092	57.6248
24.176	58.3798
24.26	58.9227
24.344	59.2006
24.428	59.2632
24.512	59.1881
24.596	58.981
24.68	58.5283
24.764	57.6624
24.848	56.3262
24.932	54.7612
25.016	53.4793
25.1	52.9941
25.184	53.6094
25.268	55.1857
25.352	57.1632
25.436	58.7916
25.52	59.503
25.604	59.1191
25.688	57.6301
25.772	55.0938
25.856	51.5704
25.94	47.137
26.024	42.0143
26.108	36.6709
26.192	31.8775
26.276	28.5457
26.36	27.5584
26.444	29.1747
26.528	32.7952
26.612	37.18
26.696	40.6804
26.78	41.6923
26.864	39.3394
26.948	33.6744
27.028	25.9197