Folder: Masteroppgave/Bakgrunnsmateriale/MATLAB/FTIR/ftir_data/subBb/Mapping_121 (part 25)

File: C-4040-8_t54.asc
PE IR       SPECTRUM    SPECTRUM    ASCII       PEDS        1.60
  -1
C-B93A~1.ASC
17/03/27
18:55:27.00
17/03/27
18:55:53.00
tln
$C-4040-8_t0054$<tbV0>[-10.4,-2.6,8.0,0.0,27,1,0]
27.028
64

2002,4.07
MIRTGS : RIGHTBACK : INTERNAL 2
MIR : ON : INTERNAL 2
OPTKBR

0.200000
8
8.000000
FILLER
RATIO
SPECTRUM
UNLOCKED 256

DOUBLE
64
COMBINED
1
0
0

0.002000
RATIO

1
0
TRUE
51149
0
LEFT NOT FITTED RIGHT NOT FITTED 0
NONE
NONE
15600
12
4.427000
51148
TRUE
1 0 8 72 0 0 0 0

15798

#HDR
-1
-1
#GR
µM
%T
2.38419e-05
0.0
2.000000
0.002000
12515
8
101.85
31.8779
#DATA
2.000000	 64.5466
2.084000	 64.5501
2.168000	 64.8469
2.252000	 64.6665
2.336000	 64.7822
2.420000	 65.1381
2.504000	 65.2139
2.588000	 65.0488
2.672000	 65.1446
2.756000	 65.1386
2.840000	 65.1558
2.924000	 65.2421
3.008000	 65.3119
3.092000	 65.3076
3.176000	 65.1946
3.260000	 65.2238
3.344000	 65.1767
3.428000	 64.707
3.512000	 65.0449
3.596000	 65.0699
3.680000	 65.1201
3.764000	 65.3031
3.848000	 65.312
3.932000	 65.202
4.016000	 65.0926
4.100000	 65.039
4.184000	 65.1818
4.268000	 65.2847
4.352000	 65.3759
4.436000	 65.3961
4.520000	 65.2697
4.604000	 65.2013
4.688000	 65.3213
4.772000	 65.3243
4.856000	 65.1638
4.940000	 65.267
5.024000	 65.2616
5.108000	 65.2279
5.192000	 65.4052
5.276000	 65.328
5.359999	 65.2459
5.444000	 65.2295
5.528000	 65.1864
5.612000	 65.12
5.696000	 65.296
5.780000	 65.0406
5.864000	 65.3532
5.948000	 65.3171
6.032000	 65.1264
6.116000	 65.0368
6.200000	 65.0917
6.284000	 64.9442
6.368000	 65.0854
6.452000	 64.9854
6.536000	 64.9222
6.620000	 65.0593
6.704000	 65.0414
6.788000	 64.9656
6.872000	 64.6909
6.956000	 65.0051
7.040000	 65.0362
7.124000	 65.0405
7.208000	 65.2263
7.292000	 64.9962
7.376000	 65.0717
7.460000	 65.134
7.544000	 65.134
7.628000	 65.211
7.712000	 65.1007
7.796000	 65.1469
7.880000	 64.9601
7.964000	 65.0336
8.048000	 65.1011
8.132000	 64.9929
8.216000	 65.2981
8.300000	 65.1956
8.384000	 64.7985
8.468000	 64.7383
8.552000	 65.1626
8.635999	 65.0422
8.719999	 65.429
8.804000	 64.4836
8.888000	 65.0681
8.972000	 64.9795
9.056000	 64.7626
9.140000	 64.4755
9.224000	 64.8911
9.308000	 64.6072
9.391999	 64.8272
9.475999	 64.9653
9.560000	 64.7611
9.644000	 64.7462
9.728000	 64.5628
9.812000	 64.5013
9.896000	 64.4937
9.980000	 64.735
10.064	64.8205
10.148	64.8249
10.232	64.6722
10.316	64.647
10.4	64.5289
10.484	64.5297
10.568	64.6826
10.652	64.5341
10.736	64.7327
10.82	64.7341
10.904	64.6709
10.988	64.6089
11.072	64.6246
11.156	64.3169
11.24	64.258
11.324	64.4629
11.408	64.5744
11.492	64.4925
11.576	64.4895
11.66	64.5625
11.744	64.5291
11.828	64.5375
11.912	64.563
11.996	64.3673
12.08	64.2748
12.164	64.437
12.248	64.3297
12.332	64.5573
12.416	64.5235
12.5	64.406
12.584	64.1588
12.668	63.9352
12.752	64.143
12.836	64.226
12.92	64.259
13.004	64.1929
13.088	64.0327
13.172	63.8734
13.256	64.0095
13.34	64.3917
13.424	64.2678
13.508	63.9466
13.592	63.935
13.676	63.7027
13.76	63.5196
13.844	63.4904
13.928	63.5716
14.012	63.7365
14.096	63.7718
14.18	63.9146
14.264	64.0147
14.348	63.7376
14.432	63.4183
14.516	63.3952
14.6	63.3748
14.684	63.1716
14.768	63.0232
14.852	62.991
14.936	63.0244
15.02	63.0266
15.104	63.0343
15.188	63.2334
15.272	63.3975
15.356	63.2628
15.44	62.9895
15.524	62.7144
15.608	62.542
15.692	62.6574
15.776	62.952
15.86	63.0726
15.944	62.9861
16.028	62.9343
16.112	63.0018
16.196	63.1583
16.28	63.336
16.364	63.3393
16.448	63.1278
16.532	62.9231
16.616	62.8435
16.7	62.7972
16.784	62.7434
16.868	62.6995
16.952	62.5709
17.036	62.2883
17.12	62.0334
17.204	62.0335
17.288	62.1599
17.372	62.0969
17.456	61.8307
17.54	61.6292
17.624	61.6322
17.708	61.7298
17.792	61.8188
17.876	61.9473
17.96	62.163
18.044	62.3741
18.128	62.4448
18.212	62.3753
18.296	62.265
18.38	62.1543
18.464	62.0194
18.548	61.8922
18.632	61.8446
18.716	61.8741
18.8	61.9139
18.884	61.9773
18.968	62.1384
19.052	62.3382
19.136	62.3565
19.22	62.0518
19.304	61.5637
19.388	61.2136
19.472	61.2159
19.556	61.5094
19.64	61.8458
19.724	62.0175
19.808	61.9852
19.892	61.8293
19.976	61.6306
20.06	61.4238
20.144	61.2495
20.228	61.1902
20.312	61.3079
20.396	61.5421
20.48	61.7133
20.564	61.6561
20.648	61.3573
20.732	60.9654
20.816	60.6657
20.9	60.535
20.984	60.5382
21.068	60.5992
21.152	60.6707
21.236	60.742
21.32	60.7957
21.404	60.7857
21.488	60.6526
21.572	60.3797
21.656	60.0359
21.74	59.7477
21.824	59.6067
21.908	59.5743
21.992	59.4816
22.076	59.137
22.16	58.477
22.244	57.6491
22.328	56.9545
22.412	56.6795
22.496	56.9266
22.58	57.5672
22.664	58.34
22.748	58.964
22.832	59.265
22.916	59.2151
23	58.9102
23.084	58.4941
23.168	58.1178
23.252	57.895
23.336	57.9134
23.42	58.2279
23.504	58.9129
23.588	59.9675
23.672	61.26
23.756	62.5442
23.84	63.5131
23.924	63.8828
24.008	63.5887
24.092	62.908
24.176	62.3417
24.26	62.3677
24.344	63.2393
24.428	64.8147
24.512	66.5445
24.596	67.8121
24.68	68.1586
24.764	67.4943
24.848	66.0442
24.932	64.6469
25.016	64.5227
25.1	66.7541
25.184	71.6793
25.268	78.4529
25.352	85.2744
25.436	90.1206
25.52	91.649
25.604	89.5832
25.688	84.3821
25.772	76.9792
25.856	68.535
25.94	60.7648
26.024	55.9209
26.108	56.1823
26.192	62.4187
26.276	73.5507
26.36	86.421
26.444	96.9807
26.528	101.76
26.612	99.2819
26.696	90.0098
26.78	76.0166
26.864	59.997
26.948	44.4333
27.028	31.8779

File: C-4040-8_t54_cm-1.asc
PE IR       SPECTRUM    SPECTRUM    ASCII       PEDS        1.60
  -1
C-1C6F~1.ASC
17/03/27
18:55:27.00
17/03/27
18:55:27.00
tln
$C-4040-8_t0054$<tbV0>[-10.4,-2.6,8.0,0.0,27,1,0]
370
64

2002,4.07
MIRTGS : RIGHTBACK : INTERNAL 2
MIR : ON : INTERNAL 2
OPTKBR

0.200000
8
8.000000
FILLER
RATIO
SPECTRUM
UNLOCKED 256

DOUBLE
64
COMBINED
1
0
0

1.000000
RATIO

1
0
TRUE
51149
0
LEFT NOT FITTED RIGHT NOT FITTED 0
NONE
NONE
15600
12
4.427000
51148
TRUE
1 0 8 72 0 0 0 0

15798

#HDR
-1
-1
#GR
CM-1
%T
2.38419e-05
0.0
5000
-1.000000
4631
8
101.718
31.8779
#DATA
5000	64.5466
4984	65.4102
4968	64.9791
4952	65.0636
4936	65.0232
4920	64.7296
4904	64.9485
4888	64.9352
4872	64.3309
4856	64.5381
4840	65.171
4824	64.8512
4808	64.6218
4792	64.485
4776	64.9722
4760	64.4205
4744	64.6133
4728	64.5714
4712	64.8955
4696	65.2014
4680	65.2484
4664	64.9571
4648	64.7576
4632	65.0303
4616	64.7275
4600	64.8029
4584	65.2168
4568	65.0593
4552	64.82
4536	64.5249
4520	64.4408
4504	64.8275
4488	64.7929
4472	64.9192
4456	64.8299
4440	64.6732
4424	64.7558
4408	65.3366
4392	64.0831
4376	64.6252
4360	56.0359
4344	68.7598
4328	65.3771
4312	65.1514
4296	64.8402
4280	64.8194
4264	64.8246
4248	63.9273
4232	64.7774
4216	64.7888
4200	64.8891
4184	63.7278
4168	64.5268
4152	64.8879
4136	65.3024
4120	64.9896
4104	64.9565
4088	65.2629
4072	65.2961
4056	65.0759
4040	65.1003
4024	64.9158
4008	65.2262
3992	65.2271
3976	64.9435
3960	65.0597
3944	65.0967
3928	64.7855
3912	65.0927
3896	64.952
3880	65.0623
3864	65.0497
3848	64.8926
3832	64.6627
3816	65.1036
3800	65.0934
3784	65.1217
3768	65.0409
3752	65.2551
3736	65.1506
3720	64.9414
3704	65.1244
3688	65.1423
3672	65.1105
3656	65.1904
3640	65.135
3624	65.1611
3608	65.2159
3592	64.9541
3576	65.2438
3560	64.8438
3544	65.0395
3528	65.1761
3512	65.1051
3496	65.0529
3480	65.3883
3464	65.2388
3448	65.1623
3432	65.2656
3416	65.1921
3400	65.0181
3384	65.4051
3368	65.1339
3352	65.1303
3336	65.2068
3320	65.3585
3304	65.007
3288	65.0613
3272	65.0202
3256	65.4216
3240	65.1124
3224	65.1152
3208	65.3696
3192	65.2023
3176	65.3184
3160	65.0427
3144	65.0571
3128	65.1796
3112	65.0477
3096	65.3073
3080	65.1722
3064	65.1779
3048	65.2468
3032	64.9578
3016	65.1854
3000	64.9756
2984	65.1884
2968	65.1254
2952	65.1075
2936	65.0156
2920	64.7061
2904	65.1061
2888	65.0635
2872	65.1839
2856	64.9878
2840	65.1827
2824	65.1364
2808	65.1502
2792	64.9737
2776	65.2182
2760	65.3269
2744	65.2194
2728	65.1979
2712	65.1618
2696	65.1736
2680	65.1497
2664	65.3206
2648	65.2875
2632	65.2395
2616	65.3554
2600	65.3116
2584	65.3453
2568	65.1928
2552	65.4009
2536	65.198
2520	65.3273
2504	65.2459
2488	65.2054
2472	65.1763
2456	65.2105
2440	65.032
2424	65.462
2408	64.9187
2392	65.2222
2376	65.2168
2360	65.298
2344	65.2791
2328	65.2907
2312	65.1994
2296	65.3455
2280	65.263
2264	65.3059
2248	65.4037
2232	65.395
2216	65.2588
2200	65.275
2184	65.286
2168	65.2168
2152	65.3713
2136	65.3032
2120	65.2153
2104	65.2511
2088	65.1465
2072	65.3702
2056	65.3412
2040	65.2138
2024	65.2648
2008	65.2553
1992	65.2559
1976	65.2354
1960	65.2241
1944	65.2848
1928	65.4122
1912	65.4113
1896	65.3146
1880	65.2544
1864	65.2713
1848	65.3539
1832	65.3134
1816	65.2697
1800	65.3259
1784	65.1251
1768	65.2722
1752	65.2772
1736	65.0732
1720	65.0385
1704	65.3661
1688	65.2115
1672	65.2022
1656	65.104
1640	65.1184
1624	65.1898
1608	65.0008
1592	64.938
1576	65.1171
1560	64.8796
1544	64.9407
1528	64.9399
1512	65.0508
1496	65.0663
1480	65.0292
1464	65.039
1448	64.9881
1432	64.8391
1416	65.0351
1400	65.1229
1384	65.1984
1368	64.9404
1352	65.0697
1336	65.0764
1320	65.1288
1304	65.2475
1288	65.0789
1272	65.0363
1256	65.0322
1240	65.0834
1224	65.1989
1208	65.1693
1192	64.8277
1176	64.841
1160	64.9488
1144	65.1964
1128	65.0527
1112	64.8689
1096	64.6195
1080	64.7264
1064	64.8425
1048	64.8273
1032	64.6567
1016	64.4825
1000	64.8459
984	 64.8168
968	 64.6671
952	 64.5844
936	 64.5636
920	 64.6656
904	 64.6353
888	 64.3034
872	 64.5176
856	 64.571
840	 64.5674
824	 64.4192
808	 64.5961
792	 63.9856
776	 64.2452
760	 63.8897
744	 64.1829
728	 63.546
712	 63.7588
696	 63.6448
680	 63.1199
664	 63.0144
648	 63.016
632	 63.0544
616	 63.2455
600	 62.8176
584	 62.028
568	 61.6175
552	 62.445
536	 61.8481
520	 61.9939
504	 61.9325
488	 61.7214
472	 60.7002
456	 59.5647
440	 58.8362
424	 59.9237
408	 66.5038
392	 91.6585
376	 100.331
370	 31.8779

File: C-4040-8_t55.asc
PE IR       SPECTRUM    SPECTRUM    ASCII       PEDS        1.60
  -1
C-B93E~1.ASC
17/03/27
19:00:04.00
17/03/27
19:00:30.00
tln
$C-4040-8_t0055$<tbV0>[-13.0,-2.6,8.0,0.0,27,1,0]
27.028
64

2002,4.07
MIRTGS : RIGHTBACK : INTERNAL 2
MIR : ON : INTERNAL 2
OPTKBR

0.200000
8
8.000000
FILLER
RATIO
SPECTRUM
UNLOCKED 256

DOUBLE
64
COMBINED
1
0
0

0.002000
RATIO

1
0
TRUE
51149
0
LEFT NOT FITTED RIGHT NOT FITTED 0
NONE
NONE
15600
12
4.427000
51148
TRUE
1 0 8 72 0 0 0 0

15798

#HDR
-1
-1
#GR
µM
%T
2.38419e-05
0.0
2.000000
0.002000
12515
8
78.5889
41.6477
#DATA
2.000000	 64.7503
2.084000	 65.0577
2.168000	 64.4425
2.252000	 65.0415
2.336000	 65.5237
2.420000	 64.7501
2.504000	 65.0953
2.588000	 65.3634
2.672000	 65.3475
2.756000	 65.0913
2.840000	 65.0562
2.924000	 65.187
3.008000	 65.3792
3.092000	 65.1619
3.176000	 65.2211
3.260000	 65.2141
3.344000	 65.164
3.428000	 64.8507
3.512000	 64.9023
3.596000	 65.1053
3.680000	 65.204
3.764000	 65.2596
3.848000	 65.3077
3.932000	 65.3536
4.016000	 65.0911
4.100000	 65.3529
4.184000	 65.3678
4.268000	 65.2341
4.352000	 65.281
4.436000	 65.4301
4.520000	 65.2742
4.604000	 65.391
4.688000	 65.2601
4.772000	 65.4086
4.856000	 65.3135
4.940000	 65.3846
5.024000	 65.2984
5.108000	 65.3491
5.192000	 65.2868
5.276000	 65.4465
5.359999	 65.3239
5.444000	 65.3253
5.528000	 65.2801
5.612000	 65.2866
5.696000	 65.2054
5.780000	 65.0099
5.864000	 65.3444
5.948000	 65.3727
6.032000	 65.2125
6.116000	 65.2412
6.200000	 65.1941
6.284000	 65.1318
6.368000	 65.2972
6.452000	 65.1953
6.536000	 65.1625
6.620000	 65.184
6.704000	 65.1662
6.788000	 65.1097
6.872000	 64.883
6.956000	 65.3187
7.040000	 65.1919
7.124000	 65.1692
7.208000	 65.2918
7.292000	 65.1848
7.376000	 65.1369
7.460000	 65.022
7.544000	 65.047
7.628000	 65.2332
7.712000	 65.034
7.796000	 65.1325
7.880000	 65.0619
7.964000	 65.0635
8.048000	 65.1698
8.132000	 64.89
8.216000	 64.8585
8.300000	 64.9631
8.384000	 65.1415
8.468000	 65.0764
8.552000	 64.7323
8.635999	 65.1264
8.719999	 65.6261
8.804000	 64.9414
8.888000	 65.1084
8.972000	 65.0414
9.056000	 65.0867
9.140000	 64.3887
9.224000	 65.3837
9.308000	 65.1564
9.391999	 65.0526
9.475999	 65.1958
9.560000	 64.9819
9.644000	 65.0393
9.728000	 64.9561
9.812000	 64.7894
9.896000	 65.1331
9.980000	 64.9314
10.064	65.0081
10.148	64.9598
10.232	65.0638
10.316	64.5973
10.4	64.8005
10.484	64.8463
10.568	64.8497
10.652	64.8626
10.736	64.8396
10.82	65.0399
10.904	64.9685
10.988	64.7903
11.072	64.8829
11.156	64.5736
11.24	64.6574
11.324	64.7003
11.408	64.6111
11.492	64.758
11.576	64.7616
11.66	64.5816
11.744	64.71
11.828	64.8046
11.912	64.6678
11.996	64.6246
12.08	64.5953
12.164	64.7673
12.248	64.5372
12.332	64.4819
12.416	64.4668
12.5	64.5345
12.584	64.5407
12.668	64.3352
12.752	64.2895
12.836	64.3535
12.92	64.5968
13.004	64.636
13.088	64.5763
13.172	64.4017
13.256	64.1013
13.34	64.3812
13.424	64.372
13.508	64.0925
13.592	64.1834
13.676	64.1323
13.76	63.8956
13.844	63.9318
13.928	64.3215
14.012	64.4294
14.096	64.1706
14.18	64.1244
14.264	64.2913
14.348	64.3069
14.432	64.0975
14.516	63.7605
14.6	63.4501
14.684	63.4338
14.768	63.5858
14.852	63.5464
14.936	63.3893
15.02	63.3183
15.104	63.3838
15.188	63.6017
15.272	63.8029
15.356	63.7693
15.44	63.4832
15.524	63.1437
15.608	62.9847
15.692	62.9435
15.776	62.8682
15.86	62.8782
15.944	63.0981
16.028	63.3356
16.112	63.3894
16.196	63.3825
16.28	63.4574
16.364	63.4808
16.448	63.37
16.532	63.2441
16.616	63.127
16.7	62.969
16.784	62.8304
16.868	62.7114
16.952	62.5511
17.036	62.4565
17.12	62.5452
17.204	62.6632
17.288	62.6364
17.372	62.5791
17.456	62.6835
17.54	62.9048
17.624	63.0223
17.708	62.9201
17.792	62.7079
17.876	62.6022
17.96	62.6764
18.044	62.8081
18.128	62.8863
18.212	62.9376
18.296	62.982
18.38	62.9511
18.464	62.8334
18.548	62.7521
18.632	62.7762
18.716	62.8023
18.8	62.7219
18.884	62.5914
18.968	62.5204
19.052	62.4638
19.136	62.2765
19.22	61.9299
19.304	61.5785
19.388	61.4116
19.472	61.5074
19.556	61.7943
19.64	62.1099
19.724	62.3167
19.808	62.3757
19.892	62.3303
19.976	62.2293
20.06	62.0722
20.144	61.8384
20.228	61.556
20.312	61.3143
20.396	61.1952
20.48	61.1851
20.564	61.1772
20.648	61.0535
20.732	60.7811
20.816	60.4485
20.9	60.1926
20.984	60.1101
21.068	60.1997
21.152	60.3695
21.236	60.5027
21.32	60.5363
21.404	60.4893
21.488	60.4439
21.572	60.4916
21.656	60.6784
21.74	60.9803
21.824	61.2723
21.908	61.3584
21.992	61.0931
22.076	60.4863
22.16	59.7423
22.244	59.1739
22.328	59.0094
22.412	59.2656
22.496	59.7108
22.58	60.02
22.664	59.9508
22.748	59.4802
22.832	58.8096
22.916	58.2708
23	58.1743
23.084	58.668
23.168	59.6629
23.252	60.8735
23.336	61.924
23.42	62.5125
23.504	62.5459
23.588	62.1496
23.672	61.546
23.756	60.9501
23.84	60.4716
23.924	60.0774
24.008	59.6968
24.092	59.355
24.176	59.2085
24.26	59.4262
24.344	60.0662
24.428	61.0108
24.512	61.998
24.596	62.7771
24.68	63.2053
24.764	63.324
24.848	63.3012
24.932	63.5996
25.016	64.8145
25.1	67.381
25.184	71.1285
25.268	75.1265
25.352	77.9811
25.436	78.4319
25.52	76.1299
25.604	71.8229
25.688	66.8054
25.772	62.4061
25.856	59.5497
25.94	58.7464
26.024	60.0823
26.108	63.2426
26.192	67.5893
26.276	72.175
26.36	75.7561
26.444	77.2117
26.528	75.892
26.612	71.8319
26.696	65.7079
26.78	58.6826
26.864	51.8893
26.948	46.0885
27.028	41.6477

File: C-4040-8_t55_cm-1.asc
PE IR       SPECTRUM    SPECTRUM    ASCII       PEDS        1.60
  -1
C-1CEE~1.ASC
17/03/27
19:00:04.00
17/03/27
19:00:04.00
tln
$C-4040-8_t0055$<tbV0>[-13.0,-2.6,8.0,0.0,27,1,0]
370
64

2002,4.07
MIRTGS : RIGHTBACK : INTERNAL 2
MIR : ON : INTERNAL 2
OPTKBR

0.200000
8
8.000000
FILLER
RATIO
SPECTRUM
UNLOCKED 256

DOUBLE
64
COMBINED
1
0
0

1.000000
RATIO

1
0
TRUE
51149
0
LEFT NOT FITTED RIGHT NOT FITTED 0
NONE
NONE
15600
12
4.427000
51148
TRUE
1 0 8 72 0 0 0 0

15798

#HDR
-1
-1
#GR
CM-1
%T
2.38419e-05
0.0
5000
-1.000000
4631
8
78.4523
41.6477
#DATA
5000	64.7503
4984	65.3808
4968	64.7739
4952	65.0599
4936	65.1528
4920	65.0997
4904	65.2915
4888	64.0421
4872	64.9593
4856	64.6147
4840	64.9109
4824	64.9148
4808	64.9816
4792	64.7624
4776	64.7142
4760	64.5779
4744	64.5063
4728	64.6421
4712	65.1166
4696	64.7406
4680	64.9583
4664	64.5388
4648	65.0447
4632	64.7775
4616	64.6013
4600	64.7734
4584	65.1265
4568	65.0136
4552	64.3753
4536	64.4863
4520	65.2075
4504	64.8924
4488	64.7935
4472	65.1267
4456	65.3152
4440	65.0728
4424	65.1593
4408	65.6722
4392	65.8115
4376	65.7494
4360	56.6005
4344	69.4575
4328	66.4304
4312	65.7511
4296	65.1854
4280	65.5499
4264	64.8369
4248	64.9861
4232	64.7691
4216	64.985
4200	65.3257
4184	64.6477
4168	64.6111
4152	65.0825
4136	64.9376
4120	64.9568
4104	65.2393
4088	65.1048
4072	65.2455
4056	64.9719
4040	65.1087
4024	65.0129
4008	65.0023
3992	65.116
3976	64.9518
3960	65.0907
3944	65.1588
3928	64.9495
3912	65.3053
3896	65.0999
3880	65.2955
3864	65.3639
3848	65.1138
3832	65.0917
3816	65.1117
3800	65.0484
3784	65.2943
3768	65.1505
3752	65.1091
3736	65.1432
3720	65.2501
3704	65.1779
3688	65.284
3672	65.3424
3656	65.1801
3640	65.2536
3624	65.0991
3608	65.1151
3592	65.0717
3576	65.3317
3560	65.262
3544	64.9821
3528	65.0286
3512	65.1766
3496	65.3496
3480	65.1625
3464	65.1
3448	65.2884
3432	65.2721
3416	65.0707
3400	65.305
3384	65.1961
3368	65.2872
3352	65.1934
3336	65.2262
3320	65.3749
3304	65.1054
3288	65.0489
3272	65.2225
3256	65.1838
3240	65.0221
3224	65.0713
3208	65.2399
3192	64.9873
3176	65.1401
3160	64.8586
3144	65.0643
3128	65.1126
3112	65.0639
3096	65.3532
3080	65.1883
3064	65.2354
3048	65.1952
3032	65.3126
3016	65.1793
3000	65.2153
2984	65.0753
2968	65.2218
2952	65.2751
2936	65.1277
2920	64.7798
2904	65.2882
2888	65.1901
2872	65.1893
2856	65.0472
2840	65.2071
2824	65.1361
2808	65.1659
2792	65.3194
2776	65.2152
2760	65.2539
2744	65.2391
2728	65.2425
2712	65.1903
2696	65.2146
2680	65.3132
2664	65.3466
2648	65.2369
2632	65.4334
2616	65.3337
2600	65.3031
2584	65.2617
2568	65.2916
2552	65.3742
2536	65.2437
2520	65.3079
2504	65.3938
2488	65.1321
2472	65.229
2456	65.2875
2440	65.3431
2424	65.5169
2408	65.3177
2392	65.4024
2376	65.2929
2360	65.3316
2344	65.2393
2328	65.2853
2312	65.2064
2296	65.2451
2280	65.3003
2264	65.3402
2248	65.3994
2232	65.38
2216	65.3376
2200	65.312
2184	65.3658
2168	65.3573
2152	65.3221
2136	65.2383
2120	65.2986
2104	65.3674
2088	65.3832
2072	65.0861
2056	65.3426
2040	65.2842
2024	65.3811
2008	65.3496
1992	65.271
1976	65.3521
1960	65.343
1944	65.3261
1928	65.3064
1912	65.3075
1896	65.443
1880	65.3153
1864	65.3403
1848	65.2686
1832	65.3292
1816	65.2965
1800	65.3379
1784	65.2662
1768	65.4051
1752	65.2151
1736	65.1209
1720	65.1468
1704	65.3735
1688	65.2395
1672	65.2754
1656	65.2192
1640	65.2175
1624	65.2664
1608	65.187
1592	65.1364
1576	65.2997
1560	65.0799
1544	65.0775
1528	65.2113
1512	65.1982
1496	65.2524
1480	65.273
1464	65.0209
1448	65.0171
1432	65.1594
1416	65.1724
1400	65.0991
1384	65.287
1368	65.2087
1352	65.1544
1336	65.042
1320	65.1895
1304	65.0352
1288	65.1311
1272	65.0791
1256	65.0672
1240	65.1209
1224	64.9336
1208	64.9797
1192	65.1506
1176	64.8428
1160	65.2065
1144	65.521
1128	65.0155
1112	64.953
1096	64.5989
1080	65.4435
1064	65.0886
1048	64.988
1032	64.9363
1016	64.8316
1000	64.9839
984	 64.978
968	 64.5497
952	 64.8058
936	 64.813
920	 65.0227
904	 64.902
888	 64.6888
872	 64.6918
856	 64.5877
840	 64.6721
824	 64.7462
808	 64.4831
792	 64.4313
776	 64.4983
760	 64.4589
744	 64.2997
728	 63.9552
712	 64.3379
696	 64.2738
680	 63.4746
664	 63.3297
648	 63.5169
632	 62.8487
616	 63.409
600	 63.0342
584	 62.5508
568	 63.0149
552	 62.8782
536	 62.791
520	 61.8811
504	 62.3665
488	 61.1866
472	 60.4343
456	 61.3268
440	 59.6259
424	 62.1689
408	 61.9744
392	 76.517
376	 72.804
370	 41.6477

File: C-4040-8_t56.asc
PE IR       SPECTRUM    SPECTRUM    ASCII       PEDS        1.60
  -1
C-B932~1.ASC
17/03/27
19:05:18.00
17/03/27
19:05:44.00
tln
$C-4040-8_t0056$<tbV0>[13.0,0.0,8.0,0.0,27,1,0]
27.028
64

2002,4.07
MIRTGS : RIGHTBACK : INTERNAL 2
MIR : ON : INTERNAL 2
OPTKBR

0.200000
8
8.000000
FILLER
RATIO
SPECTRUM
UNLOCKED 256

DOUBLE
64
COMBINED
1
0
0

0.002000
RATIO

1
0
TRUE
51149
0
LEFT NOT FITTED RIGHT NOT FITTED 0
NONE
NONE
15600
12
4.427000
51148
TRUE
1 0 8 72 0 0 0 0

15798

#HDR
-1
-1
#GR
µM
%T
2.38419e-05
0.0
2.000000
0.002000
12515
8
92.4374
22.924
#DATA
2.000000	 64.7402
2.084000	 65.2097
2.168000	 64.7925
2.252000	 65.7057
2.336000	 66.0495
2.420000	 65.0518
2.504000	 64.895
2.588000	 65.3502
2.672000	 65.1259
2.756000	 65.0049
2.840000	 65.0795
2.924000	 65.2392
3.008000	 65.1781
3.092000	 65.1641
3.176000	 65.197
3.260000	 65.1356
3.344000	 65.1556
3.428000	 64.7943
3.512000	 65.0153
3.596000	 65.0064
3.680000	 65.0919
3.764000	 65.3292
3.848000	 65.1953
3.932000	 65.2456
4.016000	 65.0885
4.100000	 65.2214
4.184000	 65.3637
4.268000	 65.2805
4.352000	 65.2904
4.436000	 65.3467
4.520000	 65.2776
4.604000	 65.2813
4.688000	 65.227
4.772000	 65.2931
4.856000	 65.0875
4.940000	 65.2548
5.024000	 65.2801
5.108000	 65.1901
5.192000	 65.2677
5.276000	 65.3771
5.359999	 65.1339
5.444000	 65.2736
5.528000	 65.3215
5.612000	 65.1533
5.696000	 65.2296
5.780000	 64.919
5.864000	 65.1322
5.948000	 65.2374
6.032000	 65.2166
6.116000	 65.1795
6.200000	 65.0339
6.284000	 64.9772
6.368000	 65.1546
6.452000	 65.1579
6.536000	 65.009
6.620000	 65.0356
6.704000	 65.2512
6.788000	 64.9706
6.872000	 64.9901
6.956000	 64.7682
7.040000	 64.9366
7.124000	 65.2365
7.208000	 65.0701
7.292000	 65.1218
7.376000	 64.9015
7.460000	 64.7907
7.544000	 65.0749
7.628000	 65.2018
7.712000	 65.009
7.796000	 65.0559
7.880000	 64.8213
7.964000	 65.0085
8.048000	 65.0847
8.132000	 64.8341
8.216000	 64.8153
8.300000	 64.8094
8.384000	 64.9056
8.468000	 64.9751
8.552000	 64.8053
8.635999	 64.8885
8.719999	 64.9157
8.804000	 64.4185
8.888000	 64.4883
8.972000	 64.4937
9.056000	 65.0712
9.140000	 64.6025
9.224000	 65.2027
9.308000	 64.8918
9.391999	 65.0999
9.475999	 64.8066
9.560000	 64.6066
9.644000	 64.5988
9.728000	 64.398
9.812000	 64.5885
9.896000	 64.7738
9.980000	 64.5903
10.064	64.466
10.148	64.5241
10.232	64.507
10.316	64.414
10.4	64.5087
10.484	64.6002
10.568	64.4957
10.652	64.3116
10.736	64.5308
10.82	64.4565
10.904	64.3773
10.988	64.3622
11.072	64.1428
11.156	63.9641
11.24	64.0625
11.324	64.2017
11.408	64.1562
11.492	64.1541
11.576	64.1796
11.66	64.2372
11.744	64.2564
11.828	64.1722
11.912	64.2886
11.996	64.099
12.08	63.8554
12.164	63.9059
12.248	63.984
12.332	64.0478
12.416	63.9608
12.5	64.0149
12.584	64.0542
12.668	63.5998
12.752	63.7146
12.836	63.9302
12.92	63.9129
13.004	63.9237
13.088	63.8925
13.172	63.5738
13.256	63.2067
13.34	63.5844
13.424	63.49
13.508	63.1073
13.592	63.0247
13.676	62.9713
13.76	62.9609
13.844	62.9432
13.928	63.0483
14.012	63.2365
14.096	63.2665
14.18	63.1936
14.264	63.008
14.348	62.84
14.432	62.8213
14.516	62.6912
14.6	62.5229
14.684	62.4465
14.768	62.5145
14.852	62.6028
14.936	62.3446
15.02	62.087
15.104	62.3684
15.188	62.8154
15.272	62.8986
15.356	62.6606
15.44	62.3357
15.524	62.1182
15.608	62.0604
15.692	61.9974
15.776	61.9593
15.86	62.1419
15.944	62.4109
16.028	62.5188
16.112	62.5174
16.196	62.5346
16.28	62.4731
16.364	62.1689
16.448	61.7216
16.532	61.4045
16.616	61.2932
16.7	61.2689
16.784	61.2672
16.868	61.2567
16.952	61.1927
17.036	61.1203
17.12	61.1116
17.204	61.1258
17.288	61.1107
17.372	61.1218
17.456	61.2064
17.54	61.3013
17.624	61.3548
17.708	61.3885
17.792	61.3914
17.876	61.2948
17.96	61.081
18.044	60.8475
18.128	60.7479
18.212	60.8467
18.296	61.0209
18.38	61.0608
18.464	60.9049
18.548	60.72
18.632	60.6775
18.716	60.7583
18.8	60.8363
18.884	60.8596
18.968	60.8566
19.052	60.8141
19.136	60.6535
19.22	60.3607
19.304	60.0846
19.388	60.0306
19.472	60.2588
19.556	60.5945
19.64	60.7681
19.724	60.6475
19.808	60.3276
19.892	60.0014
19.976	59.7872
20.06	59.6741
20.144	59.5843
20.228	59.4497
20.312	59.2515
20.396	59.0095
20.48	58.7621
20.564	58.5551
20.648	58.4259
20.732	58.3999
20.816	58.4675
20.9	58.5752
20.984	58.6584
21.068	58.675
21.152	58.6035
21.236	58.4464
21.32	58.2095
21.404	57.8857
21.488	57.4538
21.572	56.9278
21.656	56.4242
21.74	56.1562
21.824	56.3179
21.908	56.9065
21.992	57.6632
22.076	58.2199
22.16	58.3437
22.244	58.132
22.328	57.9395
22.412	58.0983
22.496	58.6593
22.58	59.3549
22.664	59.8169
22.748	59.8323
22.832	59.4648
22.916	58.9679
23	58.5782
23.084	58.3572
23.168	58.1872
23.252	57.9191
23.336	57.5191
23.42	57.1825
23.504	57.1999
23.588	57.8135
23.672	59.0515
23.756	60.6303
23.84	62.1972
23.924	63.4666
24.008	64.3318
24.092	64.8698
24.176	65.2481
24.26	65.6333
24.344	66.1353
24.428	66.7275
24.512	67.1706
24.596	67.2363
24.68	66.7834
24.764	65.7834
24.848	64.3634
24.932	62.6379
25.016	60.5557
25.1	57.8533
25.184	54.1007
25.268	49.0059
25.352	42.6649
25.436	35.7881
25.52	29.5468
25.604	25.0944
25.688	23.0797
25.772	23.29
25.856	24.8815
25.94	27.0123
26.024	29.3321
26.108	32.1908
26.192	36.4949
26.276	43.1582
26.36	52.5116
26.444	63.8334
26.528	75.4139
26.612	85.1224
26.696	91.0586
26.78	92.2826
26.864	89.1369
26.948	82.9855
27.028	75.9145