Folder: Masteroppgave/Bakgrunnsmateriale/MATLAB/FTIR/ftir_data/subBb/Mapping_121 (part 35)

File: C-4040-8_t79.asc
PE IR       SPECTRUM    SPECTRUM    ASCII       PEDS        1.60
  -1
C-C14E~1.ASC
17/03/27
20:58:48.00
17/03/27
20:59:14.00
tln
$C-4040-8_t0079$<tbV0>[10.4,5.2,8.0,0.0,27,1,0]
27.028
64

2002,4.07
MIRTGS : RIGHTBACK : INTERNAL 2
MIR : ON : INTERNAL 2
OPTKBR

0.200000
8
8.000000
FILLER
RATIO
SPECTRUM
UNLOCKED 256

DOUBLE
64
COMBINED
1
0
0

0.002000
RATIO

1
0
TRUE
51149
0
LEFT NOT FITTED RIGHT NOT FITTED 0
NONE
NONE
15600
12
4.427000
51148
TRUE
1 0 8 72 0 0 0 0

15798

#HDR
-1
-1
#GR
µM
%T
2.38419e-05
0.0
2.000000
0.002000
12515
8
101.75
43.0727
#DATA
2.000000	 65.1883
2.084000	 64.8708
2.168000	 65.1411
2.252000	 63.9017
2.336000	 64.6063
2.420000	 65.1036
2.504000	 65.0031
2.588000	 65.4046
2.672000	 65.2369
2.756000	 65.222
2.840000	 65.0692
2.924000	 65.0037
3.008000	 65.1328
3.092000	 65.1833
3.176000	 65.2983
3.260000	 65.4275
3.344000	 65.1102
3.428000	 64.8397
3.512000	 65.0071
3.596000	 65.226
3.680000	 65.3822
3.764000	 65.1719
3.848000	 65.1571
3.932000	 65.2582
4.016000	 65.3003
4.100000	 65.1953
4.184000	 65.2024
4.268000	 65.3522
4.352000	 65.2928
4.436000	 65.2757
4.520000	 65.3642
4.604000	 65.1925
4.688000	 65.1027
4.772000	 65.3443
4.856000	 65.1063
4.940000	 65.3274
5.024000	 65.3288
5.108000	 65.4385
5.192000	 65.4174
5.276000	 65.4284
5.359999	 65.2817
5.444000	 65.2667
5.528000	 65.4036
5.612000	 65.3658
5.696000	 65.2603
5.780000	 65.2128
5.864000	 65.0418
5.948000	 65.4407
6.032000	 65.1975
6.116000	 65.1577
6.200000	 64.9658
6.284000	 65.0782
6.368000	 64.9358
6.452000	 65.0099
6.536000	 64.9924
6.620000	 64.8914
6.704000	 65.2203
6.788000	 65.2677
6.872000	 64.9581
6.956000	 65.095
7.040000	 65.0156
7.124000	 65.0875
7.208000	 65.0597
7.292000	 65.1223
7.376000	 65.0113
7.460000	 65.0637
7.544000	 65.194
7.628000	 64.9889
7.712000	 65.222
7.796000	 65.0489
7.880000	 65.0185
7.964000	 64.9158
8.048000	 64.8992
8.132000	 65.0505
8.216000	 65.0204
8.300000	 65.1113
8.384000	 64.8536
8.468000	 64.8297
8.552000	 64.7747
8.635999	 64.8253
8.719999	 64.7066
8.804000	 65.1051
8.888000	 64.8897
8.972000	 64.8113
9.056000	 64.8368
9.140000	 64.4428
9.224000	 64.6267
9.308000	 64.9188
9.391999	 64.612
9.475999	 64.8004
9.560000	 64.8226
9.644000	 64.6573
9.728000	 64.4135
9.812000	 64.0052
9.896000	 64.4665
9.980000	 64.6723
10.064	64.8468
10.148	64.6322
10.232	64.5668
10.316	64.7901
10.4	64.4644
10.484	64.7876
10.568	65.1877
10.652	64.4565
10.736	64.6428
10.82	65.0845
10.904	64.9993
10.988	64.7159
11.072	64.7382
11.156	64.7874
11.24	64.5837
11.324	64.4635
11.408	64.5633
11.492	64.814
11.576	64.5393
11.66	64.3566
11.744	64.4166
11.828	64.4816
11.912	64.3261
11.996	64.3443
12.08	64.5082
12.164	64.5564
12.248	64.4873
12.332	64.3692
12.416	64.2608
12.5	64.2427
12.584	64.2232
12.668	64.2699
12.752	64.0957
12.836	64.0124
12.92	64.0443
13.004	64.0861
13.088	64.0817
13.172	64.0057
13.256	63.6806
13.34	63.2665
13.424	63.4283
13.508	63.6436
13.592	63.5404
13.676	63.6787
13.76	63.8189
13.844	63.8266
13.928	63.6886
14.012	63.4801
14.096	63.2143
14.18	62.9496
14.264	63.0151
14.348	63.2993
14.432	63.5776
14.516	63.6693
14.6	63.4615
14.684	63.2492
14.768	63.1167
14.852	62.8112
14.936	62.507
15.02	62.4855
15.104	62.5897
15.188	62.7701
15.272	62.9676
15.356	62.9585
15.44	62.8829
15.524	62.9427
15.608	63.033
15.692	62.9903
15.776	62.8107
15.86	62.6656
15.944	62.6249
16.028	62.5361
16.112	62.3331
16.196	62.1496
16.28	62.1271
16.364	62.2778
16.448	62.4541
16.532	62.4744
16.616	62.3136
16.7	62.1
16.784	61.9861
16.868	62.0548
16.952	62.2243
17.036	62.3362
17.12	62.346
17.204	62.2823
17.288	62.1461
17.372	61.9964
17.456	61.9565
17.54	62.0434
17.624	62.1688
17.708	62.2712
17.792	62.2995
17.876	62.1933
17.96	61.9833
18.044	61.8258
18.128	61.8574
18.212	62.0429
18.296	62.2307
18.38	62.3169
18.464	62.3124
18.548	62.2655
18.632	62.1588
18.716	61.9329
18.8	61.5794
18.884	61.1728
18.968	60.8126
19.052	60.5689
19.136	60.4649
19.22	60.4732
19.304	60.5153
19.388	60.525
19.472	60.527
19.556	60.6138
19.64	60.813
19.724	61.0168
19.808	61.069
19.892	60.9221
19.976	60.7028
20.06	60.6112
20.144	60.7439
20.228	61.0293
20.312	61.3308
20.396	61.576
20.48	61.7571
20.564	61.852
20.648	61.7884
20.732	61.5158
20.816	61.0897
20.9	60.6519
20.984	60.3265
21.068	60.135
21.152	60.0236
21.236	59.94
21.32	59.8853
21.404	59.8859
21.488	59.9678
21.572	60.1331
21.656	60.3804
21.74	60.6943
21.824	61.0226
21.908	61.2611
21.992	61.2911
22.076	61.0577
22.16	60.614
22.244	60.0996
22.328	59.666
22.412	59.3797
22.496	59.1954
22.58	58.9854
22.664	58.6119
22.748	58.002
22.832	57.1793
22.916	56.2484
23	55.3301
23.084	54.5013
23.168	53.7695
23.252	53.104
23.336	52.4973
23.42	51.9763
23.504	51.674
23.588	51.7695
23.672	52.3901
23.756	53.5513
23.84	55.0836
23.924	56.6976
24.008	58.096
24.092	59.0763
24.176	59.6161
24.26	59.8878
24.344	60.1049
24.428	60.3605
24.512	60.6522
24.596	60.8698
24.68	60.9873
24.764	61.2297
24.848	62.0174
24.932	63.8959
25.016	67.2326
25.1	71.974
25.184	77.5938
25.268	83.3061
25.352	88.4322
25.436	92.5191
25.52	95.5404
25.604	97.8106
25.688	99.6714
25.772	101.139
25.856	101.749
25.94	100.731
26.024	97.2768
26.108	90.9939
26.192	82.2141
26.276	71.9684
26.36	61.819
26.444	53.3007
26.528	47.4156
26.612	44.2297
26.696	43.1294
26.78	43.2017
26.864	43.4483
26.948	43.4158
27.028	43.6233

File: C-4040-8_t79_cm-1.asc
PE IR       SPECTRUM    SPECTRUM    ASCII       PEDS        1.60
  -1
C-1DE0~1.ASC
17/03/27
20:58:48.00
17/03/27
20:58:48.00
tln
$C-4040-8_t0079$<tbV0>[10.4,5.2,8.0,0.0,27,1,0]
370
64

2002,4.07
MIRTGS : RIGHTBACK : INTERNAL 2
MIR : ON : INTERNAL 2
OPTKBR

0.200000
8
8.000000
FILLER
RATIO
SPECTRUM
UNLOCKED 256

DOUBLE
64
COMBINED
1
0
0

1.000000
RATIO

1
0
TRUE
51149
0
LEFT NOT FITTED RIGHT NOT FITTED 0
NONE
NONE
15600
12
4.427000
51148
TRUE
1 0 8 72 0 0 0 0

15798

#HDR
-1
-1
#GR
CM-1
%T
2.38419e-05
0.0
5000
-1.000000
4631
8
101.737
43.0727
#DATA
5000	65.1883
4984	65.2277
4968	64.3059
4952	65.3604
4936	64.8751
4920	64.7969
4904	64.3157
4888	64.2523
4872	65.0737
4856	64.5727
4840	65.1183
4824	65.0026
4808	64.9042
4792	64.8084
4776	64.9804
4760	65.5016
4744	65.4767
4728	65.3961
4712	65.0284
4696	64.9306
4680	65.4683
4664	65.1703
4648	65.2265
4632	65.3923
4616	65.065
4600	64.7768
4584	65.0077
4568	64.859
4552	64.8324
4536	64.2935
4520	65.4274
4504	64.4975
4488	64.6644
4472	64.0513
4456	64.1866
4440	63.9069
4424	64.0229
4408	63.7288
4392	58.6364
4376	72.4765
4360	64.7623
4344	65.1712
4328	64.466
4312	65.1847
4296	64.8673
4280	64.6827
4264	64.6415
4248	64.5907
4232	64.8375
4216	64.8638
4200	64.6814
4184	65.7227
4168	65.0721
4152	64.8794
4136	65.283
4120	64.9668
4104	64.9329
4088	65.1578
4072	64.9429
4056	65.2488
4040	65.1365
4024	65.2764
4008	65.4253
3992	65.0136
3976	64.9667
3960	65.0825
3944	64.9276
3928	65.1715
3912	65.1049
3896	65.107
3880	64.9761
3864	65.4048
3848	64.849
3832	64.7621
3816	65.2683
3800	65.069
3784	65.0144
3768	65.272
3752	65.0803
3736	65.2764
3720	65.223
3704	65.0286
3688	65.1568
3672	65.1489
3656	65.2218
3640	65.4246
3624	65.2297
3608	65.0389
3592	65.3023
3576	65.3261
3560	64.9882
3544	65.2673
3528	65.2255
3512	65.1668
3496	65.2944
3480	65.2071
3464	65.5751
3448	65.3459
3432	65.0294
3416	65.1657
3400	65.1178
3384	65.2206
3368	65.2426
3352	64.9277
3336	65.1244
3320	65.2384
3304	65.1223
3288	65.1385
3272	65.3334
3256	65.1762
3240	65.098
3224	64.9487
3208	65.045
3192	65.025
3176	65.1062
3160	65.0038
3144	65.4234
3128	65.4594
3112	65.2092
3096	65.0901
3080	65.1842
3064	65.3356
3048	65.0824
3032	65.4026
3016	65.0793
3000	65.0002
2984	65.1216
2968	64.9962
2952	65.0363
2936	64.9671
2920	64.7686
2904	65.0801
2888	65.2447
2872	65.1013
2856	64.9295
2840	65.1101
2824	65.1636
2808	65.1794
2792	65.1877
2776	65.2852
2760	65.1405
2744	65.2744
2728	65.2761
2712	65.3198
2696	65.3461
2680	65.201
2664	65.2434
2648	65.0944
2632	65.3452
2616	65.1561
2600	65.1789
2584	65.3161
2568	65.1496
2552	65.3126
2536	65.2264
2520	65.1654
2504	65.2717
2488	65.3528
2472	65.1755
2456	65.378
2440	65.2078
2424	64.9316
2408	65.3115
2392	65.2157
2376	65.1801
2360	65.3819
2344	65.3655
2328	65.3328
2312	65.3454
2296	65.2822
2280	65.2758
2264	65.1378
2248	65.3421
2232	65.3917
2216	65.3744
2200	65.2622
2184	65.2755
2168	65.0504
2152	65.0855
2136	65.0368
2120	65.3273
2104	65.2666
2088	65.3372
2072	65.8398
2056	65.1182
2040	65.3342
2024	65.3304
2008	65.2449
1992	65.2974
1976	65.2119
1960	65.432
1944	65.2777
1928	65.4281
1912	65.2736
1896	65.4178
1880	65.2414
1864	65.2579
1848	65.1693
1832	65.2679
1816	65.4484
1800	65.2725
1784	65.388
1768	65.1978
1752	65.1554
1736	65.1425
1720	65.1113
1704	65.0715
1688	65.4382
1672	65.3538
1656	65.2056
1640	65.211
1624	65.0353
1608	65.0589
1592	65.0607
1576	65.0264
1560	65.1067
1544	65.081
1528	65.0006
1512	64.8899
1496	65.1925
1480	65.1493
1464	65.0273
1448	64.7804
1432	65.0368
1416	65.0336
1400	65.0818
1384	65.067
1368	65.0356
1352	64.9785
1336	65.1546
1320	65.2121
1304	65.0733
1288	65.0302
1272	65.0169
1256	64.9204
1240	64.9976
1224	65.0501
1208	65.1121
1192	64.8581
1176	64.8354
1160	64.8567
1144	64.8168
1128	64.9343
1112	64.8447
1096	64.4949
1080	64.9003
1064	64.6212
1048	64.768
1032	64.4964
1016	64.1136
1000	64.7124
984	 64.5588
968	 64.7534
952	 64.9042
936	 64.3202
920	 65.0615
904	 64.7048
888	 64.5723
872	 64.8028
856	 64.3404
840	 64.3337
824	 64.5563
808	 64.3108
792	 64.2552
776	 64.0263
760	 64.0314
744	 63.5053
728	 63.7943
712	 63.3894
696	 63.3698
680	 63.2172
664	 62.5308
648	 62.885
632	 62.7144
616	 62.1151
600	 62.1806
584	 62.3448
568	 62.1419
552	 61.8406
536	 62.107
520	 60.4786
504	 61.0311
488	 61.7767
472	 59.9873
456	 61.2929
440	 58.1751
424	 51.757
408	 60.6452
392	 95.2321
376	 44.6625
370	 43.6233

File: C-4040-8_t80.asc
PE IR       SPECTRUM    SPECTRUM    ASCII       PEDS        1.60
  -1
C-A54A~1.ASC
17/03/27
21:03:25.00
17/03/27
21:03:51.00
tln
$C-4040-8_t0080$<tbV0>[7.8,5.2,8.0,0.0,27,1,0]
27.028
64

2002,4.07
MIRTGS : RIGHTBACK : INTERNAL 2
MIR : ON : INTERNAL 2
OPTKBR

0.200000
8
8.000000
FILLER
RATIO
SPECTRUM
UNLOCKED 256

DOUBLE
64
COMBINED
1
0
0

0.002000
RATIO

1
0
TRUE
51149
0
LEFT NOT FITTED RIGHT NOT FITTED 0
NONE
NONE
15600
12
4.427000
51148
TRUE
1 0 8 72 0 0 0 0

15798

#HDR
-1
-1
#GR
µM
%T
2.38419e-05
0.0
2.000000
0.002000
12515
8
109.902
40.2511
#DATA
2.000000	 64.8612
2.084000	 65.0036
2.168000	 64.9199
2.252000	 65.0946
2.336000	 64.9795
2.420000	 64.9127
2.504000	 65.1352
2.588000	 65.1669
2.672000	 65.2182
2.756000	 65.15
2.840000	 65.2785
2.924000	 65.1183
3.008000	 65.2146
3.092000	 65.3011
3.176000	 65.1904
3.260000	 65.206
3.344000	 65.1126
3.428000	 64.8582
3.512000	 65.066
3.596000	 65.2349
3.680000	 65.292
3.764000	 65.2807
3.848000	 65.3001
3.932000	 65.317
4.016000	 65.1585
4.100000	 65.5689
4.184000	 65.3199
4.268000	 65.367
4.352000	 65.1952
4.436000	 65.3565
4.520000	 65.3452
4.604000	 65.3199
4.688000	 65.3881
4.772000	 65.4088
4.856000	 65.0587
4.940000	 65.4601
5.024000	 65.2367
5.108000	 65.405
5.192000	 65.3206
5.276000	 65.3269
5.359999	 65.2806
5.444000	 65.2655
5.528000	 65.3692
5.612000	 65.2356
5.696000	 65.3824
5.780000	 65.0234
5.864000	 65.0808
5.948000	 65.2574
6.032000	 65.3192
6.116000	 65.0327
6.200000	 65.0119
6.284000	 65.1492
6.368000	 64.99
6.452000	 64.9593
6.536000	 65.083
6.620000	 65.126
6.704000	 64.9417
6.788000	 65.0491
6.872000	 65.3443
6.956000	 65.2915
7.040000	 65.051
7.124000	 64.9932
7.208000	 65.1088
7.292000	 65.2863
7.376000	 65.1776
7.460000	 65.0347
7.544000	 65.1859
7.628000	 64.9414
7.712000	 65.021
7.796000	 65.212
7.880000	 65.0771
7.964000	 65.0267
8.048000	 64.9093
8.132000	 64.9172
8.216000	 64.9647
8.300000	 65.0159
8.384000	 64.9056
8.468000	 64.9982
8.552000	 64.8623
8.635999	 64.8782
8.719999	 64.7246
8.804000	 64.8864
8.888000	 64.9728
8.972000	 64.7392
9.056000	 64.7924
9.140000	 64.8172
9.224000	 64.5744
9.308000	 64.8877
9.391999	 64.8506
9.475999	 64.79
9.560000	 64.7758
9.644000	 64.697
9.728000	 64.6462
9.812000	 64.5706
9.896000	 64.7708
9.980000	 64.9213
10.064	64.7795
10.148	64.6449
10.232	64.6873
10.316	64.8178
10.4	64.8368
10.484	65.0479
10.568	64.5023
10.652	64.5741
10.736	64.5951
10.82	64.7542
10.904	64.5405
10.988	64.3546
11.072	64.4552
11.156	64.5494
11.24	64.681
11.324	64.851
11.408	64.5326
11.492	64.4687
11.576	64.3173
11.66	64.2036
11.744	64.1487
11.828	64.592
11.912	64.7883
11.996	64.5056
12.08	64.4157
12.164	64.4087
12.248	64.6164
12.332	64.5731
12.416	64.2933
12.5	64.1325
12.584	64.0281
12.668	64.0667
12.752	64.0599
12.836	64.1615
12.92	64.3087
13.004	63.9544
13.088	63.71
13.172	63.7734
13.256	63.506
13.34	63.4885
13.424	63.5922
13.508	63.4946
13.592	63.5141
13.676	63.697
13.76	63.9155
13.844	63.9594
13.928	63.832
14.012	63.593
14.096	63.2862
14.18	63.347
14.264	63.7847
14.348	63.898
14.432	63.7399
14.516	63.5824
14.6	63.3048
14.684	63.1987
14.768	63.2542
14.852	63.2779
14.936	63.1901
15.02	62.8727
15.104	62.6831
15.188	62.7995
15.272	62.9179
15.356	62.9814
15.44	63.0093
15.524	62.8701
15.608	62.5589
15.692	62.3043
15.776	62.3323
15.86	62.49
15.944	62.4764
16.028	62.3632
16.112	62.371
16.196	62.4787
16.28	62.5669
16.364	62.6112
16.448	62.696
16.532	62.8934
16.616	63.0857
16.7	63.0418
16.784	62.7501
16.868	62.4982
16.952	62.5284
17.036	62.7375
17.12	62.8132
17.204	62.6098
17.288	62.282
17.372	62.1023
17.456	62.1757
17.54	62.332
17.624	62.3428
17.708	62.1636
17.792	61.9043
17.876	61.6821
17.96	61.5725
18.044	61.5851
18.128	61.6268
18.212	61.598
18.296	61.5226
18.38	61.485
18.464	61.4948
18.548	61.4978
18.632	61.4764
18.716	61.4499
18.8	61.4028
18.884	61.2921
18.968	61.1131
19.052	60.9155
19.136	60.7835
19.22	60.7972
19.304	60.9716
19.388	61.2286
19.472	61.4606
19.556	61.6159
19.64	61.7179
19.724	61.7853
19.808	61.7774
19.892	61.6342
19.976	61.3593
20.06	61.04
20.144	60.7848
20.228	60.6472
20.312	60.5969
20.396	60.5623
20.48	60.496
20.564	60.4201
20.648	60.4135
20.732	60.5359
20.816	60.7579
20.9	60.9562
20.984	60.9932
21.068	60.8139
21.152	60.472
21.236	60.0794
21.32	59.7427
21.404	59.5321
21.488	59.4994
21.572	59.6787
21.656	60.0554
21.74	60.5302
21.824	60.9321
21.908	61.0984
21.992	60.9842
22.076	60.6975
22.16	60.429
22.244	60.3174
22.328	60.3699
22.412	60.4762
22.496	60.4877
22.58	60.3148
22.664	59.9385
22.748	59.4138
22.832	58.8527
22.916	58.3776
23	58.0753
23.084	57.9666
23.168	57.9621
23.252	57.8991
23.336	57.6264
23.42	57.1243
23.504	56.502
23.588	56.0145
23.672	55.9477
23.756	56.4452
23.84	57.3948
23.924	58.4318
24.008	59.0876
24.092	58.9625
24.176	57.8988
24.26	56.0057
24.344	53.6631
24.428	51.4201
24.512	49.9291
24.596	49.7472
24.68	51.094
24.764	53.6396
24.848	56.6194
24.932	58.8904
25.016	59.4025
25.1	57.6683
25.184	53.9213
25.268	49.095
25.352	44.4711
25.436	41.2855
25.52	40.2547
25.604	41.4533
25.688	44.392
25.772	48.2308
25.856	52.1458
25.94	55.649
26.024	58.6189
26.108	61.1937
26.192	63.5556
26.276	65.8836
26.36	68.3179
26.444	71.0188
26.528	74.1924
26.612	78.1894
26.696	83.2776
26.78	89.4508
26.864	96.3788
26.948	103.499
27.028	109.902

File: C-4040-8_t80_cm-1.asc
PE IR       SPECTRUM    SPECTRUM    ASCII       PEDS        1.60
  -1
C-9D61~1.ASC
17/03/27
21:03:25.00
17/03/27
21:03:25.00
tln
$C-4040-8_t0080$<tbV0>[7.8,5.2,8.0,0.0,27,1,0]
370
64

2002,4.07
MIRTGS : RIGHTBACK : INTERNAL 2
MIR : ON : INTERNAL 2
OPTKBR

0.200000
8
8.000000
FILLER
RATIO
SPECTRUM
UNLOCKED 256

DOUBLE
64
COMBINED
1
0
0

1.000000
RATIO

1
0
TRUE
51149
0
LEFT NOT FITTED RIGHT NOT FITTED 0
NONE
NONE
15600
12
4.427000
51148
TRUE
1 0 8 72 0 0 0 0

15798

#HDR
-1
-1
#GR
CM-1
%T
2.38419e-05
0.0
5000
-1.000000
4631
8
109.902
40.2559
#DATA
5000	64.8612
4984	64.4536
4968	64.3098
4952	65.2054
4936	64.483
4920	65.065
4904	64.9272
4888	65.0456
4872	65.4035
4856	64.9751
4840	64.7502
4824	65.0062
4808	65.008
4792	64.9097
4776	65.0424
4760	64.9661
4744	65.3653
4728	65.3105
4712	65.3327
4696	64.9314
4680	64.8873
4664	64.9761
4648	65.1303
4632	65.104
4616	64.7986
4600	64.6272
4584	64.8616
4568	64.9837
4552	65.5483
4536	65.0876
4520	65.2143
4504	64.8322
4488	65.0947
4472	65.058
4456	64.988
4440	65.0636
4424	64.8504
4408	64.6767
4392	64.0304
4376	71.9747
4360	65.1561
4344	65.6899
4328	65.6278
4312	65.6305
4296	65.6437
4280	64.9755
4264	65.1932
4248	65.0592
4232	65.2304
4216	64.8886
4200	64.9945
4184	65.2374
4168	64.8859
4152	64.9488
4136	64.9453
4120	65.005
4104	64.9778
4088	65.0755
4072	65.1087
4056	65.0045
4040	65.1245
4024	65.1099
4008	65.0001
3992	65.1433
3976	65.2788
3960	65.1574
3944	65.1884
3928	65.0619
3912	65.4457
3896	65.3161
3880	65.2284
3864	65.167
3848	64.9595
3832	64.8865
3816	65.0871
3800	64.9148
3784	65.0975
3768	65.1993
3752	65.2727
3736	65.1577
3720	65.1448
3704	65.1272
3688	64.9904
3672	65.2016
3656	65.3416
3640	65.3213
3624	65.2106
3608	65.1567
3592	65.3254
3576	65.2656
3560	65.1505
3544	65.1757
3528	65.3004
3512	65.0087
3496	65.2094
3480	65.3249
3464	65.271
3448	65.2018
3432	65.1412
3416	65.3134
3400	65.1575
3384	65.247
3368	65.1437
3352	65.1579
3336	65.2298
3320	65.3734
3304	65.2168
3288	65.252
3272	65.2066
3256	65.3914
3240	65.2455
3224	65.3119
3208	65.0993
3192	65.241
3176	65.1297
3160	65.1519
3144	65.18
3128	65.4122
3112	65.1167
3096	65.1245
3080	65.1975
3064	65.1949
3048	65.0279
3032	65.3018
3016	65.1553
3000	65.2943
2984	65.0648
2968	64.8784
2952	64.9473
2936	65.1031
2920	64.8415
2904	65.0667
2888	65.0813
2872	65.1034
2856	65.0935
2840	65.2716
2824	65.1893
2808	65.2717
2792	65.2432
2776	65.3062
2760	65.354
2744	65.2648
2728	65.2384
2712	65.2766
2696	65.2805
2680	65.113
2664	65.1669
2648	65.2188
2632	65.3428
2616	65.2648
2600	65.3148
2584	65.2789
2568	65.2299
2552	65.2711
2536	65.3317
2520	65.1347
2504	65.0401
2488	65.1232
2472	65.2922
2456	65.2665
2440	65.5164
2424	64.9166
2408	65.4603
2392	65.3411
2376	65.3532
2360	65.1738
2344	65.3519
2328	65.2341
2312	65.3063
2296	65.1876
2280	65.3517
2264	65.4003
2248	65.3994
2232	65.229
2216	65.3702
2200	65.2244
2184	65.2658
2168	65.2966
2152	65.239
2136	65.3551
2120	65.2004
2104	65.4887
2088	65.5235
2072	65.679
2056	65.1545
2040	65.3768
2024	65.4624
2008	65.3519
1992	65.212
1976	65.2761
1960	65.3749
1944	65.2848
1928	65.3071
1912	65.3677
1896	65.3304
1880	65.263
1864	65.2893
1848	65.2456
1832	65.2844
1816	65.4072
1800	65.3312
1784	65.2613
1768	65.3708
1752	65.3596
1736	65.1066
1720	65.1677
1704	65.1141
1688	65.2649
1672	65.3096
1656	65.2969
1640	65.1381
1624	65.0805
1608	65.0396
1592	65.1459
1576	65.0296
1560	64.876
1544	64.9992
1528	65.1036
1512	65.0843
1496	65.0143
1480	65.0679
1464	65.2153
1448	64.8765
1432	65.1239
1416	64.9722
1400	64.9086
1384	65.1158
1368	65.2465
1352	64.9896
1336	65.0892
1320	65.0537
1304	64.9504
1288	65.1665
1272	65.0878
1256	65.027
1240	64.9673
1224	64.8734
1208	65.0259
1192	64.9044
1176	65.0283
1160	64.9302
1144	64.7268
1128	64.9495
1112	64.6682
1096	64.845
1080	64.6492
1064	64.8459
1048	64.7243
1032	64.6379
1016	64.6879
1000	64.8618
984	 64.6061
968	 64.8303
952	 64.9687
936	 64.6239
920	 64.7781
904	 64.4577
888	 64.7727
872	 64.4981
856	 64.1478
840	 64.8011
824	 64.3936
808	 64.4222
792	 64.0297
776	 64.2937
760	 63.7837
744	 63.5805
728	 63.863
712	 63.4642
696	 63.8645
680	 63.2105
664	 62.7373
648	 63.0119
632	 62.4286
616	 62.5253
600	 63.0966
584	 62.8104
568	 62.3587
552	 61.624
536	 61.4687
520	 60.8113
504	 61.7388
488	 60.4846
472	 60.3101
456	 61.0941
440	 59.5515
424	 56.0259
408	 49.9524
392	 40.2559
376	 77.3322
370	 109.902

File: C-4040-8_t81.asc
PE IR       SPECTRUM    SPECTRUM    ASCII       PEDS        1.60
  -1
C-A54E~1.ASC
17/03/27
21:08:01.00
17/03/27
21:08:28.00
tln
$C-4040-8_t0081$<tbV0>[5.2,5.2,8.0,0.0,27,1,0]
27.028
64

2002,4.07
MIRTGS : RIGHTBACK : INTERNAL 2
MIR : ON : INTERNAL 2
OPTKBR

0.200000
8
8.000000
FILLER
RATIO
SPECTRUM
UNLOCKED 256

DOUBLE
64
COMBINED
1
0
0

0.002000
RATIO

1
0
TRUE
51149
0
LEFT NOT FITTED RIGHT NOT FITTED 0
NONE
NONE
15600
12
4.427000
51148
TRUE
1 0 8 72 0 0 0 0

15798

#HDR
-1
-1
#GR
µM
%T
2.38419e-05
0.0
2.000000
0.002000
12515
8
110.557
56.2774
#DATA
2.000000	 65.3626
2.084000	 64.9151
2.168000	 65.1863
2.252000	 64.9702
2.336000	 64.5229
2.420000	 65.3541
2.504000	 65.5396
2.588000	 65.3241
2.672000	 65.2237
2.756000	 65.224
2.840000	 65.095
2.924000	 65.0882
3.008000	 65.252
3.092000	 65.2008
3.176000	 65.2394
3.260000	 65.4469
3.344000	 65.2186
3.428000	 64.9065
3.512000	 65.317
3.596000	 65.2733
3.680000	 65.4197
3.764000	 65.3178
3.848000	 65.341
3.932000	 65.347
4.016000	 65.1829
4.100000	 65.3564
4.184000	 65.3166
4.268000	 65.2613
4.352000	 65.3475
4.436000	 65.2754
4.520000	 65.393
4.604000	 65.3585
4.688000	 65.2361
4.772000	 65.5055
4.856000	 65.3674
4.940000	 65.5226
5.024000	 65.2999
5.108000	 65.3511
5.192000	 65.3304
5.276000	 65.2956
5.359999	 65.292
5.444000	 65.3737
5.528000	 65.4337
5.612000	 65.4168
5.696000	 65.3308
5.780000	 65.1165
5.864000	 65.1755
5.948000	 65.323
6.032000	 65.3421
6.116000	 65.1749
6.200000	 65.2964
6.284000	 65.1715
6.368000	 65.0865
6.452000	 64.9839
6.536000	 64.9612
6.620000	 65.1245
6.704000	 65.3001
6.788000	 65.2177
6.872000	 65.1373
6.956000	 65.1918
7.040000	 65.1404
7.124000	 65.1765
7.208000	 65.032
7.292000	 64.9864
7.376000	 65.0796
7.460000	 65.1154
7.544000	 65.1761
7.628000	 65.2359
7.712000	 65.0375
7.796000	 65.1573
7.880000	 65.0206
7.964000	 64.9645
8.048000	 64.8563
8.132000	 64.9983
8.216000	 64.99
8.300000	 65.0415
8.384000	 64.9883
8.468000	 65.0222
8.552000	 64.8132
8.635999	 64.9281
8.719999	 64.7518
8.804000	 64.9301
8.888000	 64.941
8.972000	 64.7153
9.056000	 65.3053
9.140000	 64.8234
9.224000	 64.9139
9.308000	 64.8224
9.391999	 64.6534
9.475999	 64.739
9.560000	 64.606
9.644000	 64.7614
9.728000	 64.8746
9.812000	 64.802
9.896000	 64.7734
9.980000	 64.5358
10.064	64.5925
10.148	64.774
10.232	64.6617
10.316	64.5466
10.4	64.4675
10.484	64.8798
10.568	64.7842
10.652	65.0017
10.736	65.2357
10.82	65.6772
10.904	65.0705
10.988	65.0456
11.072	65.0011
11.156	65.0665
11.24	64.717
11.324	64.5376
11.408	64.3956
11.492	64.0672
11.576	64.3372
11.66	64.3685
11.744	64.4162
11.828	64.6141
11.912	64.6992
11.996	64.5588
12.08	64.4933
12.164	64.616
12.248	64.6595
12.332	64.4228
12.416	64.3632
12.5	64.4625
12.584	64.1026
12.668	64.1023
12.752	64.4086
12.836	64.3362
12.92	63.9632
13.004	63.9926
13.088	64.2366
13.172	64.3192
13.256	63.9986
13.34	63.8743
13.424	64.1844
13.508	64.3129
13.592	64.2204
13.676	64.3185
13.76	64.4776
13.844	64.3192
13.928	64.0702
14.012	63.8929
14.096	63.5369
14.18	63.3203
14.264	63.4136
14.348	63.4661
14.432	63.3887
14.516	63.2045
14.6	63.1009
14.684	63.2968
14.768	63.4589
14.852	63.3062
14.936	63.1074
15.02	63.0929
15.104	63.0797
15.188	62.9939
15.272	62.9311
15.356	62.9839
15.44	63.2511
15.524	63.4867
15.608	63.3236
15.692	62.8697
15.776	62.596
15.86	62.7171
15.944	62.9137
16.028	62.8865
16.112	62.7581
16.196	62.7176
16.28	62.7908
16.364	62.9729
16.448	63.2618
16.532	63.5367
16.616	63.599
16.7	63.3854
16.784	63.0587
16.868	62.8564
16.952	62.8737
17.036	62.963
17.12	62.8994
17.204	62.6972
17.288	62.6085
17.372	62.7592
17.456	62.9728
17.54	63.0307
17.624	62.9307
17.708	62.7702
17.792	62.5712
17.876	62.366
17.96	62.2955
18.044	62.4473
18.128	62.707
18.212	62.9366
18.296	63.155
18.38	63.3957
18.464	63.5222
18.548	63.3633
18.632	62.9553
18.716	62.5346
18.8	62.3147
18.884	62.3406
18.968	62.5203
19.052	62.6909
19.136	62.6787
19.22	62.3834
19.304	61.8711
19.388	61.3664
19.472	61.1152
19.556	61.2006
19.64	61.4833
19.724	61.7329
19.808	61.7978
19.892	61.6517
19.976	61.3506
20.06	60.9783
20.144	60.6254
20.228	60.3716
20.312	60.2594
20.396	60.2777
20.48	60.3782
20.564	60.5131
20.648	60.6566
20.732	60.8044
20.816	60.955
20.9	61.0869
20.984	61.1476
21.068	61.0689
21.152	60.8231
21.236	60.4618
21.32	60.0961
21.404	59.8451
21.488	59.7662
21.572	59.832
21.656	59.9589
21.74	60.0525
21.824	60.0602
21.908	59.9871
21.992	59.8684
22.076	59.737
22.16	59.5902
22.244	59.387
22.328	59.1107
22.412	58.8107
22.496	58.6164
22.58	58.6579
22.664	58.9848
22.748	59.5035
22.832	60.0132
22.916	60.2968
23	60.2107
23.084	59.7358
23.168	58.9602
23.252	58.0324
23.336	57.1504
23.42	56.505
23.504	56.278
23.588	56.5803
23.672	57.4
23.756	58.5724
23.84	59.8186
23.924	60.8551
24.008	61.5171
24.092	61.8122
24.176	61.8865
24.26	61.9487
24.344	62.145
24.428	62.4805
24.512	62.8884
24.596	63.3171
24.68	63.8077
24.764	64.4987
24.848	65.574
24.932	67.1
25.016	68.9369
25.1	70.8728
25.184	72.5696
25.268	73.7844
25.352	74.5977
25.436	75.2881
25.52	76.1914
25.604	77.5138
25.688	79.1048
25.772	80.4382
25.856	80.827
25.94	79.6989
26.024	76.7708
26.108	72.1974
26.192	66.7214
26.276	61.5037
26.36	57.9277
26.444	56.8129
26.528	58.285
26.612	61.7557
26.696	66.7967
26.78	73.549
26.864	82.8215
26.948	95.492
27.028	110.557