Folder: Masteroppgave/Bakgrunnsmateriale/MATLAB/FTIR/ftir_data/subBb/Mapping_121 (part 32)

File: C-4040-8_t71_cm-1.asc
PE IR       SPECTRUM    SPECTRUM    ASCII       PEDS        1.60
  -1
C-1DE4~1.ASC
17/03/27
20:21:15.00
17/03/27
20:21:15.00
tln
$C-4040-8_t0071$<tbV0>[2.6,2.6,8.0,0.0,27,1,0]
370
64

2002,4.07
MIRTGS : RIGHTBACK : INTERNAL 2
MIR : ON : INTERNAL 2
OPTKBR

0.200000
8
8.000000
FILLER
RATIO
SPECTRUM
UNLOCKED 256

DOUBLE
64
COMBINED
1
0
0

1.000000
RATIO

1
0
TRUE
51149
0
LEFT NOT FITTED RIGHT NOT FITTED 0
NONE
NONE
15600
12
4.427000
51148
TRUE
1 0 8 72 0 0 0 0

15798

#HDR
-1
-1
#GR
CM-1
%T
2.38419e-05
0.0
5000
-1.000000
4631
8
89.6537
42.2066
#DATA
5000	64.9927
4984	65.1905
4968	64.052
4952	65.8665
4936	64.4418
4920	64.6862
4904	65.1566
4888	64.4571
4872	65.7873
4856	65.1942
4840	65.2212
4824	65.0374
4808	65.1756
4792	65.078
4776	65.1906
4760	65.499
4744	65.5249
4728	65.3438
4712	65.6015
4696	65.2863
4680	65.6208
4664	65.3779
4648	65.7003
4632	65.1618
4616	65.2853
4600	64.8187
4584	64.9274
4568	64.7718
4552	64.671
4536	64.8263
4520	64.5602
4504	64.6006
4488	64.9585
4472	64.2267
4456	64.3385
4440	64.5442
4424	63.9867
4408	63.3368
4392	63.0285
4376	75.8583
4360	65.3079
4344	64.44
4328	64.7159
4312	64.408
4296	64.8478
4280	64.4961
4264	64.7344
4248	64.9442
4232	64.6427
4216	64.6188
4200	64.844
4184	65.4576
4168	64.7661
4152	65.5134
4136	65.2705
4120	65.0375
4104	65.0796
4088	65.3811
4072	65.242
4056	65.2599
4040	65.252
4024	65.2827
4008	65.5003
3992	65.6502
3976	65.4699
3960	65.2958
3944	64.9353
3928	65.4155
3912	65.4228
3896	65.2567
3880	65.2301
3864	65.5278
3848	65.1582
3832	65.1716
3816	65.2457
3800	65.1131
3784	65.2381
3768	65.1337
3752	65.2236
3736	65.4241
3720	65.3162
3704	65.2451
3688	65.1702
3672	65.0943
3656	65.2601
3640	65.2998
3624	65.5101
3608	65.1663
3592	65.44
3576	65.4406
3560	65.4105
3544	65.2895
3528	65.4571
3512	65.3849
3496	65.2943
3480	65.623
3464	65.2299
3448	65.5037
3432	65.1767
3416	65.3695
3400	65.1864
3384	65.2651
3368	65.1928
3352	65.4143
3336	65.3988
3320	65.3728
3304	65.2741
3288	65.2789
3272	65.2044
3256	65.1556
3240	65.1767
3224	65.2166
3208	65.1685
3192	65.2936
3176	65.2832
3160	65.2071
3144	65.5653
3128	65.3503
3112	64.9907
3096	65.1999
3080	65.2056
3064	65.316
3048	65.2813
3032	65.4663
3016	65.0818
3000	65.164
2984	65.1303
2968	65.0353
2952	65.1661
2936	65.1713
2920	64.9305
2904	65.1633
2888	65.2579
2872	65.194
2856	65.0303
2840	65.0964
2824	65.2282
2808	65.3544
2792	65.3046
2776	65.3149
2760	65.4547
2744	65.4953
2728	65.2445
2712	65.4804
2696	65.3454
2680	65.19
2664	65.3558
2648	65.3041
2632	65.2786
2616	65.4106
2600	65.1845
2584	65.3067
2568	65.2398
2552	65.3673
2536	65.3191
2520	65.416
2504	65.3384
2488	65.2564
2472	65.244
2456	65.3895
2440	65.5098
2424	65.1553
2408	65.1134
2392	65.4474
2376	65.3617
2360	65.2867
2344	65.4964
2328	65.4517
2312	65.4452
2296	65.4132
2280	65.3462
2264	65.3588
2248	65.5153
2232	65.3939
2216	65.5028
2200	65.3106
2184	65.4057
2168	65.5052
2152	65.161
2136	65.3726
2120	65.3964
2104	65.4448
2088	65.5711
2072	65.4533
2056	64.9215
2040	65.4252
2024	65.3027
2008	65.3954
1992	65.3279
1976	65.357
1960	65.3437
1944	65.4151
1928	65.3234
1912	65.3889
1896	65.3259
1880	65.3592
1864	65.3743
1848	65.3002
1832	65.4372
1816	65.514
1800	65.2462
1784	65.4071
1768	65.3657
1752	65.259
1736	65.2048
1720	65.1285
1704	65.2236
1688	65.4569
1672	65.3354
1656	65.2575
1640	65.2932
1624	65.1093
1608	65.0606
1592	65.0247
1576	65.1781
1560	65.1276
1544	65.124
1528	65.1694
1512	65.1322
1496	64.95
1480	65.2245
1464	65.1873
1448	65.0651
1432	65.2362
1416	65.3051
1400	65.1905
1384	65.2228
1368	65.1222
1352	65.1621
1336	65.2567
1320	65.0838
1304	65.0711
1288	65.295
1272	65.0244
1256	65.1452
1240	64.9508
1224	65.0439
1208	65.0944
1192	64.8577
1176	64.9099
1160	64.9138
1144	64.6757
1128	64.9506
1112	64.769
1096	65.1245
1080	64.6878
1064	64.5976
1048	64.3936
1032	65.0182
1016	64.0759
1000	64.652
984	 64.6019
968	 64.5276
952	 64.8081
936	 64.807
920	 64.9412
904	 64.5382
888	 64.7381
872	 64.5215
856	 64.2471
840	 64.7701
824	 64.2312
808	 64.3594
792	 64.1635
776	 64.1126
760	 64.0509
744	 63.443
728	 63.8292
712	 63.2965
696	 63.9446
680	 63.3502
664	 62.583
648	 62.6628
632	 62.5307
616	 62.351
600	 62.6546
584	 62.8511
568	 61.7051
552	 61.2678
536	 61.4352
520	 61.1725
504	 60.5316
488	 60.0537
472	 59.3058
456	 59.542
440	 58.6745
424	 53.6164
408	 51.427
392	 72.0859
376	 59.2123
370	 42.7967

File: C-4040-8_t72.asc
PE IR       SPECTRUM    SPECTRUM    ASCII       PEDS        1.60
  -1
C-A142~1.ASC
17/03/27
20:25:52.00
17/03/27
20:26:19.00
tln
$C-4040-8_t0072$<tbV0>[0.0,2.6,8.0,0.0,27,1,0]
27.028
64

2002,4.07
MIRTGS : RIGHTBACK : INTERNAL 2
MIR : ON : INTERNAL 2
OPTKBR

0.200000
8
8.000000
FILLER
RATIO
SPECTRUM
UNLOCKED 256

DOUBLE
64
COMBINED
1
0
0

0.002000
RATIO

1
0
TRUE
51149
0
LEFT NOT FITTED RIGHT NOT FITTED 0
NONE
NONE
15600
12
4.427000
51148
TRUE
1 0 8 72 0 0 0 0

15798

#HDR
-1
-1
#GR
µM
%T
2.38419e-05
0.0
2.000000
0.002000
12515
8
96.6571
43.1466
#DATA
2.000000	 64.9827
2.084000	 65.248
2.168000	 65.0799
2.252000	 64.2387
2.336000	 64.8392
2.420000	 65.2279
2.504000	 65.3736
2.588000	 65.401
2.672000	 65.0964
2.756000	 65.2763
2.840000	 65.4331
2.924000	 65.1943
3.008000	 65.3196
3.092000	 65.0577
3.176000	 65.372
3.260000	 65.4173
3.344000	 65.4123
3.428000	 64.8183
3.512000	 65.3046
3.596000	 65.4717
3.680000	 65.5577
3.764000	 65.4245
3.848000	 65.3692
3.932000	 65.3524
4.016000	 65.5775
4.100000	 65.5133
4.184000	 65.3179
4.268000	 65.2954
4.352000	 65.4013
4.436000	 65.4188
4.520000	 65.4088
4.604000	 65.4012
4.688000	 65.6066
4.772000	 65.4388
4.856000	 65.2545
4.940000	 65.4098
5.024000	 65.2619
5.108000	 65.3056
5.192000	 65.5383
5.276000	 65.4627
5.359999	 65.4532
5.444000	 65.3679
5.528000	 65.5953
5.612000	 65.3955
5.696000	 65.4451
5.780000	 65.2791
5.864000	 65.2936
5.948000	 65.4571
6.032000	 65.372
6.116000	 65.2577
6.200000	 65.1089
6.284000	 65.2171
6.368000	 64.9887
6.452000	 65.0169
6.536000	 65.1927
6.620000	 65.1612
6.704000	 65.2716
6.788000	 65.2358
6.872000	 65.2103
6.956000	 65.2638
7.040000	 65.2874
7.124000	 65.1009
7.208000	 65.2404
7.292000	 65.3365
7.376000	 65.1342
7.460000	 65.2744
7.544000	 65.2098
7.628000	 65.1108
7.712000	 65.1538
7.796000	 65.189
7.880000	 65.1477
7.964000	 65.1236
8.048000	 65.1651
8.132000	 65.0276
8.216000	 65.1639
8.300000	 65.1455
8.384000	 64.8811
8.468000	 65.118
8.552000	 64.8538
8.635999	 64.7634
8.719999	 64.9579
8.804000	 64.9822
8.888000	 64.9379
8.972000	 64.7122
9.056000	 65.1784
9.140000	 65.064
9.224000	 64.8106
9.308000	 65.0214
9.391999	 64.9687
9.475999	 64.871
9.560000	 64.56
9.644000	 64.8092
9.728000	 64.6058
9.812000	 64.6747
9.896000	 64.9957
9.980000	 64.9884
10.064	64.6696
10.148	65.0383
10.232	64.7022
10.316	64.7088
10.4	65.0307
10.484	65.2496
10.568	65.2699
10.652	65.1617
10.736	64.9447
10.82	64.7395
10.904	64.8523
10.988	65.1878
11.072	64.8976
11.156	64.9248
11.24	64.9893
11.324	64.8788
11.408	64.6713
11.492	64.4322
11.576	64.4995
11.66	64.4176
11.744	64.3968
11.828	64.4426
11.912	64.4996
11.996	64.7558
12.08	64.5613
12.164	64.2623
12.248	64.3762
12.332	64.5325
12.416	64.5642
12.5	64.5098
12.584	64.2775
12.668	64.2102
12.752	64.0404
12.836	64.0791
12.92	64.266
13.004	64.2436
13.088	64.335
13.172	64.4748
13.256	64.3172
13.34	64.0087
13.424	64.2277
13.508	64.1032
13.592	63.5032
13.676	63.2601
13.76	63.4214
13.844	63.7133
13.928	63.789
14.012	63.7189
14.096	63.5916
14.18	63.5983
14.264	63.7445
14.348	63.7011
14.432	63.5846
14.516	63.4911
14.6	63.3312
14.684	63.2914
14.768	63.2766
14.852	63.1698
14.936	63.109
15.02	63.0372
15.104	62.9627
15.188	63.0229
15.272	63.1658
15.356	63.2428
15.44	63.1806
15.524	63.0522
15.608	62.94
15.692	62.8408
15.776	62.8548
15.86	63.0974
15.944	63.3389
16.028	63.2308
16.112	62.7997
16.196	62.3101
16.28	61.983
16.364	62.0523
16.448	62.6112
16.532	63.338
16.616	63.7138
16.7	63.524
16.784	63.0423
16.868	62.7341
16.952	62.7594
17.036	62.8805
17.12	62.8758
17.204	62.811
17.288	62.8395
17.372	62.9089
17.456	62.8377
17.54	62.6176
17.624	62.4453
17.708	62.4348
17.792	62.4874
17.876	62.4688
17.96	62.3779
18.044	62.3053
18.128	62.3373
18.212	62.4857
18.296	62.6831
18.38	62.8469
18.464	62.9163
18.548	62.827
18.632	62.539
18.716	62.1402
18.8	61.8596
18.884	61.8675
18.968	62.0931
19.052	62.3042
19.136	62.3553
19.22	62.2922
19.304	62.213
19.388	62.1019
19.472	61.8566
19.556	61.4516
19.64	61.0185
19.724	60.7389
19.808	60.6744
19.892	60.7194
19.976	60.7296
20.06	60.6744
20.144	60.6434
20.228	60.7263
20.312	60.9218
20.396	61.1599
20.48	61.373
20.564	61.5344
20.648	61.6353
20.732	61.6666
20.816	61.6231
20.9	61.5162
20.984	61.357
21.068	61.137
21.152	60.8359
21.236	60.4607
21.32	60.0637
21.404	59.7288
21.488	59.5317
21.572	59.5049
21.656	59.6289
21.74	59.848
21.824	60.1083
21.908	60.3648
21.992	60.565
22.076	60.6445
22.16	60.5396
22.244	60.2494
22.328	59.8661
22.412	59.5473
22.496	59.4491
22.58	59.6223
22.664	60.0036
22.748	60.4592
22.832	60.8721
22.916	61.1805
23	61.3645
23.084	61.3743
23.168	61.127
23.252	60.5557
23.336	59.6475
23.42	58.5224
23.504	57.3997
23.588	56.5228
23.672	56.0573
23.756	56.0381
23.84	56.4148
23.924	57.0859
24.008	57.9396
24.092	58.8811
24.176	59.8527
24.26	60.7465
24.344	61.4078
24.428	61.6569
24.512	61.2324
24.596	59.8654
24.68	57.4272
24.764	54.0941
24.848	50.3665
24.932	46.945
25.016	44.4494
25.1	43.255
25.184	43.3411
25.268	44.2906
25.352	45.5049
25.436	46.308
25.52	46.2194
25.604	45.1493
25.688	43.8147
25.772	43.5053
25.856	45.431
25.94	50.2672
26.024	57.7195
26.108	66.4242
26.192	74.4302
26.276	79.8207
26.36	81.1487
26.444	78.3813
26.528	72.9542
26.612	67.1826
26.696	63.442
26.78	63.2494
26.864	66.9595
26.948	73.9143
27.028	82.5312

File: C-4040-8_t72_cm-1.asc
PE IR       SPECTRUM    SPECTRUM    ASCII       PEDS        1.60
  -1
C-1D64~1.ASC
17/03/27
20:25:52.00
17/03/27
20:25:52.00
tln
$C-4040-8_t0072$<tbV0>[0.0,2.6,8.0,0.0,27,1,0]
370
64

2002,4.07
MIRTGS : RIGHTBACK : INTERNAL 2
MIR : ON : INTERNAL 2
OPTKBR

0.200000
8
8.000000
FILLER
RATIO
SPECTRUM
UNLOCKED 256

DOUBLE
64
COMBINED
1
0
0

1.000000
RATIO

1
0
TRUE
51149
0
LEFT NOT FITTED RIGHT NOT FITTED 0
NONE
NONE
15600
12
4.427000
51148
TRUE
1 0 8 72 0 0 0 0

15798

#HDR
-1
-1
#GR
CM-1
%T
2.38419e-05
0.0
5000
-1.000000
4631
8
96.6948
43.1548
#DATA
5000	64.9827
4984	65.0852
4968	63.9523
4952	65.7246
4936	64.2559
4920	64.6841
4904	64.9163
4888	64.7912
4872	65.1793
4856	65.0724
4840	65.1144
4824	65.3148
4808	65.1226
4792	64.9965
4776	65.2129
4760	65.2162
4744	65.6578
4728	65.1666
4712	65.621
4696	65.2954
4680	65.27
4664	65.4101
4648	65.2785
4632	65.665
4616	64.9559
4600	64.8925
4584	65.0686
4568	64.6812
4552	64.8863
4536	65.1394
4520	64.6982
4504	64.8504
4488	64.4272
4472	64.6573
4456	64.2246
4440	64.2295
4424	64.2874
4408	63.1805
4392	63.8577
4376	74.0312
4360	65.7392
4344	64.979
4328	65.2302
4312	64.6588
4296	65.0639
4280	64.8393
4264	64.818
4248	64.865
4232	64.7562
4216	64.3087
4200	64.5984
4184	65.433
4168	64.7074
4152	65.234
4136	65.2102
4120	65.2276
4104	65.2502
4088	65.1193
4072	65.4677
4056	65.4344
4040	65.2557
4024	65.3555
4008	65.1922
3992	65.4471
3976	65.3793
3960	65.2314
3944	65.2064
3928	65.24
3912	65.3187
3896	65.3305
3880	65.1061
3864	65.4013
3848	65.1841
3832	65.3022
3816	65.2547
3800	65.215
3784	65.3047
3768	65.2187
3752	65.2946
3736	65.1275
3720	65.3238
3704	65.3596
3688	65.3364
3672	65.3429
3656	65.2865
3640	65.4671
3624	65.3811
3608	65.4781
3592	65.4312
3576	65.4373
3560	65.4292
3544	65.2727
3528	65.4257
3512	65.3661
3496	65.5049
3480	65.3596
3464	65.3699
3448	65.4107
3432	65.2421
3416	65.4522
3400	65.0691
3384	65.4024
3368	65.3118
3352	65.2745
3336	65.0631
3320	65.3243
3304	65.2289
3288	65.3391
3272	65.2289
3256	65.2479
3240	65.2365
3224	65.239
3208	65.3289
3192	65.5212
3176	65.1951
3160	65.1871
3144	65.5258
3128	65.249
3112	65.3317
3096	65.3571
3080	65.156
3064	65.3521
3048	65.2497
3032	65.4305
3016	65.2528
3000	65.1158
2984	65.2618
2968	65.0496
2952	65.1194
2936	65.1458
2920	64.8196
2904	65.1672
2888	65.168
2872	65.2426
2856	65.2486
2840	65.3667
2824	65.3873
2808	65.4445
2792	65.291
2776	65.4547
2760	65.3941
2744	65.3867
2728	65.3874
2712	65.5797
2696	65.4238
2680	65.1602
2664	65.5389
2648	65.2672
2632	65.4516
2616	65.4793
2600	65.3768
2584	65.4784
2568	65.2929
2552	65.4465
2536	65.3687
2520	65.5576
2504	65.285
2488	65.5585
2472	65.3423
2456	65.3568
2440	65.4863
2424	64.9101
2408	65.3354
2392	65.2588
2376	65.4678
2360	65.309
2344	65.2757
2328	65.4963
2312	65.4563
2296	65.4448
2280	65.4605
2264	65.4186
2248	65.3468
2232	65.5543
2216	65.4007
2200	65.2831
2184	65.4632
2168	65.3614
2152	65.3587
2136	65.6204
2120	65.3229
2104	65.3746
2088	65.5448
2072	65.2043
2056	65.2344
2040	65.3404
2024	65.4093
2008	65.428
1992	65.2709
1976	65.2923
1960	65.3135
1944	65.341
1928	65.5143
1912	65.4582
1896	65.448
1880	65.328
1864	65.471
1848	65.3623
1832	65.3836
1816	65.688
1800	65.4985
1784	65.3811
1768	65.377
1752	65.3732
1736	65.3369
1720	65.261
1704	65.3287
1688	65.5
1672	65.2797
1656	65.3927
1640	65.3777
1624	65.1936
1608	65.1216
1592	65.2187
1576	65.1237
1560	65.0262
1544	65.1387
1528	65.2267
1512	65.1232
1496	65.2338
1480	65.3439
1464	65.1925
1448	65.0061
1432	65.2761
1416	65.2119
1400	65.1206
1384	65.3332
1368	65.2126
1352	65.2151
1336	65.3131
1320	65.2319
1304	65.1387
1288	65.2308
1272	65.114
1256	65.129
1240	65.1684
1224	65.0592
1208	65.203
1192	64.891
1176	65.0508
1160	64.7479
1144	65.042
1128	64.9179
1112	64.709
1096	65.1316
1080	64.9182
1064	64.9582
1048	64.5325
1032	64.5376
1016	64.8248
1000	64.9555
984	 65.0939
968	 64.7642
952	 65.2412
936	 65.0729
920	 64.7322
904	 64.9319
888	 64.952
872	 64.4516
856	 64.386
840	 64.4775
824	 64.3262
808	 64.5496
792	 64.2336
776	 64.2142
760	 64.4631
744	 64.2704
728	 63.3442
712	 63.6705
696	 63.6685
680	 63.2967
664	 62.9913
648	 63.1912
632	 62.9672
616	 62.13
600	 63.6589
584	 62.8733
568	 62.4694
552	 62.3248
536	 62.4245
520	 62.2818
504	 60.6887
488	 61.399
472	 60.689
456	 60.4245
440	 60.3474
424	 56.5481
408	 61.2549
392	 46.2853
376	 68.18
370	 82.5312

File: C-4040-8_t73.asc
PE IR       SPECTRUM    SPECTRUM    ASCII       PEDS        1.60
  -1
C-A146~1.ASC
17/03/27
20:30:29.00
17/03/27
20:30:55.00
tln
$C-4040-8_t0073$<tbV0>[-2.6,2.6,8.0,0.0,27,1,0]
27.028
64

2002,4.07
MIRTGS : RIGHTBACK : INTERNAL 2
MIR : ON : INTERNAL 2
OPTKBR

0.200000
8
8.000000
FILLER
RATIO
SPECTRUM
UNLOCKED 256

DOUBLE
64
COMBINED
1
0
0

0.002000
RATIO

1
0
TRUE
51149
0
LEFT NOT FITTED RIGHT NOT FITTED 0
NONE
NONE
15600
12
4.427000
51148
TRUE
1 0 8 72 0 0 0 0

15798

#HDR
-1
-1
#GR
µM
%T
2.38419e-05
0.0
2.000000
0.002000
12515
8
114.414
39.7392
#DATA
2.000000	 64.7812
2.084000	 64.9574
2.168000	 64.9397
2.252000	 65.2192
2.336000	 64.8477
2.420000	 65.0482
2.504000	 65.055
2.588000	 65.3215
2.672000	 65.1353
2.756000	 65.2055
2.840000	 65.1729
2.924000	 65.512
3.008000	 65.1083
3.092000	 65.2675
3.176000	 65.178
3.260000	 65.2632
3.344000	 65.1898
3.428000	 64.9522
3.512000	 64.9804
3.596000	 65.2006
3.680000	 65.2185
3.764000	 65.3502
3.848000	 65.2483
3.932000	 65.2154
4.016000	 65.138
4.100000	 65.3868
4.184000	 65.3572
4.268000	 65.3269
4.352000	 65.2628
4.436000	 65.3267
4.520000	 65.2962
4.604000	 65.3734
4.688000	 65.3638
4.772000	 65.4145
4.856000	 65.1457
4.940000	 65.236
5.024000	 65.2181
5.108000	 65.4231
5.192000	 65.4277
5.276000	 65.4509
5.359999	 65.3509
5.444000	 65.3484
5.528000	 65.3564
5.612000	 65.4421
5.696000	 65.3289
5.780000	 65.3029
5.864000	 65.1602
5.948000	 65.3107
6.032000	 65.3084
6.116000	 65.1459
6.200000	 65.176
6.284000	 65.0523
6.368000	 65.0976
6.452000	 65.023
6.536000	 65.1561
6.620000	 65.2091
6.704000	 65.2079
6.788000	 65.2007
6.872000	 65.0034
6.956000	 65.3259
7.040000	 65.1748
7.124000	 64.9201
7.208000	 65.0249
7.292000	 64.963
7.376000	 64.9827
7.460000	 65.1093
7.544000	 65.1317
7.628000	 65.1098
7.712000	 65.0753
7.796000	 65.0836
7.880000	 65.0238
7.964000	 65.0205
8.048000	 64.8963
8.132000	 65.0833
8.216000	 65.0468
8.300000	 65.1247
8.384000	 64.9731
8.468000	 65.045
8.552000	 64.7669
8.635999	 64.9783
8.719999	 64.7768
8.804000	 64.963
8.888000	 64.9969
8.972000	 64.8141
9.056000	 65.058
9.140000	 64.8975
9.224000	 64.8187
9.308000	 64.9893
9.391999	 64.7469
9.475999	 64.9697
9.560000	 64.7087
9.644000	 64.8904
9.728000	 64.6694
9.812000	 64.5686
9.896000	 65.0687
9.980000	 65.0289
10.064	65.188
10.148	64.7341
10.232	65.0622
10.316	65.8187
10.4	64.8245
10.484	65.0042
10.568	64.8049
10.652	64.9477
10.736	65.0747
10.82	65.0885
10.904	64.504
10.988	64.5415
11.072	64.6746
11.156	64.6018
11.24	64.5403
11.324	64.6126
11.408	64.5941
11.492	64.7141
11.576	64.731
11.66	64.437
11.744	64.4364
11.828	64.7124
11.912	64.6016
11.996	64.5791
12.08	64.6301
12.164	64.2611
12.248	64.2721
12.332	64.433
12.416	64.2164
12.5	64.297
12.584	64.2946
12.668	64.1206
12.752	64.2322
12.836	64.3689
12.92	64.3776
13.004	64.3922
13.088	64.6654
13.172	64.625
13.256	64.4548
13.34	64.4167
13.424	64.0593
13.508	63.7315
13.592	63.5619
13.676	63.6723
13.76	63.978
13.844	64.3237
13.928	64.3784
14.012	64.1738
14.096	64.0002
14.18	63.7276
14.264	63.5907
14.348	63.6839
14.432	63.7359
14.516	63.7248
14.6	63.6126
14.684	63.5171
14.768	63.5018
14.852	63.4199
14.936	63.2453
15.02	62.9482
15.104	62.7315
15.188	62.8185
15.272	62.9666
15.356	63.0726
15.44	63.2376
15.524	63.3068
15.608	63.2325
15.692	63.1458
15.776	63.0809
15.86	63.0498
15.944	63.0197
16.028	62.958
16.112	62.8894
16.196	62.7868
16.28	62.6424
16.364	62.5248
16.448	62.5006
16.532	62.6093
16.616	62.8011
16.7	62.8996
16.784	62.8059
16.868	62.6494
16.952	62.6484
17.036	62.8544
17.12	63.1077
17.204	63.2291
17.288	63.1561
17.372	62.9541
17.456	62.7669
17.54	62.7065
17.624	62.7388
17.708	62.7071
17.792	62.5096
17.876	62.2424
17.96	62.1432
18.044	62.376
18.128	62.8633
18.212	63.3438
18.296	63.5804
18.38	63.5123
18.464	63.2125
18.548	62.7801
18.632	62.2903
18.716	61.831
18.8	61.5128
18.884	61.4136
18.968	61.5086
19.052	61.6808
19.136	61.8018
19.22	61.823
19.304	61.8057
19.388	61.8503
19.472	61.992
19.556	62.1403
19.64	62.1437
19.724	61.9168
19.808	61.5075
19.892	61.0325
19.976	60.6104
20.06	60.3398
20.144	60.2815
20.228	60.4161
20.312	60.6311
20.396	60.7871
20.48	60.8213
20.564	60.7833
20.648	60.7634
20.732	60.8106
20.816	60.9139
20.9	61.0263
20.984	61.0807
21.068	61.0035
21.152	60.7514
21.236	60.3665
21.32	59.9731
21.404	59.718
21.488	59.668
21.572	59.7761
21.656	59.9609
21.74	60.1688
21.824	60.3908
21.908	60.6119
21.992	60.7654
22.076	60.7733
22.16	60.6087
22.244	60.3369
22.328	60.0936
22.412	60.0072
22.496	60.1393
22.58	60.4802
22.664	60.9608
22.748	61.4422
22.832	61.7366
22.916	61.6254
23	60.9428
23.084	59.6774
23.168	58.0247
23.252	56.3127
23.336	54.9132
23.42	54.1223
23.504	54.0656
23.588	54.6999
23.672	55.8759
23.756	57.3442
23.84	58.7777
23.924	59.801
24.008	60.0778
24.092	59.4258
24.176	57.954
24.26	55.97
24.344	53.9615
24.428	52.4313
24.512	51.7757
24.596	52.1217
24.68	53.2133
24.764	54.4254
24.848	55.0508
24.932	54.4467
25.016	52.359
25.1	49.0807
25.184	45.3672
25.268	42.1374
25.352	40.1559
25.436	39.8087
25.52	41.0114
25.604	43.4288
25.688	46.8422
25.772	51.2584
25.856	56.7849
25.94	63.4594
26.024	70.9928
26.108	78.655
26.192	85.4041
26.276	90.2714
26.36	92.7034
26.444	92.9632
26.528	92.0733
26.612	91.6173
26.696	92.9617
26.78	96.631
26.864	102.162
26.948	108.489
27.028	114.414

File: C-4040-8_t73_cm-1.asc
PE IR       SPECTRUM    SPECTRUM    ASCII       PEDS        1.60
  -1
C-1DE1~1.ASC
17/03/27
20:30:29.00
17/03/27
20:30:29.00
tln
$C-4040-8_t0073$<tbV0>[-2.6,2.6,8.0,0.0,27,1,0]
370
64

2002,4.07
MIRTGS : RIGHTBACK : INTERNAL 2
MIR : ON : INTERNAL 2
OPTKBR

0.200000
8
8.000000
FILLER
RATIO
SPECTRUM
UNLOCKED 256

DOUBLE
64
COMBINED
1
0
0

1.000000
RATIO

1
0
TRUE
51149
0
LEFT NOT FITTED RIGHT NOT FITTED 0
NONE
NONE
15600
12
4.427000
51148
TRUE
1 0 8 72 0 0 0 0

15798

#HDR
-1
-1
#GR
CM-1
%T
2.38419e-05
0.0
5000
-1.000000
4631
8
114.414
39.8467
#DATA
5000	64.7812
4984	65.359
4968	64.6834
4952	65.3261
4936	64.7328
4920	65.2961
4904	65.2799
4888	64.8067
4872	65.1002
4856	64.9036
4840	65.0939
4824	64.7324
4808	65.104
4792	65.2679
4776	64.8215
4760	65.0495
4744	64.9704
4728	64.6701
4712	65.3287
4696	64.6945
4680	65.0223
4664	65.2699
4648	64.8801
4632	65.3136
4616	64.7924
4600	64.853
4584	65.2038
4568	65.0258
4552	65.1372
4536	64.6426
4520	65.0817
4504	65.0649
4488	64.8243
4472	64.6779
4456	64.4647
4440	65.2065
4424	64.7842
4408	64.1158
4392	63.0742
4376	67.589
4360	65.4066
4344	65.6016
4328	65.4639
4312	65.0847
4296	65.158
4280	64.8443
4264	64.8113
4248	65.3444
4232	64.8755
4216	64.8174
4200	65.5827
4184	66.2486
4168	65.3234
4152	65.1837
4136	65.0435
4120	65.1042
4104	65.0814
4088	64.812
4072	64.7758
4056	65.0639
4040	65.3711
4024	65.3827
4008	65.0177
3992	65.0941
3976	65.3454
3960	65.3596
3944	65.1206
3928	65.0356
3912	65.1731
3896	65.1163
3880	64.9246
3864	65.3215
3848	64.8714
3832	65.2938
3816	65.0519
3800	65.3092
3784	65.3993
3768	65.1726
3752	65.0288
3736	65.1099
3720	65.3213
3704	65.0273
3688	65.2197
3672	65.2135
3656	65.2292
3640	65.2746
3624	65.3135
3608	65.2783
3592	65.3928
3576	65.3494
3560	65.1239
3544	65.1589
3528	65.4621
3512	65.3179
3496	65.1664
3480	65.1711
3464	65.0957
3448	65.3552
3432	65.0419
3416	65.5685
3400	64.88
3384	65.1671
3368	65.0724
3352	65.1945
3336	65.1531
3320	65.2494
3304	65.1735
3288	65.1493
3272	65.3298
3256	65.3608
3240	65.1005
3224	65.1093
3208	65.1749
3192	65.1659
3176	65.0541
3160	65.2158
3144	65.2177
3128	65.3698
3112	65.039
3096	65.3084
3080	65.1744
3064	65.2497
3048	65.2312
3032	65.395
3016	65.3088
3000	65.2116
2984	65.1068
2968	64.9039
2952	65.0543
2936	65.1231
2920	65.0046
2904	65.1633
2888	65.179
2872	65.2405
2856	64.9237
2840	65.0943
2824	65.2853
2808	65.1756
2792	65.209
2776	65.2172
2760	65.326
2744	65.3903
2728	65.3459
2712	65.3336
2696	65.4319
2680	65.2275
2664	65.3091
2648	65.3842
2632	65.4052
2616	65.3015
2600	65.2647
2584	65.24
2568	65.1779
2552	65.3434
2536	65.2008
2520	65.2556
2504	65.1572
2488	65.1567
2472	65.419
2456	65.3738
2440	65.4025
2424	65.0774
2408	65.4486
2392	65.3468
2376	65.1973
2360	65.3297
2344	65.3021
2328	65.3774
2312	65.4123
2296	65.267
2280	65.3465
2264	65.3311
2248	65.3265
2232	65.3795
2216	65.2858
2200	65.4233
2184	65.3598
2168	65.4225
2152	65.0228
2136	65.4558
2120	65.3159
2104	65.3662
2088	65.676
2072	65.5106
2056	65.3256
2040	65.3073
2024	65.2432
2008	65.3148
1992	65.2083
1976	65.2951
1960	65.454
1944	65.2607
1928	65.3969
1912	65.3684
1896	65.4447
1880	65.3825
1864	65.3306
1848	65.3096
1832	65.3516
1816	65.4562
1800	65.3481
1784	65.4431
1768	65.3545
1752	65.2439
1736	65.1574
1720	65.1358
1704	65.1877
1688	65.3066
1672	65.3002
1656	65.3137
1640	65.3215
1624	65.1656
1608	65.0849
1592	65.0448
1576	65.1848
1560	64.9482
1544	65.0033
1528	65.1717
1512	65.1833
1496	65.1968
1480	65.1929
1464	65.1512
1448	65.0284
1432	65.1232
1416	65.2781
1400	64.9823
1384	65.0308
1368	65.0038
1352	64.9551
1336	65.222
1320	65.0693
1304	65.1092
1288	65.117
1272	65.0541
1256	65.0194
1240	64.9425
1224	65.0527
1208	65.1271
1192	64.9924
1176	64.9081
1160	64.9913
1144	64.8403
1128	64.9547
1112	64.826
1096	64.9394
1080	64.9329
1064	64.7691
1048	64.654
1032	64.7372
1016	64.8555
1000	65.033
984	 64.6713
968	 65.7499
952	 64.9731
936	 64.9511
920	 64.7364
904	 64.6819
888	 64.5286
872	 64.6565
856	 64.3906
840	 64.6232
824	 64.3787
808	 64.3315
792	 64.1808
776	 64.3884
760	 64.6672
744	 63.9816
728	 63.8799
712	 64.1062
696	 63.7043
680	 63.5115
664	 62.8107
648	 63.2229
632	 63.0596
616	 62.7239
600	 62.8829
584	 63.1158
568	 62.7313
552	 62.7871
536	 62.147
520	 61.8209
504	 61.3201
488	 60.8184
472	 60.6037
456	 60.6617
440	 61.3328
424	 54.6661
408	 51.7799
392	 40.8043
376	 91.5818
370	 114.414