Folder: Masteroppgave/Bakgrunnsmateriale/MATLAB/FTIR/ftir_data/subBb/Mapping_121 (part 40)

File: C-4040-8_t91_cm-1.asc
PE IR       SPECTRUM    SPECTRUM    ASCII       PEDS        1.60
  -1
C-1EE4~1.ASC
17/03/27
22:00:38.00
17/03/27
22:00:38.00
tln
$C-4040-8_t0091$<tbV0>[7.8,7.8,8.0,0.0,27,1,0]
370
64

2002,4.07
MIRTGS : RIGHTBACK : INTERNAL 2
MIR : ON : INTERNAL 2
OPTKBR

0.200000
8
8.000000
FILLER
RATIO
SPECTRUM
UNLOCKED 256

DOUBLE
64
COMBINED
1
0
0

1.000000
RATIO

1
0
TRUE
51149
0
LEFT NOT FITTED RIGHT NOT FITTED 0
NONE
NONE
15600
12
4.427000
51148
TRUE
1 0 8 72 0 0 0 0

15798

#HDR
-1
-1
#GR
CM-1
%T
2.38419e-05
0.0
5000
-1.000000
4631
8
123.647
45.4567
#DATA
5000	65.3317
4984	64.9285
4968	64.8705
4952	64.873
4936	65.0259
4920	64.7332
4904	64.9195
4888	65.3121
4872	65.4819
4856	65.3906
4840	64.9928
4824	64.8198
4808	65.4565
4792	65.3066
4776	64.7625
4760	65.0507
4744	64.6438
4728	65.0474
4712	64.7941
4696	65.1267
4680	65.2183
4664	65.0357
4648	65.2849
4632	65.4737
4616	65.4356
4600	65.0343
4584	65.3997
4568	65.0239
4552	65.3033
4536	64.7909
4520	65.5854
4504	64.8583
4488	65.0594
4472	64.8603
4456	64.7886
4440	64.7427
4424	64.5193
4408	65.4384
4392	62.5037
4376	66.3022
4360	64.802
4344	65.3583
4328	64.9765
4312	65.2181
4296	64.8404
4280	65.042
4264	65.4319
4248	65.0547
4232	65.5338
4216	64.8903
4200	64.7221
4184	65.359
4168	64.5211
4152	65.2881
4136	65.235
4120	65.3343
4104	65.0342
4088	65.0645
4072	64.8874
4056	65.224
4040	65.0031
4024	65.5153
4008	65.0405
3992	65.1995
3976	65.2172
3960	65.122
3944	65.0374
3928	64.9496
3912	65.407
3896	65.1479
3880	65.1838
3864	65.1952
3848	65.073
3832	64.9496
3816	65.3625
3800	65.0327
3784	65.2846
3768	65.4035
3752	65.2582
3736	65.2811
3720	65.2442
3704	65.1364
3688	65.2428
3672	65.1334
3656	65.2095
3640	65.3593
3624	65.1799
3608	65.2387
3592	65.2327
3576	65.363
3560	65.3797
3544	65.0468
3528	65.3146
3512	65.2167
3496	65.0953
3480	65.0302
3464	65.3258
3448	65.0889
3432	65.2565
3416	65.3446
3400	65.1278
3384	65.145
3368	65.1074
3352	65.3465
3336	65.1819
3320	65.0778
3304	65.119
3288	65.2293
3272	65.1229
3256	65.4022
3240	65.3181
3224	65.2991
3208	65.2972
3192	64.9903
3176	65.341
3160	65.4187
3144	65.3632
3128	65.4151
3112	65.293
3096	65.3832
3080	65.1182
3064	65.2003
3048	65.2906
3032	65.4426
3016	65.4323
3000	65.3108
2984	65.1737
2968	65.2358
2952	65.1593
2936	65.1664
2920	64.8422
2904	65.1453
2888	65.0906
2872	65.1633
2856	65.2211
2840	65.2287
2824	65.1594
2808	65.242
2792	65.5061
2776	65.3414
2760	65.2516
2744	65.2993
2728	65.3255
2712	65.2789
2696	65.4181
2680	65.2604
2664	65.5231
2648	65.2517
2632	65.2709
2616	65.3878
2600	65.1361
2584	65.3844
2568	65.2995
2552	65.2652
2536	65.3317
2520	65.3572
2504	65.1673
2488	65.5734
2472	65.5173
2456	65.3375
2440	65.1699
2424	65.3532
2408	65.4932
2392	65.295
2376	65.3955
2360	65.3929
2344	65.2658
2328	65.3629
2312	65.3426
2296	65.2126
2280	65.3687
2264	65.3921
2248	65.3047
2232	65.2919
2216	65.3473
2200	65.3969
2184	65.4056
2168	65.3644
2152	65.5585
2136	65.3215
2120	65.1783
2104	65.4958
2088	65.3355
2072	65.7777
2056	65.2575
2040	65.4316
2024	65.2654
2008	65.3496
1992	65.3843
1976	65.4827
1960	65.4162
1944	65.4131
1928	65.4037
1912	65.3068
1896	65.3268
1880	65.4407
1864	65.3712
1848	65.3012
1832	65.4966
1816	65.3493
1800	65.2629
1784	65.2361
1768	65.4433
1752	65.3912
1736	65.1778
1720	65.2754
1704	65.2989
1688	65.2683
1672	65.361
1656	65.2139
1640	65.356
1624	65.1754
1608	65.181
1592	65.2615
1576	65.1352
1560	65.0033
1544	65.2835
1528	65.1912
1512	65.1227
1496	65.3364
1480	65.101
1464	65.1706
1448	65.1159
1432	65.182
1416	65.1359
1400	65.2744
1384	65.3005
1368	65.2094
1352	65.2627
1336	64.9467
1320	65.2184
1304	65.1272
1288	65.1365
1272	64.9823
1256	65.0713
1240	65.0351
1224	65.1157
1208	65.1282
1192	65.0299
1176	64.9165
1160	65.0066
1144	64.8174
1128	64.8165
1112	64.9025
1096	64.5493
1080	64.5557
1064	64.8728
1048	65.3442
1032	64.57
1016	64.5196
1000	64.6912
984	 64.6513
968	 65.0723
952	 64.5598
936	 64.4211
920	 65.3431
904	 65.1289
888	 64.1744
872	 64.5386
856	 64.4883
840	 64.6269
824	 64.2152
808	 64.0518
792	 64.1718
776	 63.8885
760	 64.0765
744	 63.5218
728	 63.4416
712	 63.2566
696	 63.2743
680	 63.3614
664	 62.933
648	 63.2874
632	 62.5575
616	 62.7618
600	 62.1893
584	 62.3569
568	 62.2531
552	 62.6861
536	 61.9082
520	 60.7686
504	 61.0672
488	 61.4056
472	 60.6952
456	 59.3892
440	 58.8626
424	 59.363
408	 57.1585
392	 45.4567
376	 91.1644
370	 122.695

File: C-4040-8_t92.asc
PE IR       SPECTRUM    SPECTRUM    ASCII       PEDS        1.60
  -1
C-A942~1.ASC
17/03/27
22:05:15.00
17/03/27
22:05:41.00
tln
$C-4040-8_t0092$<tbV0>[5.2,7.8,8.0,0.0,27,1,0]
27.028
64

2002,4.07
MIRTGS : RIGHTBACK : INTERNAL 2
MIR : ON : INTERNAL 2
OPTKBR

0.200000
8
8.000000
FILLER
RATIO
SPECTRUM
UNLOCKED 256

DOUBLE
64
COMBINED
1
0
0

0.002000
RATIO

1
0
TRUE
51149
0
LEFT NOT FITTED RIGHT NOT FITTED 0
NONE
NONE
15600
12
4.427000
51148
TRUE
1 0 8 72 0 0 0 0

15798

#HDR
-1
-1
#GR
µM
%T
2.38419e-05
0.0
2.000000
0.002000
12515
8
82.3207
10.7249
#DATA
2.000000	 65.2253
2.084000	 65.4546
2.168000	 65.2119
2.252000	 64.2449
2.336000	 64.4212
2.420000	 65.1263
2.504000	 65.0909
2.588000	 64.9735
2.672000	 65.4698
2.756000	 65.2365
2.840000	 65.2025
2.924000	 65.07
3.008000	 65.2559
3.092000	 65.1243
3.176000	 65.2093
3.260000	 65.3536
3.344000	 65.3055
3.428000	 64.8949
3.512000	 64.8603
3.596000	 65.3665
3.680000	 65.4376
3.764000	 65.2974
3.848000	 65.1463
3.932000	 65.3935
4.016000	 65.564
4.100000	 65.1725
4.184000	 65.3639
4.268000	 65.3662
4.352000	 65.277
4.436000	 65.4746
4.520000	 65.2228
4.604000	 65.2478
4.688000	 65.2726
4.772000	 65.318
4.856000	 65.3068
4.940000	 65.3214
5.024000	 65.3228
5.108000	 65.4155
5.192000	 65.3314
5.276000	 65.3458
5.359999	 65.3001
5.444000	 65.4506
5.528000	 65.2965
5.612000	 65.2904
5.696000	 65.2584
5.780000	 65.1929
5.864000	 65.2334
5.948000	 65.1895
6.032000	 65.1901
6.116000	 65.2555
6.200000	 65.2696
6.284000	 65.0947
6.368000	 65.0342
6.452000	 65.218
6.536000	 65.0676
6.620000	 65.0664
6.704000	 65.1449
6.788000	 65.1109
6.872000	 65.1743
6.956000	 65.169
7.040000	 65.2253
7.124000	 65.0884
7.208000	 65.0615
7.292000	 65.0707
7.376000	 65.0838
7.460000	 65.0633
7.544000	 65.0782
7.628000	 64.8279
7.712000	 65.1374
7.796000	 64.9259
7.880000	 64.9629
7.964000	 65.0614
8.048000	 65.1696
8.132000	 65.0023
8.216000	 65.1371
8.300000	 65.0005
8.384000	 65.0755
8.468000	 64.9767
8.552000	 65.032
8.635999	 65.0242
8.719999	 64.7699
8.804000	 64.9703
8.888000	 65.0025
8.972000	 65.0787
9.056000	 64.5295
9.140000	 64.3764
9.224000	 64.8809
9.308000	 64.7537
9.391999	 64.7944
9.475999	 64.7819
9.560000	 65.068
9.644000	 64.8126
9.728000	 64.9878
9.812000	 64.8647
9.896000	 64.3317
9.980000	 64.5507
10.064	64.7161
10.148	64.7957
10.232	64.4185
10.316	64.5329
10.4	64.7828
10.484	64.675
10.568	64.6971
10.652	64.508
10.736	64.3945
10.82	64.8393
10.904	65.4518
10.988	64.8395
11.072	64.1818
11.156	64.2885
11.24	64.4194
11.324	64.4004
11.408	64.2445
11.492	64.2047
11.576	64.2887
11.66	64.3068
11.744	64.4813
11.828	64.4217
11.912	64.4342
11.996	64.3775
12.08	64.5187
12.164	64.3105
12.248	64.4751
12.332	64.577
12.416	64.1623
12.5	63.9544
12.584	63.9954
12.668	63.9526
12.752	63.9067
12.836	64.0147
12.92	63.9639
13.004	64.0465
13.088	64.1665
13.172	63.8982
13.256	63.8663
13.34	64.0596
13.424	63.8225
13.508	63.6633
13.592	63.8532
13.676	63.9454
13.76	63.8635
13.844	63.8056
13.928	63.7645
14.012	63.6306
14.096	63.6074
14.18	63.6829
14.264	63.7139
14.348	63.6977
14.432	63.5944
14.516	63.3855
14.6	63.244
14.684	63.3021
14.768	63.3955
14.852	63.4069
14.936	63.479
15.02	63.5516
15.104	63.3494
15.188	63.0542
15.272	62.9805
15.356	63.0738
15.44	63.1269
15.524	63.0636
15.608	63.0038
15.692	62.9641
15.776	62.9095
15.86	62.96
15.944	63.1088
16.028	63.1548
16.112	62.9864
16.196	62.6924
16.28	62.5291
16.364	62.6165
16.448	62.6865
16.532	62.536
16.616	62.3909
16.7	62.4588
16.784	62.6111
16.868	62.6769
16.952	62.5886
17.036	62.3638
17.12	62.1375
17.204	62.0079
17.288	61.974
17.372	62.0885
17.456	62.3944
17.54	62.7083
17.624	62.7718
17.708	62.5546
17.792	62.2223
17.876	61.9696
17.96	61.8801
18.044	61.8894
18.128	61.8827
18.212	61.8454
18.296	61.838
18.38	61.8453
18.464	61.7816
18.548	61.6148
18.632	61.3813
18.716	61.1615
18.8	61.0759
18.884	61.1819
18.968	61.3642
19.052	61.4093
19.136	61.2539
19.22	61.0572
19.304	60.9846
19.388	61.0265
19.472	61.0893
19.556	61.1618
19.64	61.3054
19.724	61.5254
19.808	61.7299
19.892	61.8101
19.976	61.7193
20.06	61.4706
20.144	61.1319
20.228	60.8321
20.312	60.7153
20.396	60.8217
20.48	61.0248
20.564	61.1207
20.648	60.9989
20.732	60.7318
20.816	60.4981
20.9	60.4157
20.984	60.4509
21.068	60.4787
21.152	60.4086
21.236	60.2429
21.32	60.0205
21.404	59.7431
21.488	59.3906
21.572	58.9852
21.656	58.6164
21.74	58.3935
21.824	58.371
21.908	58.5064
21.992	58.6886
22.076	58.807
22.16	58.8161
22.244	58.753
22.328	58.7155
22.412	58.7865
22.496	58.9728
22.58	59.1896
22.664	59.295
22.748	59.1614
22.832	58.7665
22.916	58.2001
23	57.636
23.084	57.2493
23.168	57.1345
23.252	57.2685
23.336	57.576
23.42	58.0353
23.504	58.6464
23.588	59.4462
23.672	60.4587
23.756	61.5933
23.84	62.6237
23.924	63.2524
24.008	63.2637
24.092	62.6178
24.176	61.4377
24.26	59.9078
24.344	58.2408
24.428	56.6901
24.512	55.6497
24.596	55.6151
24.68	56.8569
24.764	59.0742
24.848	61.3507
24.932	62.4124
25.016	61.2498
25.1	57.4757
25.184	51.6813
25.268	45.3587
25.352	40.3704
25.436	38.1021
25.52	38.718
25.604	41.2458
25.688	44.2677
25.772	46.6704
25.856	48.0749
25.94	48.3063
26.024	47.2951
26.108	45.026
26.192	42.6226
26.276	41.9617
26.36	45.4417
26.444	53.4401
26.528	63.6498
26.612	71.1216
26.696	71.0558
26.78	61.2196
26.864	43.8388
26.948	24.6506
27.028	10.7249

File: C-4040-8_t92_cm-1.asc
PE IR       SPECTRUM    SPECTRUM    ASCII       PEDS        1.60
  -1
C-1E64~1.ASC
17/03/27
22:05:15.00
17/03/27
22:05:15.00
tln
$C-4040-8_t0092$<tbV0>[5.2,7.8,8.0,0.0,27,1,0]
370
64

2002,4.07
MIRTGS : RIGHTBACK : INTERNAL 2
MIR : ON : INTERNAL 2
OPTKBR

0.200000
8
8.000000
FILLER
RATIO
SPECTRUM
UNLOCKED 256

DOUBLE
64
COMBINED
1
0
0

1.000000
RATIO

1
0
TRUE
51149
0
LEFT NOT FITTED RIGHT NOT FITTED 0
NONE
NONE
15600
12
4.427000
51148
TRUE
1 0 8 72 0 0 0 0

15798

#HDR
-1
-1
#GR
CM-1
%T
2.38419e-05
0.0
5000
-1.000000
4631
8
84.2395
10.7249
#DATA
5000	65.2253
4984	65.4788
4968	64.2209
4952	64.9192
4936	64.6485
4920	64.8346
4904	64.6175
4888	64.9584
4872	65.2208
4856	64.8487
4840	65.0599
4824	65.0954
4808	65.5187
4792	65.0864
4776	64.9968
4760	65.2668
4744	65.0258
4728	65.5219
4712	65.5133
4696	65.2935
4680	65.1862
4664	65.2503
4648	65.5423
4632	65.1085
4616	65.6242
4600	65.0422
4584	65.4442
4568	65.3812
4552	65.4755
4536	63.7313
4520	65.6553
4504	64.4906
4488	64.5778
4472	64.563
4456	63.9092
4440	64.2474
4424	64.392
4408	66.5873
4392	66.6442
4376	65.6558
4360	64.0566
4344	65.0152
4328	64.838
4312	64.7137
4296	64.3022
4280	64.4675
4264	64.9713
4248	64.3231
4232	64.422
4216	64.8911
4200	64.5818
4184	63.9056
4168	64.4957
4152	65.0383
4136	65.1386
4120	65.293
4104	65.1329
4088	65.0632
4072	65.0707
4056	65.1309
4040	65.1762
4024	65.766
4008	65.411
3992	65.1804
3976	65.0713
3960	65.0848
3944	65.2606
3928	65.321
3912	65.3174
3896	65.0649
3880	65.0715
3864	64.9729
3848	65.0343
3832	65.0079
3816	64.9816
3800	65.1593
3784	65.2005
3768	65.4151
3752	65.4412
3736	65.2289
3720	65.2657
3704	65.2107
3688	65.2242
3672	65.3914
3656	65.288
3640	65.4686
3624	65.2562
3608	65.2195
3592	65.3844
3576	65.4111
3560	65.5249
3544	65.1605
3528	65.3166
3512	65.154
3496	65.1679
3480	65.0573
3464	65.484
3448	65.0028
3432	65.1018
3416	65.1243
3400	65.1277
3384	65.1311
3368	65.0811
3352	65.206
3336	65.2747
3320	65.0593
3304	65.103
3288	64.9694
3272	65.2283
3256	65.258
3240	65.2875
3224	65.2359
3208	65.1217
3192	65.0318
3176	65.1665
3160	65.3378
3144	65.3042
3128	65.683
3112	65.309
3096	65.3018
3080	65.2093
3064	65.2483
3048	65.3853
3032	65.3355
3016	65.2333
3000	65.168
2984	65.265
2968	65.1261
2952	65.3057
2936	65.2005
2920	64.8354
2904	65.1981
2888	65.1019
2872	65.3297
2856	65.1206
2840	65.169
2824	65.1991
2808	65.2867
2792	65.3862
2776	65.3162
2760	65.2438
2744	65.2552
2728	65.3811
2712	65.3419
2696	65.2881
2680	65.3214
2664	65.5117
2648	65.2247
2632	65.2475
2616	65.3455
2600	65.14
2584	65.2429
2568	65.2571
2552	65.3205
2536	65.267
2520	65.2423
2504	65.3667
2488	65.4848
2472	65.4413
2456	65.2763
2440	65.1675
2424	64.9545
2408	65.1451
2392	65.3566
2376	65.29
2360	65.3529
2344	65.3707
2328	65.3704
2312	65.3451
2296	65.2737
2280	65.4405
2264	65.3901
2248	65.5631
2232	65.3457
2216	65.2399
2200	65.1552
2184	65.3294
2168	65.3422
2152	65.5683
2136	65.2329
2120	65.3657
2104	65.2947
2088	65.2647
2072	65.803
2056	65.0568
2040	65.4672
2024	65.3178
2008	65.3781
1992	65.3057
1976	65.3713
1960	65.408
1944	65.3752
1928	65.3376
1912	65.2386
1896	65.34
1880	65.2941
1864	65.3162
1848	65.4156
1832	65.4299
1816	65.3816
1800	65.3365
1784	65.2972
1768	65.444
1752	65.1986
1736	65.1647
1720	65.2309
1704	65.1976
1688	65.1461
1672	65.1819
1656	65.1988
1640	65.2698
1624	65.1213
1608	65.1618
1592	65.0918
1576	65.1499
1560	64.9874
1544	65.2236
1528	65.0928
1512	65.0722
1496	65.1422
1480	65.1746
1464	65.1512
1448	65.4114
1432	65.0179
1416	65.2452
1400	65.0565
1384	65.0793
1368	65.0989
1352	65.1517
1336	64.9993
1320	65.11
1304	64.9482
1288	64.8813
1272	65.065
1256	65.0548
1240	65.1115
1224	64.9807
1208	65.0674
1192	65.0673
1176	64.9842
1160	64.9998
1144	64.8715
1128	64.9545
1112	65.0588
1096	64.3971
1080	64.9801
1064	64.7769
1048	65.0751
1032	64.7952
1016	64.5949
1000	64.5481
984	 64.7015
968	 64.5962
952	 64.709
936	 64.4526
920	 65.2376
904	 64.2139
888	 64.4364
872	 64.2011
856	 64.3568
840	 64.4433
824	 64.3923
808	 64.353
792	 64.0062
776	 63.9967
760	 63.9505
744	 63.7582
728	 63.8922
712	 63.5986
696	 63.6835
680	 63.3322
664	 63.4916
648	 63.1277
632	 62.918
616	 62.5869
600	 62.4095
584	 62.1304
568	 62.7852
552	 61.8867
536	 61.3102
520	 61.0393
504	 61.7808
488	 61.0488
472	 60.3498
456	 58.5545
440	 59.2199
424	 59.4129
408	 55.6652
392	 38.5299
376	 70.1908
370	 10.7249

File: C-4040-8_t93.asc
PE IR       SPECTRUM    SPECTRUM    ASCII       PEDS        1.60
  -1
C-A946~1.ASC
17/03/27
22:09:52.00
17/03/27
22:10:18.00
tln
$C-4040-8_t0093$<tbV0>[2.6,7.8,8.0,0.0,27,1,0]
27.028
64

2002,4.07
MIRTGS : RIGHTBACK : INTERNAL 2
MIR : ON : INTERNAL 2
OPTKBR

0.200000
8
8.000000
FILLER
RATIO
SPECTRUM
UNLOCKED 256

DOUBLE
64
COMBINED
1
0
0

0.002000
RATIO

1
0
TRUE
51149
0
LEFT NOT FITTED RIGHT NOT FITTED 0
NONE
NONE
15600
12
4.427000
51148
TRUE
1 0 8 72 0 0 0 0

15798

#HDR
-1
-1
#GR
µM
%T
2.38419e-05
0.0
2.000000
0.002000
12515
8
143.164
45.3142
#DATA
2.000000	 65.4424
2.084000	 65.1778
2.168000	 65.4123
2.252000	 63.8352
2.336000	 64.9796
2.420000	 65.3446
2.504000	 65.339
2.588000	 65.0702
2.672000	 65.3926
2.756000	 65.1826
2.840000	 65.2717
2.924000	 65.0268
3.008000	 65.1511
3.092000	 65.1486
3.176000	 65.2178
3.260000	 65.2422
3.344000	 65.3116
3.428000	 64.8708
3.512000	 64.941
3.596000	 65.375
3.680000	 65.3967
3.764000	 65.5026
3.848000	 65.2341
3.932000	 65.4357
4.016000	 65.5221
4.100000	 65.1368
4.184000	 65.262
4.268000	 65.3586
4.352000	 65.3812
4.436000	 65.368
4.520000	 65.3083
4.604000	 65.2739
4.688000	 65.4194
4.772000	 65.369
4.856000	 65.5246
4.940000	 65.4264
5.024000	 65.5457
5.108000	 65.3958
5.192000	 65.3021
5.276000	 65.1963
5.359999	 65.319
5.444000	 65.4627
5.528000	 65.4479
5.612000	 65.3086
5.696000	 65.1674
5.780000	 65.1406
5.864000	 65.3529
5.948000	 65.2601
6.032000	 65.1671
6.116000	 65.2995
6.200000	 65.1338
6.284000	 65.2172
6.368000	 65.0017
6.452000	 65.1089
6.536000	 65.2159
6.620000	 65.1777
6.704000	 65.2691
6.788000	 65.0945
6.872000	 65.3023
6.956000	 65.1361
7.040000	 65.1079
7.124000	 65.0894
7.208000	 65.2065
7.292000	 65.0963
7.376000	 65.2521
7.460000	 65.18
7.544000	 65.061
7.628000	 64.9668
7.712000	 65.1729
7.796000	 65.1054
7.880000	 64.9144
7.964000	 65.0609
8.048000	 65.0254
8.132000	 65.1044
8.216000	 65.0779
8.300000	 65.0927
8.384000	 65.0855
8.468000	 64.9218
8.552000	 65.0147
8.635999	 64.9145
8.719999	 64.8447
8.804000	 64.7461
8.888000	 64.8955
8.972000	 64.9778
9.056000	 64.6901
9.140000	 64.6921
9.224000	 64.5969
9.308000	 64.7842
9.391999	 64.8178
9.475999	 64.5407
9.560000	 64.831
9.644000	 64.5987
9.728000	 64.8624
9.812000	 64.5824
9.896000	 64.7991
9.980000	 64.6074
10.064	64.6994
10.148	64.6356
10.232	64.6146
10.316	64.8659
10.4	64.8011
10.484	64.7969
10.568	64.4909
10.652	64.1975
10.736	64.4507
10.82	64.9477
10.904	64.7949
10.988	64.2178
11.072	64.599
11.156	64.5914
11.24	64.2777
11.324	64.1623
11.408	64.6009
11.492	64.8737
11.576	64.7942
11.66	64.8574
11.744	64.9134
11.828	64.7193
11.912	64.4947
11.996	64.2842
12.08	64.3909
12.164	64.4577
12.248	64.4724
12.332	64.4402
12.416	64.199
12.5	64.1629
12.584	64.251
12.668	64.1242
12.752	63.8488
12.836	63.8838
12.92	64.0734
13.004	64.2297
13.088	64.111
13.172	63.8398
13.256	63.8245
13.34	63.6976
13.424	63.6372
13.508	63.6653
13.592	63.7438
13.676	63.917
13.76	64.0721
13.844	63.8969
13.928	63.5533
14.012	63.5116
14.096	63.7232
14.18	63.8928
14.264	63.829
14.348	63.5452
14.432	63.3008
14.516	63.3583
14.6	63.6422
14.684	63.7521
14.768	63.5689
14.852	63.3022
14.936	63.1386
15.02	63.0705
15.104	63.0761
15.188	63.2015
15.272	63.2395
15.356	63.087
15.44	63.0066
15.524	63.1121
15.608	63.2101
15.692	63.1102
15.776	62.9684
15.86	63.0939
15.944	63.3631
16.028	63.4274
16.112	63.2665
16.196	63.0164
16.28	62.7859
16.364	62.7519
16.448	62.9132
16.532	62.9832
16.616	62.8565
16.7	62.749
16.784	62.7493
16.868	62.7361
16.952	62.7084
17.036	62.7958
17.12	62.9337
17.204	62.8644
17.288	62.5853
17.372	62.4087
17.456	62.4888
17.54	62.6325
17.624	62.6467
17.708	62.5725
17.792	62.5261
17.876	62.5606
17.96	62.6299
18.044	62.6046
18.128	62.3943
18.212	62.0855
18.296	61.8701
18.38	61.8238
18.464	61.8544
18.548	61.8405
18.632	61.723
18.716	61.5203
18.8	61.3072
18.884	61.1556
18.968	61.0911
19.052	61.1149
19.136	61.222
19.22	61.3884
19.304	61.5709
19.388	61.7489
19.472	61.9461
19.556	62.1748
19.64	62.3635
19.724	62.3764
19.808	62.1342
19.892	61.7053
19.976	61.2751
20.06	61.0143
20.144	60.971
20.228	61.0622
20.312	61.1569
20.396	61.1636
20.48	61.0745
20.564	60.9515
20.648	60.8706
20.732	60.8709
20.816	60.9242
20.9	60.9592
20.984	60.924
21.068	60.8179
21.152	60.6641
21.236	60.4673
21.32	60.1935
21.404	59.8128
21.488	59.3432
21.572	58.8775
21.656	58.5709
21.74	58.5727
21.824	58.9375
21.908	59.5654
21.992	60.2292
22.076	60.6777
22.16	60.7609
22.244	60.5123
22.328	60.1121
22.412	59.7852
22.496	59.6798
22.58	59.8224
22.664	60.1515
22.748	60.5461
22.832	60.8763
22.916	61.0368
23	60.9936
23.084	60.7949
23.168	60.5567
23.252	60.4016
23.336	60.4247
23.42	60.6654
23.504	61.0773
23.588	61.548
23.672	61.933
23.756	62.051
23.84	61.7211
23.924	60.8714
24.008	59.5946
24.092	58.1547
24.176	56.9466
24.26	56.2496
24.344	56.1409
24.428	56.4871
24.512	56.977
24.596	57.4299
24.68	57.7828
24.764	57.9774
24.848	57.9344
24.932	57.4937
25.016	56.4558
25.1	54.6497
25.184	52.0682
25.268	49.0814
25.352	46.5003
25.436	45.3234
25.52	46.1946
25.604	49.0903
25.688	53.745
25.772	59.725
25.856	66.5136
25.94	73.249
26.024	79.0232
26.108	83.2946
26.192	86.9067
26.276	91.6531
26.36	99.8179
26.444	111.878
26.528	125.891
26.612	137.629
26.696	143.049
26.78	140.389
26.864	131.806
26.948	122.385
27.028	117.792

File: C-4040-8_t93_cm-1.asc
PE IR       SPECTRUM    SPECTRUM    ASCII       PEDS        1.60
  -1
C-1EE1~1.ASC
17/03/27
22:09:52.00
17/03/27
22:09:52.00
tln
$C-4040-8_t0093$<tbV0>[2.6,7.8,8.0,0.0,27,1,0]
370
64

2002,4.07
MIRTGS : RIGHTBACK : INTERNAL 2
MIR : ON : INTERNAL 2
OPTKBR

0.200000
8
8.000000
FILLER
RATIO
SPECTRUM
UNLOCKED 256

DOUBLE
64
COMBINED
1
0
0

1.000000
RATIO

1
0
TRUE
51149
0
LEFT NOT FITTED RIGHT NOT FITTED 0
NONE
NONE
15600
12
4.427000
51148
TRUE
1 0 8 72 0 0 0 0

15798

#HDR
-1
-1
#GR
CM-1
%T
2.38419e-05
0.0
5000
-1.000000
4631
8
142.756
45.3149
#DATA
5000	65.4424
4984	64.8639
4968	64.5284
4952	65.1191
4936	64.9213
4920	65.2553
4904	64.9592
4888	65.523
4872	64.9848
4856	65.0692
4840	65.3492
4824	65.0541
4808	65.164
4792	65.4409
4776	65.1447
4760	65.0621
4744	65.5016
4728	65.3744
4712	65.4082
4696	65.4864
4680	65.1633
4664	65.1355
4648	65.7702
4632	65.4472
4616	65.417
4600	64.8988
4584	65.5833
4568	64.936
4552	65.1665
4536	64.4393
4520	64.8043
4504	64.7038
4488	65.0559
4472	64.7944
4456	64.5245
4440	63.8226
4424	64.4732
4408	64.2658
4392	65.4992
4376	66.5829
4360	65.6322
4344	64.5097
4328	64.8377
4312	64.9008
4296	64.6826
4280	64.9836
4264	65.1307
4248	64.2774
4232	64.9302
4216	64.7696
4200	64.8859
4184	64.1435
4168	64.4681
4152	64.9663
4136	65.5442
4120	64.9834
4104	65.1511
4088	64.9206
4072	65.0548
4056	65.1895
4040	65.172
4024	65.4824
4008	65.2932
3992	65.3324
3976	65.1307
3960	65.1104
3944	65.0332
3928	64.9763
3912	65.1523
3896	65.1057
3880	64.9108
3864	65.0697
3848	65.0007
3832	65.0582
3816	65.2105
3800	65.0459
3784	65.0657
3768	65.192
3752	65.2954
3736	65.2138
3720	65.156
3704	65.1768
3688	65.2758
3672	65.434
3656	65.1922
3640	65.4126
3624	65.336
3608	65.1286
3592	65.5792
3576	65.3027
3560	65.4883
3544	65.0696
3528	65.1711
3512	65.4245
3496	65.082
3480	64.9767
3464	65.5852
3448	65.0009
3432	65.2953
3416	65.0062
3400	65.1914
3384	65.2997
3368	65.114
3352	65.2418
3336	65.1987
3320	65.1752
3304	65.2348
3288	65.0609
3272	65.3127
3256	65.5128
3240	65.2998
3224	65.2391
3208	65.5334
3192	65.0959
3176	65.3568
3160	65.3
3144	65.2789
3128	65.362
3112	65.2464
3096	65.4042
3080	65.1589
3064	65.184
3048	65.3239
3032	65.3576
3016	65.2505
3000	65.238
2984	65.2535
2968	65.1293
2952	65.1801
2936	65.0762
2920	64.8479
2904	65.3363
2888	65.1318
2872	65.3313
2856	65.142
2840	65.1787
2824	65.2298
2808	65.3289
2792	65.4917
2776	65.3214
2760	65.3411
2744	65.2947
2728	65.3231
2712	65.4905
2696	65.3231
2680	65.3681
2664	65.4748
2648	65.4083
2632	65.4293
2616	65.3076
2600	65.2547
2584	65.3699
2568	65.35
2552	65.3753
2536	65.434
2520	65.4206
2504	65.3193
2488	65.5275
2472	65.5694
2456	65.4339
2440	65.1359
2424	65.2009
2408	65.2537
2392	65.2816
2376	65.3071
2360	65.3813
2344	65.3751
2328	65.2476
2312	65.3764
2296	65.3908
2280	65.4079
2264	65.4021
2248	65.2801
2232	65.2203
2216	65.4109
2200	65.2305
2184	65.3683
2168	65.2332
2152	65.537
2136	65.4988
2120	65.3919
2104	65.3292
2088	65.3235
2072	65.7703
2056	65.3066
2040	65.4029
2024	65.4223
2008	65.3745
1992	65.5386
1976	65.3772
1960	65.4473
1944	65.3925
1928	65.3135
1912	65.2999
1896	65.2007
1880	65.3141
1864	65.3157
1848	65.3543
1832	65.4851
1816	65.4253
1800	65.3192
1784	65.293
1768	65.3678
1752	65.1856
1736	65.1058
1720	65.0858
1704	65.2898
1688	65.2374
1672	65.2742
1656	65.1963
1640	65.3895
1624	65.1881
1608	65.1342
1592	65.2159
1576	65.0496
1560	64.9437
1544	65.0841
1528	65.203
1512	65.1789
1496	65.2255
1480	65.1558
1464	65.1245
1448	65.348
1432	65.1461
1416	65.0796
1400	65.119
1384	65.2369
1368	65.0952
1352	65.2687
1336	65.0857
1320	65.1467
1304	65.0475
1288	65.0907
1272	65.0137
1256	65.0621
1240	65.0735
1224	65.0638
1208	65.1399
1192	65.0705
1176	64.9663
1160	64.9
1144	64.8735
1128	64.8149
1112	64.9338
1096	64.6855
1080	64.6487
1064	64.812
1048	64.719
1032	64.6005
1016	64.5469
1000	64.5338
984	 64.5879
968	 64.8777
952	 64.7816
936	 64.1816
920	 64.9797
904	 64.554
888	 64.2166
872	 64.8564
856	 64.9015
840	 64.5208
824	 64.4452
808	 64.3114
792	 64.2336
776	 63.9983
760	 63.8653
744	 63.6418
728	 64.0491
712	 63.5818
696	 63.4722
680	 63.7265
664	 63.0584
648	 63.0052
632	 62.9999
616	 62.9009
600	 62.7764
584	 62.9362
568	 62.6556
552	 62.4346
536	 61.6695
520	 61.4117
504	 61.9774
488	 61.0575
472	 60.5899
456	 59.7453
440	 60.4498
424	 61.5315
408	 56.9645
392	 45.986
376	 135.791
370	 117.792