Folder: Masteroppgave/Bakgrunnsmateriale/MATLAB/FTIR/ftir_data/subBb/Mapping_121 (part 24)

File: C-4040-8_t51_cm-1.asc
PE IR       SPECTRUM    SPECTRUM    ASCII       PEDS        1.60
  -1
C-1CE4~1.ASC
17/03/27
18:41:36.00
17/03/27
18:41:36.00
tln
$C-4040-8_t0051$<tbV0>[-2.6,-2.6,8.0,0.0,27,1,0]
370
64

2002,4.07
MIRTGS : RIGHTBACK : INTERNAL 2
MIR : ON : INTERNAL 2
OPTKBR

0.200000
8
8.000000
FILLER
RATIO
SPECTRUM
UNLOCKED 256

DOUBLE
64
COMBINED
1
0
0

1.000000
RATIO

1
0
TRUE
51149
0
LEFT NOT FITTED RIGHT NOT FITTED 0
NONE
NONE
15600
12
4.427000
51148
TRUE
1 0 8 72 0 0 0 0

15798

#HDR
-1
-1
#GR
CM-1
%T
2.38419e-05
0.0
5000
-1.000000
4631
8
117.872
32.8821
#DATA
5000	64.7694
4984	64.9608
4968	64.9341
4952	64.9688
4936	65.1536
4920	64.7775
4904	64.9608
4888	64.9254
4872	64.723
4856	64.5606
4840	64.2353
4824	64.5295
4808	64.3853
4792	64.9248
4776	64.6588
4760	64.4454
4744	64.4382
4728	64.011
4712	64.4367
4696	64.3079
4680	64.7463
4664	64.1206
4648	64.6462
4632	64.273
4616	64.7391
4600	64.5161
4584	64.3587
4568	64.3057
4552	64.1809
4536	64.6627
4520	64.8923
4504	65.0521
4488	64.826
4472	65.2495
4456	65.3976
4440	65.1478
4424	65.76
4408	66.3762
4392	65.1103
4376	65.0391
4360	56.124
4344	46.5415
4328	67.0374
4312	65.7241
4296	65.5292
4280	66.0649
4264	65.5425
4248	65.1973
4232	65.1028
4216	65.0324
4200	64.7907
4184	64.7645
4168	64.822
4152	64.8965
4136	64.6165
4120	64.502
4104	64.0083
4088	64.284
4072	64.394
4056	64.3403
4040	64.3632
4024	64.0731
4008	64.2321
3992	64.4388
3976	64.361
3960	64.297
3944	64.546
3928	64.4477
3912	64.3422
3896	64.5725
3880	64.3906
3864	64.5902
3848	64.5858
3832	64.2305
3816	64.3453
3800	64.5107
3784	64.6982
3768	64.4996
3752	64.2214
3736	64.3129
3720	64.4511
3704	64.2648
3688	64.3516
3672	64.3298
3656	64.4154
3640	64.2452
3624	64.2522
3608	64.1715
3592	64.1289
3576	64.1451
3560	63.9941
3544	64.1418
3528	64.0214
3512	64.0412
3496	64.0476
3480	64.1466
3464	63.9874
3448	63.9922
3432	64.2393
3416	63.8792
3400	64.0697
3384	64.0347
3368	63.9529
3352	63.8437
3336	64.1087
3320	64.0266
3304	63.7997
3288	63.6738
3272	63.813
3256	64.0897
3240	63.6876
3224	63.5149
3208	63.7388
3192	63.76
3176	63.7325
3160	63.6925
3144	63.3502
3128	63.5379
3112	63.3851
3096	63.5167
3080	63.3488
3064	63.6067
3048	63.7537
3032	63.4056
3016	63.4256
3000	63.4115
2984	63.4545
2968	63.2257
2952	63.2851
2936	63.2869
2920	63.0974
2904	63.1204
2888	63.1483
2872	62.9808
2856	62.874
2840	63.1908
2824	63.0644
2808	63.0909
2792	63.0298
2776	62.9227
2760	62.9574
2744	62.8476
2728	62.862
2712	62.7083
2696	62.7618
2680	62.6964
2664	62.7264
2648	62.7088
2632	62.6168
2616	62.7025
2600	62.5417
2584	62.5334
2568	62.5832
2552	62.6767
2536	62.43
2520	62.3113
2504	62.3559
2488	62.2862
2472	62.2407
2456	62.4282
2440	62.222
2424	62.4975
2408	62.2714
2392	62.2556
2376	62.018
2360	62.0934
2344	62.077
2328	61.9687
2312	61.86
2296	61.8071
2280	61.833
2264	61.8145
2248	61.7462
2232	61.8098
2216	61.6958
2200	61.5879
2184	61.6181
2168	61.5937
2152	61.5914
2136	61.4653
2120	61.3891
2104	61.3995
2088	61.303
2072	61.5057
2056	61.333
2040	61.1348
2024	61.0707
2008	60.9897
1992	60.9891
1976	60.9888
1960	60.8743
1944	60.9422
1928	60.7712
1912	60.882
1896	60.7833
1880	60.7101
1864	60.5401
1848	60.5789
1832	60.5893
1816	60.5752
1800	60.4933
1784	60.3946
1768	60.3707
1752	60.3031
1736	60.178
1720	59.9658
1704	60.14
1688	60.1144
1672	59.996
1656	60.1148
1640	59.8957
1624	59.8967
1608	59.7565
1592	59.65
1576	59.7204
1560	59.5484
1544	59.6008
1528	59.4916
1512	59.3713
1496	59.4869
1480	59.3767
1464	59.3969
1448	58.912
1432	59.1813
1416	59.1932
1400	59.0422
1384	59.0628
1368	58.9401
1352	59.0328
1336	58.8653
1320	58.7735
1304	58.6837
1288	58.7785
1272	58.6257
1256	58.5169
1240	58.5845
1224	58.5592
1208	58.4466
1192	58.4805
1176	58.4662
1160	58.2328
1144	58.483
1128	58.1433
1112	58.155
1096	57.6428
1080	58.1831
1064	57.9659
1048	57.7296
1032	57.6585
1016	57.2966
1000	57.7797
984	 57.5409
968	 57.3364
952	 57.115
936	 57.2038
920	 57.0624
904	 57.0412
888	 56.936
872	 56.4345
856	 56.6414
840	 56.6013
824	 56.5922
808	 56.2716
792	 56.4869
776	 56.2544
760	 55.549
744	 56.2804
728	 55.5848
712	 55.3969
696	 55.3987
680	 54.9813
664	 55.1131
648	 54.8374
632	 54.4772
616	 54.6216
600	 54.561
584	 53.3623
568	 53.4478
552	 53.3535
536	 52.7207
520	 51.9698
504	 52.4211
488	 51.5788
472	 50.8606
456	 50.4551
440	 48.8419
424	 49.1187
408	 55.9579
392	 45.2311
376	 108.832
370	 32.8821

File: C-4040-8_t52.asc
PE IR       SPECTRUM    SPECTRUM    ASCII       PEDS        1.60
  -1
C-A932~1.ASC
17/03/27
18:46:13.00
17/03/27
18:46:39.00
tln
$C-4040-8_t0052$<tbV0>[-5.2,-2.6,8.0,0.0,27,1,0]
27.028
64

2002,4.07
MIRTGS : RIGHTBACK : INTERNAL 2
MIR : ON : INTERNAL 2
OPTKBR

0.200000
8
8.000000
FILLER
RATIO
SPECTRUM
UNLOCKED 256

DOUBLE
64
COMBINED
1
0
0

0.002000
RATIO

1
0
TRUE
51149
0
LEFT NOT FITTED RIGHT NOT FITTED 0
NONE
NONE
15600
12
4.427000
51148
TRUE
1 0 8 72 0 0 0 0

15798

#HDR
-1
-1
#GR
µM
%T
2.38419e-05
0.0
2.000000
0.002000
12515
8
114.346
43.5126
#DATA
2.000000	 64.9157
2.084000	 65.0564
2.168000	 65.039
2.252000	 65.1432
2.336000	 66.1093
2.420000	 65.1358
2.504000	 65.1041
2.588000	 65.2629
2.672000	 65.0526
2.756000	 65.0169
2.840000	 65.132
2.924000	 65.3194
3.008000	 65.2082
3.092000	 65.2794
3.176000	 65.2357
3.260000	 65.2643
3.344000	 65.1862
3.428000	 64.8563
3.512000	 65.0422
3.596000	 65.2787
3.680000	 65.0871
3.764000	 65.32
3.848000	 65.3879
3.932000	 65.4792
4.016000	 65.1726
4.100000	 65.2392
4.184000	 65.3913
4.268000	 65.2942
4.352000	 65.3723
4.436000	 65.3175
4.520000	 65.3143
4.604000	 65.3906
4.688000	 65.2242
4.772000	 65.3637
4.856000	 65.1591
4.940000	 65.2349
5.024000	 65.2989
5.108000	 65.2255
5.192000	 65.2939
5.276000	 65.2916
5.359999	 65.2493
5.444000	 65.3687
5.528000	 65.3579
5.612000	 65.2341
5.696000	 65.1416
5.780000	 64.9296
5.864000	 65.1574
5.948000	 65.2654
6.032000	 65.1778
6.116000	 65.1716
6.200000	 65.2261
6.284000	 65.1577
6.368000	 65.303
6.452000	 65.2777
6.536000	 65.0881
6.620000	 65.1625
6.704000	 65.2101
6.788000	 65.1355
6.872000	 64.9727
6.956000	 65.1599
7.040000	 65.0714
7.124000	 65.1918
7.208000	 65.1193
7.292000	 65.2586
7.376000	 65.1543
7.460000	 65.0352
7.544000	 65.1385
7.628000	 65.0623
7.712000	 65.1076
7.796000	 65.1537
7.880000	 64.9993
7.964000	 65.0652
8.048000	 65.2187
8.132000	 65.0028
8.216000	 64.8627
8.300000	 65.0735
8.384000	 65.2384
8.468000	 64.8955
8.552000	 65.2055
8.635999	 65.1747
8.719999	 65.4186
8.804000	 64.7945
8.888000	 64.8198
8.972000	 64.8798
9.056000	 65.0753
9.140000	 64.865
9.224000	 64.9871
9.308000	 64.9801
9.391999	 64.9593
9.475999	 64.7065
9.560000	 64.6728
9.644000	 65.1109
9.728000	 64.7405
9.812000	 64.2988
9.896000	 64.7577
9.980000	 64.6271
10.064	64.7969
10.148	64.8624
10.232	64.7947
10.316	64.641
10.4	64.6585
10.484	64.5977
10.568	64.4852
10.652	64.7858
10.736	64.7866
10.82	64.6241
10.904	64.6308
10.988	64.6254
11.072	64.5836
11.156	64.3537
11.24	64.4639
11.324	64.5724
11.408	64.3764
11.492	64.4898
11.576	64.6517
11.66	64.539
11.744	64.5561
11.828	64.7085
11.912	64.4755
11.996	64.3623
12.08	64.3989
12.164	64.5951
12.248	64.4196
12.332	64.4399
12.416	64.2727
12.5	64.2247
12.584	64.1177
12.668	63.9238
12.752	64.1133
12.836	63.9565
12.92	64.04
13.004	64.3342
13.088	64.144
13.172	63.8019
13.256	63.7744
13.34	64.0499
13.424	63.8342
13.508	63.8182
13.592	63.9865
13.676	64.0153
13.76	63.9811
13.844	63.7513
13.928	63.6403
14.012	63.6747
14.096	63.549
14.18	63.4852
14.264	63.7193
14.348	63.9067
14.432	63.8986
14.516	63.7794
14.6	63.5068
14.684	63.3441
14.768	63.3411
14.852	63.1442
14.936	62.888
15.02	62.9218
15.104	63.2075
15.188	63.4987
15.272	63.5476
15.356	63.3478
15.44	63.0873
15.524	62.8278
15.608	62.6274
15.692	62.587
15.776	62.7266
15.86	62.989
15.944	63.1982
16.028	63.2123
16.112	63.1297
16.196	63.1525
16.28	63.3395
16.364	63.5016
16.448	63.3848
16.532	63.0096
16.616	62.6247
16.7	62.3499
16.784	62.1423
16.868	62.0016
16.952	61.9563
17.036	61.9842
17.12	62.0525
17.204	62.1226
17.288	62.1388
17.372	62.0819
17.456	61.9865
17.54	61.9057
17.624	61.9087
17.708	62.0349
17.792	62.2059
17.876	62.279
17.96	62.1903
18.044	61.9717
18.128	61.6709
18.212	61.3587
18.296	61.1595
18.38	61.1712
18.464	61.3724
18.548	61.641
18.632	61.8466
18.716	61.9319
18.8	61.9349
18.884	61.9336
18.968	61.9276
19.052	61.7962
19.136	61.4592
19.22	61.0231
19.304	60.6946
19.388	60.58
19.472	60.6494
19.556	60.8443
19.64	61.1404
19.724	61.4955
19.808	61.7952
19.892	61.9151
19.976	61.814
20.06	61.5482
20.144	61.2037
20.228	60.8375
20.312	60.4838
20.396	60.1791
20.48	59.9712
20.564	59.8832
20.648	59.8897
20.732	59.9238
20.816	59.9166
20.9	59.8364
20.984	59.7204
21.068	59.6518
21.152	59.7123
21.236	59.9298
21.32	60.2435
21.404	60.5255
21.488	60.6139
21.572	60.395
21.656	59.8671
21.74	59.1662
21.824	58.5151
21.908	58.1018
21.992	57.9786
22.076	58.048
22.16	58.1222
22.244	58.0652
22.328	57.883
22.412	57.7203
22.496	57.7875
22.58	58.2146
22.664	58.9939
22.748	59.9691
22.832	60.92
22.916	61.6644
23	62.1418
23.084	62.386
23.168	62.4415
23.252	62.2989
23.336	61.9085
23.42	61.1926
23.504	60.2091
23.588	59.1496
23.672	58.2723
23.756	57.8631
23.84	58.0435
23.924	58.7477
24.008	59.83
24.092	61.1737
24.176	62.7007
24.26	64.294
24.344	65.685
24.428	66.5376
24.512	66.6323
24.596	65.9954
24.68	64.9739
24.764	64.1989
24.848	64.2358
24.932	65.686
25.016	69.0457
25.1	74.6446
25.184	82.2769
25.268	91.0962
25.352	99.8716
25.436	107.232
25.52	112.162
25.604	114.264
25.688	113.623
25.772	110.752
25.856	106.383
25.94	101.437
26.024	96.7952
26.108	93.0089
26.192	90.1255
26.276	87.5822
26.36	84.3295
26.444	79.2405
26.528	71.8209
26.612	62.4316
26.696	52.7702
26.78	45.5464
26.864	43.654
26.948	48.9915
27.028	60.6282

File: C-4040-8_t52_cm-1.asc
PE IR       SPECTRUM    SPECTRUM    ASCII       PEDS        1.60
  -1
C-1C64~1.ASC
17/03/27
18:46:13.00
17/03/27
18:46:13.00
tln
$C-4040-8_t0052$<tbV0>[-5.2,-2.6,8.0,0.0,27,1,0]
370
64

2002,4.07
MIRTGS : RIGHTBACK : INTERNAL 2
MIR : ON : INTERNAL 2
OPTKBR

0.200000
8
8.000000
FILLER
RATIO
SPECTRUM
UNLOCKED 256

DOUBLE
64
COMBINED
1
0
0

1.000000
RATIO

1
0
TRUE
51149
0
LEFT NOT FITTED RIGHT NOT FITTED 0
NONE
NONE
15600
12
4.427000
51148
TRUE
1 0 8 72 0 0 0 0

15798

#HDR
-1
-1
#GR
CM-1
%T
2.38419e-05
0.0
5000
-1.000000
4631
8
114.302
44.1409
#DATA
5000	64.9157
4984	64.913
4968	65.0498
4952	64.8119
4936	64.6345
4920	65.0163
4904	64.9873
4888	64.1703
4872	64.2247
4856	64.7562
4840	64.7134
4824	65.2818
4808	64.9353
4792	65.2766
4776	64.8461
4760	65.0756
4744	64.5558
4728	64.9266
4712	64.888
4696	64.8084
4680	64.9904
4664	64.6091
4648	64.95
4632	64.6605
4616	65.1392
4600	65.2538
4584	65.2038
4568	64.5697
4552	64.6192
4536	64.6863
4520	64.4971
4504	64.5114
4488	65.2991
4472	65.0985
4456	65.659
4440	65.1522
4424	65.8902
4408	65.8257
4392	65.685
4376	65.8186
4360	59.0115
4344	58.0465
4328	65.6737
4312	65.1933
4296	65.4743
4280	66.1187
4264	65.6639
4248	65.41
4232	64.8551
4216	65.4926
4200	65.0236
4184	65.351
4168	65.7146
4152	64.7373
4136	65.0605
4120	64.9358
4104	65.0643
4088	65.0673
4072	65.3993
4056	65.1511
4040	65.0844
4024	64.9489
4008	64.8595
3992	65.0773
3976	65.106
3960	64.8031
3944	65.129
3928	64.8616
3912	65.0463
3896	65.3694
3880	65.1364
3864	65.2631
3848	65.1231
3832	65.1599
3816	65.2264
3800	65.1098
3784	65.5582
3768	65.1432
3752	65.1206
3736	64.9729
3720	65.2162
3704	65.0902
3688	65.3782
3672	65.1815
3656	65.1743
3640	65.2164
3624	65.0847
3608	65.2199
3592	65.1235
3576	65.3538
3560	65.1843
3544	65.0852
3528	65.1793
3512	65.0667
3496	65.2398
3480	65.1971
3464	65.4981
3448	65.268
3432	65.2824
3416	65.3088
3400	65.3508
3384	65.3661
3368	65.1204
3352	65.0991
3336	65.4633
3320	65.1952
3304	65.2978
3288	65.0822
3272	65.1903
3256	65.249
3240	65.1317
3224	65.1678
3208	65.1072
3192	65.272
3176	65.3934
3160	65.1754
3144	65.1926
3128	65.0736
3112	65.3721
3096	65.2933
3080	65.228
3064	65.3076
3048	65.1792
3032	65.143
3016	65.286
3000	65.2868
2984	65.152
2968	65.3855
2952	65.1241
2936	65.1925
2920	64.8812
2904	65.1371
2888	65.0893
2872	65.2659
2856	64.9142
2840	65.1969
2824	65.0979
2808	65.076
2792	65.1392
2776	65.3211
2760	65.3775
2744	65.2319
2728	65.0764
2712	65.1309
2696	65.2313
2680	65.2795
2664	65.293
2648	65.3198
2632	65.2878
2616	65.4132
2600	65.3874
2584	65.258
2568	65.2712
2552	65.5555
2536	65.392
2520	65.2996
2504	65.1583
2488	65.1813
2472	65.2323
2456	65.4175
2440	65.2409
2424	65.6288
2408	65.2561
2392	65.3826
2376	65.2677
2360	65.3665
2344	65.3039
2328	65.3351
2312	65.2821
2296	65.3574
2280	65.2965
2264	65.2751
2248	65.4747
2232	65.3734
2216	65.2363
2200	65.1545
2184	65.3898
2168	65.3001
2152	64.9879
2136	65.2379
2120	65.3414
2104	65.3894
2088	65.3421
2072	65.1866
2056	65.3686
2040	65.3228
2024	65.2347
2008	65.3828
1992	65.3003
1976	65.3531
1960	65.2161
1944	65.325
1928	65.3358
1912	65.3507
1896	65.2769
1880	65.4257
1864	65.2665
1848	65.3828
1832	65.3752
1816	65.4356
1800	65.1903
1784	65.2173
1768	65.2812
1752	65.1229
1736	64.9906
1720	65.1538
1704	65.2193
1688	65.1694
1672	65.2715
1656	65.195
1640	65.1728
1624	65.1836
1608	65.1541
1592	65.1615
1576	65.4211
1560	65.0352
1544	65.2918
1528	65.0787
1512	65.1602
1496	65.239
1480	65.193
1464	65.197
1448	64.9564
1432	65.1336
1416	65.0717
1400	65.2534
1384	65.1175
1368	65.2045
1352	65.1683
1336	65.043
1320	65.0834
1304	65.0636
1288	65.0265
1272	64.934
1256	65.0595
1240	65.1837
1224	64.9067
1208	65.0794
1192	65.2296
1176	65.0602
1160	65.2031
1144	65.3513
1128	64.9047
1112	64.9919
1096	65.0782
1080	65.1256
1064	64.9646
1048	64.6535
1032	65.0045
1016	64.3628
1000	64.7534
984	 64.8659
968	 64.6223
952	 64.5395
936	 64.7871
920	 64.6003
904	 64.6121
888	 64.511
872	 64.4239
856	 64.4897
840	 64.4905
824	 64.5773
808	 64.3687
792	 63.9734
776	 63.9286
760	 63.8534
744	 63.7871
728	 64.0118
712	 63.6467
696	 63.9171
680	 63.3424
664	 63.041
648	 63.1119
632	 62.866
616	 63.222
600	 62.4478
584	 62.0555
568	 61.8973
552	 61.717
536	 61.8844
520	 60.9714
504	 61.869
488	 59.9516
472	 59.7838
456	 58.0429
440	 59.7224
424	 59.1866
408	 66.6397
392	 111.731
376	 64.3255
370	 60.6282

File: C-4040-8_t53.asc
PE IR       SPECTRUM    SPECTRUM    ASCII       PEDS        1.60
  -1
C-A936~1.ASC
17/03/27
18:50:50.00
17/03/27
18:51:16.00
tln
$C-4040-8_t0053$<tbV0>[-7.8,-2.6,8.0,0.0,27,1,0]
27.028
64

2002,4.07
MIRTGS : RIGHTBACK : INTERNAL 2
MIR : ON : INTERNAL 2
OPTKBR

0.200000
8
8.000000
FILLER
RATIO
SPECTRUM
UNLOCKED 256

DOUBLE
64
COMBINED
1
0
0

0.002000
RATIO

1
0
TRUE
51149
0
LEFT NOT FITTED RIGHT NOT FITTED 0
NONE
NONE
15600
12
4.427000
51148
TRUE
1 0 8 72 0 0 0 0

15798

#HDR
-1
-1
#GR
µM
%T
2.38419e-05
0.0
2.000000
0.002000
12515
8
70.9348
19.7822
#DATA
2.000000	 64.8052
2.084000	 65.1894
2.168000	 64.4635
2.252000	 65.6477
2.336000	 65.9712
2.420000	 65.0019
2.504000	 65.0158
2.588000	 65.1131
2.672000	 65.2386
2.756000	 64.9503
2.840000	 65.0729
2.924000	 65.4222
3.008000	 65.3153
3.092000	 65.3207
3.176000	 65.4079
3.260000	 65.1607
3.344000	 65.2219
3.428000	 64.8612
3.512000	 65.1923
3.596000	 65.3358
3.680000	 65.1554
3.764000	 65.3499
3.848000	 65.4438
3.932000	 65.4222
4.016000	 65.1812
4.100000	 65.6089
4.184000	 65.4518
4.268000	 65.3997
4.352000	 65.473
4.436000	 65.439
4.520000	 65.3442
4.604000	 65.4751
4.688000	 65.416
4.772000	 65.4053
4.856000	 65.2436
4.940000	 65.4224
5.024000	 65.3254
5.108000	 65.2388
5.192000	 65.3537
5.276000	 65.3717
5.359999	 65.2925
5.444000	 65.4465
5.528000	 65.2848
5.612000	 65.2244
5.696000	 65.2576
5.780000	 65.0552
5.864000	 65.2997
5.948000	 65.2613
6.032000	 65.1982
6.116000	 65.1615
6.200000	 65.0812
6.284000	 65.1873
6.368000	 65.2876
6.452000	 65.1872
6.536000	 65.1757
6.620000	 65.0495
6.704000	 65.1757
6.788000	 65.2384
6.872000	 64.6112
6.956000	 65.0971
7.040000	 65.132
7.124000	 65.1752
7.208000	 65.0621
7.292000	 65.0716
7.376000	 65.1264
7.460000	 65.2403
7.544000	 65.1366
7.628000	 65.0987
7.712000	 64.9886
7.796000	 65.1055
7.880000	 65.1045
7.964000	 64.9817
8.048000	 65.0659
8.132000	 64.9973
8.216000	 64.996
8.300000	 65.2766
8.384000	 65.1404
8.468000	 65.0371
8.552000	 64.8046
8.635999	 64.6154
8.719999	 65.2146
8.804000	 64.8582
8.888000	 65.0851
8.972000	 64.7952
9.056000	 64.6541
9.140000	 64.5874
9.224000	 64.9855
9.308000	 64.8477
9.391999	 64.9273
9.475999	 64.9776
9.560000	 64.5273
9.644000	 64.784
9.728000	 64.7139
9.812000	 64.7541
9.896000	 64.9546
9.980000	 64.632
10.064	64.7455
10.148	64.9392
10.232	64.9066
10.316	64.4531
10.4	64.5761
10.484	64.6462
10.568	64.8065
10.652	64.6874
10.736	64.7461
10.82	64.6402
10.904	64.4809
10.988	64.3741
11.072	64.565
11.156	64.3764
11.24	64.5812
11.324	64.5335
11.408	64.3609
11.492	64.638
11.576	64.6751
11.66	64.4793
11.744	64.4954
11.828	64.549
11.912	64.5144
11.996	64.3831
12.08	64.2862
12.164	64.3628
12.248	64.0712
12.332	64.3442
12.416	64.639
12.5	64.4143
12.584	64.2422
12.668	64.0229
12.752	63.812
12.836	64.0216
12.92	64.1486
13.004	64.238
13.088	64.4782
13.172	64.1411
13.256	63.74
13.34	64.1384
13.424	64.261
13.508	64.0594
13.592	63.8905
13.676	63.708
13.76	63.7008
13.844	63.7155
13.928	63.8347
14.012	63.9071
14.096	63.6376
14.18	63.4207
14.264	63.6255
14.348	63.9404
14.432	64.0066
14.516	63.8203
14.6	63.5272
14.684	63.3327
14.768	63.3342
14.852	63.1926
14.936	62.7216
15.02	62.471
15.104	62.786
15.188	63.1902
15.272	63.2737
15.356	63.1522
15.44	62.9752
15.524	62.8309
15.608	62.8951
15.692	63.0285
15.776	62.9193
15.86	62.7917
15.944	62.9149
16.028	63.0615
16.112	63.0933
16.196	63.1338
16.28	63.1674
16.364	63.1608
16.448	63.2179
16.532	63.3113
16.616	63.1654
16.7	62.6752
16.784	62.2095
16.868	62.1353
16.952	62.3252
17.036	62.469
17.12	62.5241
17.204	62.5327
17.288	62.4066
17.372	62.1677
17.456	62.0571
17.54	62.2038
17.624	62.4327
17.708	62.5157
17.792	62.4288
17.876	62.2988
17.96	62.2228
18.044	62.2229
18.128	62.3181
18.212	62.5077
18.296	62.6928
18.38	62.7296
18.464	62.5941
18.548	62.4293
18.632	62.3502
18.716	62.2926
18.8	62.1021
18.884	61.7326
18.968	61.2835
19.052	60.8626
19.136	60.4806
19.22	60.1067
19.304	59.7926
19.388	59.6903
19.472	59.9361
19.556	60.4858
19.64	61.0967
19.724	61.4978
19.808	61.5847
19.892	61.4492
19.976	61.2741
20.06	61.2071
20.144	61.2727
20.228	61.3701
20.312	61.363
20.396	61.1943
20.48	60.9434
20.564	60.7667
20.648	60.7809
20.732	60.9698
20.816	61.1993
20.9	61.2978
20.984	61.1789
21.068	60.8932
21.152	60.6033
21.236	60.4855
21.32	60.6187
21.404	60.9279
21.488	61.2221
21.572	61.3149
21.656	61.1388
21.74	60.7656
21.824	60.3233
21.908	59.8818
21.992	59.4195
22.076	58.89
22.16	58.3176
22.244	57.8281
22.328	57.5678
22.412	57.5997
22.496	57.8478
22.58	58.1519
22.664	58.3717
22.748	58.4654
22.832	58.4778
22.916	58.4776
23	58.5016
23.084	58.5306
23.168	58.5341
23.252	58.5199
23.336	58.5301
23.42	58.601
23.504	58.7543
23.588	58.9742
23.672	59.2329
23.756	59.5394
23.84	59.9104
23.924	60.352
24.008	60.8527
24.092	61.3867
24.176	61.921
24.26	62.3789
24.344	62.6267
24.428	62.5204
24.512	61.9607
24.596	60.8962
24.68	59.3917
24.764	57.6902
24.848	56.068
24.932	54.9207
25.016	54.6792
25.1	55.7154
25.184	58.0976
25.268	61.4578
25.352	65.111
25.436	68.2193
25.52	70.1914
25.604	70.9255
25.688	70.5865
25.772	69.6045
25.856	68.5458
25.94	68.0291
26.024	68.4061
26.108	69.4649
26.192	70.4609
26.276	70.2421
26.36	67.517
26.444	61.4796
26.528	52.3359
26.612	41.2586
26.696	30.4291
26.78	22.5305
26.864	19.7853
26.948	23.0905
27.028	30.8473

File: C-4040-8_t53_cm-1.asc
PE IR       SPECTRUM    SPECTRUM    ASCII       PEDS        1.60
  -1
C-1CE1~1.ASC
17/03/27
18:50:50.00
17/03/27
18:50:50.00
tln
$C-4040-8_t0053$<tbV0>[-7.8,-2.6,8.0,0.0,27,1,0]
370
64

2002,4.07
MIRTGS : RIGHTBACK : INTERNAL 2
MIR : ON : INTERNAL 2
OPTKBR

0.200000
8
8.000000
FILLER
RATIO
SPECTRUM
UNLOCKED 256

DOUBLE
64
COMBINED
1
0
0

1.000000
RATIO

1
0
TRUE
51149
0
LEFT NOT FITTED RIGHT NOT FITTED 0
NONE
NONE
15600
12
4.427000
51148
TRUE
1 0 8 72 0 0 0 0

15798

#HDR
-1
-1
#GR
CM-1
%T
2.38419e-05
0.0
5000
-1.000000
4631
8
70.8936
19.9691
#DATA
5000	64.8052
4984	65.679
4968	65.2951
4952	65.3661
4936	64.9214
4920	65.4641
4904	65.2845
4888	65.2956
4872	64.4024
4856	64.507
4840	65.0211
4824	65.1375
4808	65.0547
4792	64.8049
4776	64.9836
4760	64.636
4744	64.7842
4728	64.6208
4712	64.9345
4696	64.5762
4680	64.7656
4664	64.3076
4648	64.51
4632	65.0466
4616	64.3037
4600	64.6667
4584	65.2852
4568	64.9885
4552	64.6194
4536	64.6245
4520	64.7887
4504	65.0272
4488	65.5126
4472	65.5596
4456	65.4964
4440	65.6289
4424	66.3087
4408	66.484
4392	66.0423
4376	65.982
4360	57.2312
4344	50.1839
4328	67.1548
4312	66.3616
4296	65.7262
4280	66.038
4264	66.3211
4248	65.4226
4232	65.4713
4216	65.3895
4200	65.4553
4184	64.6825
4168	65.473
4152	65.0025
4136	65.0675
4120	65.0149
4104	65.2297
4088	65.2158
4072	65.1567
4056	64.7783
4040	64.9456
4024	65.2174
4008	64.9979
3992	65.033
3976	64.7722
3960	64.7742
3944	65.2707
3928	64.9564
3912	65.1892
3896	65.2285
3880	65.193
3864	65.1134
3848	65.2431
3832	65.3159
3816	65.3212
3800	65.3398
3784	65.2973
3768	65.3127
3752	65.2083
3736	65.0637
3720	65.3876
3704	65.1734
3688	65.3288
3672	65.2361
3656	65.1898
3640	65.2428
3624	64.911
3608	65.0848
3592	65.1237
3576	65.146
3560	64.9077
3544	64.8812
3528	64.9728
3512	65.1839
3496	65.2997
3480	65.406
3464	65.3355
3448	65.1139
3432	65.2634
3416	65.3347
3400	65.2841
3384	65.409
3368	65.3838
3352	65.187
3336	65.2427
3320	65.4512
3304	65.2158
3288	65.3574
3272	65.2004
3256	65.5182
3240	65.0078
3224	65.1692
3208	65.1855
3192	65.2997
3176	65.0592
3160	64.9351
3144	65.2072
3128	65.2392
3112	65.0771
3096	65.3058
3080	65.1766
3064	65.0789
3048	65.3369
3032	65.2461
3016	65.4132
3000	65.185
2984	65.1256
2968	65.3797
2952	65.3222
2936	65.1583
2920	64.9279
2904	65.0563
2888	65.2299
2872	65.2959
2856	65.066
2840	65.2297
2824	65.261
2808	65.3275
2792	65.2934
2776	65.222
2760	65.2575
2744	65.2946
2728	65.3213
2712	65.305
2696	65.264
2680	65.3218
2664	65.2331
2648	65.233
2632	65.348
2616	65.4496
2600	65.4631
2584	65.2327
2568	65.3527
2552	65.4389
2536	65.379
2520	65.2094
2504	65.0019
2488	65.2253
2472	65.3493
2456	65.5491
2440	65.6116
2424	65.8566
2408	65.6764
2392	65.4208
2376	65.2838
2360	65.3255
2344	65.3713
2328	65.392
2312	65.3877
2296	65.47
2280	65.353
2264	65.3999
2248	65.4835
2232	65.4817
2216	65.35
2200	65.2736
2184	65.3262
2168	65.467
2152	65.8384
2136	65.4354
2120	65.3739
2104	65.3389
2088	65.2104
2072	65.0772
2056	65.166
2040	65.2859
2024	65.421
2008	65.4226
1992	65.2887
1976	65.2232
1960	65.1332
1944	65.3836
1928	65.3945
1912	65.3053
1896	65.3683
1880	65.375
1864	65.2857
1848	65.2638
1832	65.4908
1816	65.2558
1800	65.2808
1784	65.2183
1768	65.3294
1752	65.2892
1736	65.1514
1720	65.1081
1704	65.3192
1688	65.2048
1672	65.2726
1656	65.1515
1640	65.1833
1624	65.1617
1608	65.1002
1592	65.1907
1576	65.4571
1560	65.2077
1544	65.3019
1528	65.1775
1512	65.0825
1496	65.2831
1480	65.3029
1464	65.1043
1448	64.9138
1432	65.2639
1416	65.1407
1400	65.2536
1384	65.03
1368	65.0605
1352	65.1687
1336	65.1973
1320	65.0007
1304	65.003
1288	65.0269
1272	65.0827
1256	64.9787
1240	64.9715
1224	65.0138
1208	65.3649
1192	65.1238
1176	64.9929
1160	64.6721
1144	65.2063
1128	65.1292
1112	64.5688
1096	64.8144
1080	64.9152
1064	64.9392
1048	64.7202
1032	64.8496
1016	64.9486
1000	64.6521
984	 64.9817
968	 64.435
952	 64.7382
936	 64.7279
920	 64.5476
904	 64.5708
888	 64.6227
872	 64.5388
856	 64.4748
840	 64.5191
824	 64.386
808	 64.5696
792	 64.1619
776	 64.1325
760	 64.2443
744	 64.2205
728	 63.694
712	 63.8356
696	 63.9839
680	 63.3203
664	 62.5679
648	 62.9929
632	 62.821
616	 63.1555
600	 62.8953
584	 62.5255
568	 62.3894
552	 62.2978
536	 62.3383
520	 60.061
504	 61.5477
488	 60.9107
472	 60.5261
456	 59.766
440	 58.4524
424	 58.9654
408	 61.9817
392	 70.0264
376	 43.4431
370	 30.8473