Folder: Masteroppgave/Bakgrunnsmateriale/MATLAB/FTIR/ftir_data/subBb/Mapping_121 (part 6)

File: C-4040-8_t06_cm-1.asc
PE IR       SPECTRUM    SPECTRUM    ASCII       PEDS        1.60
  -1
C-996E~1.ASC
17/03/27
14:58:38.00
17/03/27
14:58:38.00
tln
$C-4040-8_t0006$<tbV0>[0.0,-13.0,8.0,0.0,27,1,0]
370
64

2002,4.07
MIRTGS : RIGHTBACK : INTERNAL 2
MIR : ON : INTERNAL 2
OPTKBR

0.200000
8
8.000000
FILLER
RATIO
SPECTRUM
UNLOCKED 256

DOUBLE
64
COMBINED
1
0
0

1.000000
RATIO

1
0
TRUE
51149
0
LEFT NOT FITTED RIGHT NOT FITTED 0
NONE
NONE
15600
12
4.427000
51148
TRUE
1 0 8 72 0 0 0 0

15798

#HDR
-1
-1
#GR
CM-1
%T
2.38419e-05
0.0
5000
-1.000000
4631
8
70.9394
-7.819414
#DATA
5000	64.118
4984	64.4188
4968	64.0641
4952	63.1017
4936	62.8245
4920	64.2244
4904	65.0022
4888	64.1827
4872	63.7682
4856	63.9366
4840	64.4838
4824	63.6964
4808	63.7848
4792	63.8373
4776	63.7686
4760	63.5713
4744	63.8488
4728	63.5486
4712	63.6686
4696	63.6375
4680	63.4466
4664	63.6292
4648	63.7193
4632	63.9141
4616	63.9436
4600	63.9733
4584	63.9951
4568	63.6273
4552	63.2262
4536	63.469
4520	63.9173
4504	64.364
4488	63.6733
4472	64.4767
4456	65.8272
4440	67.1381
4424	62.0206
4408	60.017
4392	53.9749
4376	65.731
4360	65.1255
4344	64.6999
4328	64.0813
4312	63.7007
4296	64.1293
4280	63.5365
4264	63.9927
4248	63.6716
4232	63.3705
4216	63.7803
4200	63.2024
4184	62.9524
4168	63.1714
4152	63.3674
4136	63.4776
4120	63.6075
4104	63.3595
4088	63.5142
4072	63.4598
4056	63.4464
4040	63.4276
4024	63.6648
4008	63.5216
3992	63.4262
3976	63.2059
3960	63.4489
3944	63.6969
3928	63.3837
3912	63.295
3896	63.7207
3880	63.1141
3864	63.495
3848	63.4813
3832	63.3125
3816	63.1521
3800	63.2689
3784	63.1938
3768	63.3509
3752	63.6394
3736	63.408
3720	63.4734
3704	63.0412
3688	63.1963
3672	63.2201
3656	63.0958
3640	62.9176
3624	63.0205
3608	62.9629
3592	62.966
3576	62.878
3560	62.6274
3544	62.7327
3528	62.5724
3512	62.5291
3496	62.7177
3480	62.8198
3464	62.8176
3448	62.8592
3432	62.4966
3416	62.4694
3400	62.2324
3384	62.3788
3368	62.2695
3352	62.3108
3336	62.2476
3320	62.1151
3304	62.0951
3288	62.0808
3272	62.047
3256	61.8922
3240	62.0367
3224	62.0348
3208	62.0689
3192	61.8444
3176	61.7502
3160	61.8151
3144	61.6796
3128	61.5378
3112	61.6113
3096	61.496
3080	61.5489
3064	61.5833
3048	61.4995
3032	61.3134
3016	61.4193
3000	61.1783
2984	61.2005
2968	61.044
2952	60.9442
2936	60.7866
2920	60.8617
2904	60.6531
2888	60.858
2872	60.6319
2856	60.6767
2840	60.7677
2824	60.6294
2808	60.5943
2792	60.474
2776	60.3765
2760	60.4225
2744	60.3445
2728	60.2187
2712	60.161
2696	60.1864
2680	60.1415
2664	59.9903
2648	59.9166
2632	59.8554
2616	59.7653
2600	59.6329
2584	59.7385
2568	59.531
2552	59.6339
2536	59.4972
2520	59.3637
2504	59.3005
2488	59.3226
2472	59.2323
2456	59.0716
2440	59.2029
2424	59.0617
2408	58.7667
2392	58.7632
2376	58.8012
2360	58.6773
2344	58.4821
2328	58.5012
2312	58.3674
2296	58.3421
2280	58.2352
2264	58.2582
2248	58.1278
2232	57.9264
2216	57.8242
2200	57.7404
2184	57.5109
2168	57.5897
2152	57.7058
2136	57.3734
2120	57.3019
2104	57.2041
2088	57.3087
2072	57.1402
2056	56.9086
2040	56.9769
2024	56.673
2008	56.7495
1992	56.6401
1976	56.5041
1960	56.4698
1944	56.4631
1928	56.2923
1912	56.3012
1896	56.1342
1880	55.9345
1864	55.8323
1848	55.7883
1832	55.6375
1816	55.6249
1800	55.527
1784	55.4622
1768	55.452
1752	55.2796
1736	55.2004
1720	55.1678
1704	55.1034
1688	55.059
1672	54.8782
1656	55.0166
1640	54.5554
1624	54.3876
1608	54.2598
1592	54.2019
1576	54.232
1560	54.3429
1544	54.0909
1528	53.9063
1512	53.9115
1496	53.5845
1480	53.5649
1464	53.3912
1448	53.3795
1432	53.0218
1416	53.0195
1400	52.8737
1384	52.7385
1368	52.6522
1352	52.5156
1336	52.4034
1320	52.3813
1304	52.172
1288	52.2003
1272	51.8327
1256	51.8887
1240	51.6164
1224	51.5848
1208	51.5395
1192	51.3839
1176	51.3283
1160	51.2365
1144	51.1297
1128	50.9993
1112	50.6615
1096	50.6854
1080	50.483
1064	50.439
1048	50.3992
1032	50.1708
1016	50.1536
1000	49.9328
984	 50.0141
968	 49.5854
952	 49.4736
936	 49.2809
920	 49.0042
904	 48.9412
888	 49.2324
872	 48.8043
856	 48.7683
840	 48.252
824	 47.7249
808	 47.5322
792	 47.5588
776	 47.9747
760	 47.6322
744	 47.1717
728	 46.8927
712	 46.5295
696	 46.2883
680	 45.9379
664	 46.0256
648	 45.4832
632	 45.2508
616	 44.9939
600	 44.5016
584	 44.3117
568	 44.0454
552	 43.5334
536	 42.9814
520	 42.4796
504	 42.3205
488	 41.348
472	 41.7353
456	 40.7405
440	 38.9091
424	 38.6327
408	 36.7161
392	 30.5955
376	 -5.220746
370	 29.0739

File: C-4040-8_t07.asc
PE IR       SPECTRUM    SPECTRUM    ASCII       PEDS        1.60
  -1
C-B526~1.ASC
17/03/27
15:03:15.00
17/03/27
15:03:42.00
tln
$C-4040-8_t0007$<tbV0>[-2.6,-13.0,8.0,0.0,27,1,0]
27.028
64

2002,4.07
MIRTGS : RIGHTBACK : INTERNAL 2
MIR : ON : INTERNAL 2
OPTKBR

0.200000
8
8.000000
FILLER
RATIO
SPECTRUM
UNLOCKED 256

DOUBLE
64
COMBINED
1
0
0

0.002000
RATIO

1
0
TRUE
51149
0
LEFT NOT FITTED RIGHT NOT FITTED 0
NONE
NONE
15600
12
4.427000
51148
TRUE
1 0 8 72 0 0 0 0

15798

#HDR
-1
-1
#GR
µM
%T
2.38419e-05
0.0
2.000000
0.002000
12515
8
70.5944
15.7247
#DATA
2.000000	 64.2411
2.084000	 63.9572
2.168000	 64.3195
2.252000	 67.8285
2.336000	 64.4479
2.420000	 64.0239
2.504000	 64.0329
2.588000	 63.948
2.672000	 63.9813
2.756000	 63.5435
2.840000	 63.1711
2.924000	 62.9352
3.008000	 62.9166
3.092000	 62.4486
3.176000	 62.437
3.260000	 62.2317
3.344000	 61.9758
3.428000	 61.5335
3.512000	 61.4873
3.596000	 61.334
3.680000	 61.1248
3.764000	 60.9056
3.848000	 60.7655
3.932000	 60.5492
4.016000	 60.2545
4.100000	 60.2739
4.184000	 59.9783
4.268000	 59.6062
4.352000	 59.5115
4.436000	 59.3472
4.520000	 59.1365
4.604000	 58.9896
4.688000	 58.7875
4.772000	 58.5829
4.856000	 58.2407
4.940000	 58.2111
5.024000	 58.1429
5.108000	 57.9658
5.192000	 57.9146
5.276000	 57.7639
5.359999	 57.5091
5.444000	 57.2687
5.528000	 57.2328
5.612000	 57.1025
5.696000	 57.1335
5.780000	 56.8185
5.864000	 56.8317
5.948000	 56.763
6.032000	 56.7056
6.116000	 56.4275
6.200000	 56.3123
6.284000	 56.1336
6.368000	 55.9307
6.452000	 56.0356
6.536000	 55.8124
6.620000	 55.8473
6.704000	 55.5443
6.788000	 55.4956
6.872000	 55.3797
6.956000	 54.9874
7.040000	 55.106
7.124000	 54.9946
7.208000	 54.8711
7.292000	 54.6952
7.376000	 54.5618
7.460000	 54.6225
7.544000	 54.4943
7.628000	 54.2932
7.712000	 54.1972
7.796000	 54.1537
7.880000	 53.9804
7.964000	 53.9907
8.048000	 53.8253
8.132000	 53.9311
8.216000	 53.7903
8.300000	 53.7151
8.384000	 53.7479
8.468000	 53.5516
8.552000	 53.37
8.635999	 53.5988
8.719999	 53.3293
8.804000	 53.0334
8.888000	 53.1912
8.972000	 53.1846
9.056000	 53.1974
9.140000	 53.0179
9.224000	 52.7627
9.308000	 52.8114
9.391999	 52.7511
9.475999	 52.6886
9.560000	 52.5628
9.644000	 52.5462
9.728000	 52.5693
9.812000	 52.811
9.896000	 52.5402
9.980000	 52.4759
10.064	52.3475
10.148	52.3573
10.232	52.2134
10.316	52.1165
10.4	51.9536
10.484	51.9773
10.568	51.9592
10.652	51.9127
10.736	51.9413
10.82	51.6883
10.904	51.4696
10.988	51.7372
11.072	51.4503
11.156	51.8558
11.24	51.297
11.324	50.5459
11.408	50.6519
11.492	50.9285
11.576	51.0098
11.66	51.0622
11.744	51.1889
11.828	50.9375
11.912	50.7513
11.996	50.6784
12.08	50.5618
12.164	50.1294
12.248	50.3673
12.332	50.6122
12.416	50.3444
12.5	50.1517
12.584	50.2098
12.668	50.5513
12.752	50.7048
12.836	50.7519
12.92	50.604
13.004	50.2985
13.088	50.1495
13.172	50.0631
13.256	50.0692
13.34	50.1634
13.424	50.2873
13.508	49.9674
13.592	49.5404
13.676	49.5354
13.76	49.7009
13.844	49.5522
13.928	49.3066
14.012	49.3931
14.096	49.5319
14.18	49.371
14.264	49.1422
14.348	49.1311
14.432	49.1924
14.516	49.2235
14.6	49.191
14.684	48.9967
14.768	48.7427
14.852	48.5197
14.936	48.4373
15.02	48.4572
15.104	48.3951
15.188	48.4083
15.272	48.6221
15.356	48.7615
15.44	48.6793
15.524	48.4888
15.608	48.3163
15.692	48.3282
15.776	48.4737
15.86	48.4504
15.944	48.2501
16.028	48.1027
16.112	48.0228
16.196	47.9762
16.28	48.0359
16.364	48.0793
16.448	47.8276
16.532	47.3123
16.616	46.902
16.7	46.8843
16.784	47.1972
16.868	47.5179
16.952	47.6174
17.036	47.5677
17.12	47.5084
17.204	47.4114
17.288	47.2544
17.372	47.1516
17.456	47.1431
17.54	47.0955
17.624	46.9287
17.708	46.7563
17.792	46.704
17.876	46.7436
17.96	46.7544
18.044	46.6698
18.128	46.5197
18.212	46.3636
18.296	46.2365
18.38	46.1473
18.464	46.086
18.548	46.0391
18.632	46.023
18.716	46.084
18.8	46.2173
18.884	46.2927
18.968	46.1503
19.052	45.7844
19.136	45.3663
19.22	45.0842
19.304	45.0032
19.388	45.0812
19.472	45.2424
19.556	45.3962
19.64	45.4421
19.724	45.3375
19.808	45.1541
19.892	45.0363
19.976	45.0767
20.06	45.2459
20.144	45.4439
20.228	45.5993
20.312	45.6974
20.396	45.7427
20.48	45.7312
20.564	45.6551
20.648	45.5016
20.732	45.2559
20.816	44.9272
20.9	44.5626
20.984	44.2397
21.068	44.0271
21.152	43.9495
21.236	43.9886
21.32	44.1112
21.404	44.2728
21.488	44.4094
21.572	44.4502
21.656	44.3623
21.74	44.1818
21.824	43.9928
21.908	43.8525
21.992	43.734
22.076	43.5609
22.16	43.3042
22.244	43.0527
22.328	42.9553
22.412	43.0786
22.496	43.3112
22.58	43.447
22.664	43.3481
22.748	43.0678
22.832	42.7944
22.916	42.7084
23	42.8186
23.084	42.9607
23.168	42.9181
23.252	42.6071
23.336	42.1264
23.42	41.7297
23.504	41.6582
23.588	41.9927
23.672	42.6264
23.756	43.3236
23.84	43.8562
23.924	44.1155
24.008	44.1295
24.092	44.0252
24.176	43.992
24.26	44.161
24.344	44.5829
24.428	45.2012
24.512	45.8282
24.596	46.1819
24.68	45.9548
24.764	44.9433
24.848	43.0945
24.932	40.6206
25.016	37.9759
25.1	35.6667
25.184	34.1142
25.268	33.5043
25.352	33.8071
25.436	34.8238
25.52	36.3175
25.604	38.1508
25.688	40.4072
25.772	43.3089
25.856	47.0052
25.94	51.4217
26.024	56.148
26.108	60.4661
26.192	63.6743
26.276	65.1729
26.36	64.6278
26.444	61.8583
26.528	56.874
26.612	49.8581
26.696	41.3485
26.78	32.281
26.864	24.0088
26.948	18.0434
27.028	15.7247

File: C-4040-8_t07_cm-1.asc
PE IR       SPECTRUM    SPECTRUM    ASCII       PEDS        1.60
  -1
C-99EF~1.ASC
17/03/27
15:03:15.00
17/03/27
15:03:15.00
tln
$C-4040-8_t0007$<tbV0>[-2.6,-13.0,8.0,0.0,27,1,0]
370
64

2002,4.07
MIRTGS : RIGHTBACK : INTERNAL 2
MIR : ON : INTERNAL 2
OPTKBR

0.200000
8
8.000000
FILLER
RATIO
SPECTRUM
UNLOCKED 256

DOUBLE
64
COMBINED
1
0
0

1.000000
RATIO

1
0
TRUE
51149
0
LEFT NOT FITTED RIGHT NOT FITTED 0
NONE
NONE
15600
12
4.427000
51148
TRUE
1 0 8 72 0 0 0 0

15798

#HDR
-1
-1
#GR
CM-1
%T
2.38419e-05
0.0
5000
-1.000000
4631
8
70.9545
15.7247
#DATA
5000	64.2411
4984	64.4328
4968	63.9436
4952	64.1791
4936	63.309
4920	64.1361
4904	65.0269
4888	65.2035
4872	63.9568
4856	64.0617
4840	64.5613
4824	64.1517
4808	63.904
4792	63.853
4776	63.9901
4760	63.6791
4744	64.0248
4728	63.7397
4712	63.5939
4696	63.8485
4680	64.1124
4664	63.9479
4648	64.0216
4632	64.1333
4616	64.4239
4600	64.0798
4584	64.4464
4568	64.5012
4552	64.0273
4536	63.8011
4520	64.6536
4504	64.9865
4488	64.5707
4472	64.5337
4456	66.2703
4440	67.3343
4424	64.2977
4408	61.0009
4392	53.622
4376	66.9795
4360	65.6812
4344	64.5313
4328	64.2362
4312	64.4693
4296	64.4832
4280	64.4656
4264	64.0882
4248	64.1467
4232	63.9942
4216	64.0878
4200	63.6857
4184	63.6624
4168	63.5991
4152	63.7285
4136	64.0289
4120	63.7099
4104	63.2633
4088	63.951
4072	63.6375
4056	63.9105
4040	63.9193
4024	63.8619
4008	64.2818
3992	63.9794
3976	63.6391
3960	63.8478
3944	63.7602
3928	63.8268
3912	63.81
3896	63.8584
3880	63.7412
3864	63.9482
3848	64.1393
3832	63.8477
3816	63.7356
3800	64.0899
3784	63.5657
3768	63.6765
3752	63.9824
3736	63.9262
3720	63.9364
3704	63.5759
3688	63.5309
3672	63.8141
3656	63.5035
3640	63.2278
3624	63.4981
3608	63.3305
3592	63.5837
3576	63.179
3560	63.3679
3544	63.0589
3528	63.2833
3512	62.9496
3496	63.3058
3480	63.0512
3464	63.3216
3448	63.2999
3432	63.1904
3416	63.006
3400	63.0877
3384	62.9776
3368	62.9568
3352	62.7753
3336	62.9097
3320	62.7762
3304	62.8256
3288	62.9318
3272	62.684
3256	62.5649
3240	62.3173
3224	62.7234
3208	62.6934
3192	62.2646
3176	62.3974
3160	62.3767
3144	62.3391
3128	62.4051
3112	62.4471
3096	62.252
3080	62.2953
3064	62.3165
3048	62.2306
3032	62.1023
3016	62.3705
3000	61.9918
2984	61.9562
2968	61.9097
2952	61.7298
2936	61.7118
2920	61.496
2904	61.5897
2888	61.6333
2872	61.5989
2856	61.5559
2840	61.6251
2824	61.7127
2808	61.4856
2792	61.3825
2776	61.2605
2760	61.3563
2744	61.2998
2728	61.2839
2712	61.1346
2696	61.0203
2680	61.0588
2664	60.9758
2648	60.9206
2632	60.8015
2616	60.6642
2600	60.79
2584	60.584
2568	60.4851
2552	60.5918
2536	60.5012
2520	60.5483
2504	60.3647
2488	60.2633
2472	60.3789
2456	60.086
2440	60.2898
2424	59.8732
2408	59.9787
2392	59.9796
2376	59.8487
2360	59.9315
2344	59.6231
2328	59.6454
2312	59.5676
2296	59.4721
2280	59.4353
2264	59.4346
2248	59.2664
2232	59.2785
2216	59.1977
2200	59.0732
2184	59.0838
2168	58.9389
2152	58.9093
2136	58.8517
2120	58.7179
2104	58.6396
2088	58.7145
2072	58.4659
2056	58.291
2040	58.4542
2024	58.2121
2008	58.2884
1992	58.152
1976	57.9647
1960	57.9965
1944	57.8991
1928	57.9318
1912	57.8002
1896	57.765
1880	57.6061
1864	57.4924
1848	57.4721
1832	57.3632
1816	57.2568
1800	57.2748
1784	57.1381
1768	57.1201
1752	57.1336
1736	56.8803
1720	56.8909
1704	56.8998
1688	56.7868
1672	56.6399
1656	56.8341
1640	56.4966
1624	56.391
1608	56.125
1592	56.135
1576	56.0192
1560	56.1824
1544	56.0676
1528	55.8435
1512	55.7855
1496	55.7427
1480	55.521
1464	55.2577
1448	55.2052
1432	55.0758
1416	54.9649
1400	54.9479
1384	54.7858
1368	54.6598
1352	54.4916
1336	54.6148
1320	54.3961
1304	54.2471
1288	54.187
1272	53.9335
1256	53.9933
1240	53.8061
1224	53.8809
1208	53.6916
1192	53.7431
1176	53.4296
1160	53.6067
1144	53.2629
1128	53.1526
1112	53.2135
1096	53.0567
1080	52.7643
1064	52.747
1048	52.5711
1032	52.3814
1016	52.6704
1000	52.4939
984	 52.3679
968	 52.1137
952	 51.9829
936	 51.9372
920	 51.4683
904	 51.4567
888	 51.0109
872	 50.8191
856	 51.1693
840	 50.7726
824	 50.2532
808	 50.4853
792	 50.378
776	 50.7043
760	 50.0695
744	 50.2645
728	 49.6732
712	 49.4719
696	 49.1482
680	 48.9311
664	 48.4371
648	 48.6937
632	 48.4935
616	 47.9892
600	 46.8399
584	 47.5058
568	 46.9718
552	 46.5428
536	 46.0311
520	 45.0627
504	 45.0918
488	 45.7247
472	 43.9532
456	 43.8225
440	 43.1447
424	 41.9743
408	 45.8145
392	 36.1257
376	 51.3497
370	 15.7247

File: C-4040-8_t08.asc
PE IR       SPECTRUM    SPECTRUM    ASCII       PEDS        1.60
  -1
C-C52A~1.ASC
17/03/27
15:07:52.00
17/03/27
15:08:19.00
tln
$C-4040-8_t0008$<tbV0>[-5.2,-13.0,8.0,0.0,27,1,0]
27.028
64

2002,4.07
MIRTGS : RIGHTBACK : INTERNAL 2
MIR : ON : INTERNAL 2
OPTKBR

0.200000
8
8.000000
FILLER
RATIO
SPECTRUM
UNLOCKED 256

DOUBLE
64
COMBINED
1
0
0

0.002000
RATIO

1
0
TRUE
51149
0
LEFT NOT FITTED RIGHT NOT FITTED 0
NONE
NONE
15600
12
4.427000
51148
TRUE
1 0 8 72 0 0 0 0

15798

#HDR
-1
-1
#GR
µM
%T
2.38419e-05
0.0
2.000000
0.002000
12515
8
92.1924
25.511
#DATA
2.000000	 63.8279
2.084000	 64.3675
2.168000	 64.2727
2.252000	 66.4017
2.336000	 63.4775
2.420000	 64.1677
2.504000	 64.3163
2.588000	 63.9482
2.672000	 63.9026
2.756000	 63.8091
2.840000	 63.4137
2.924000	 63.0082
3.008000	 62.9919
3.092000	 62.8494
3.176000	 62.6823
3.260000	 62.5245
3.344000	 62.1963
3.428000	 61.8688
3.512000	 61.8175
3.596000	 61.754
3.680000	 61.6045
3.764000	 61.2145
3.848000	 61.0278
3.932000	 60.8569
4.016000	 60.7083
4.100000	 60.5114
4.184000	 60.3961
4.268000	 60.056
4.352000	 59.9754
4.436000	 59.8488
4.520000	 59.77
4.604000	 59.4423
4.688000	 59.2732
4.772000	 59.0562
4.856000	 59.0718
4.940000	 58.6912
5.024000	 58.6257
5.108000	 58.4657
5.192000	 58.3586
5.276000	 58.2316
5.359999	 58.1027
5.444000	 57.7831
5.528000	 57.7307
5.612000	 57.7469
5.696000	 57.6657
5.780000	 57.3897
5.864000	 57.3528
5.948000	 57.2917
6.032000	 57.3106
6.116000	 56.9657
6.200000	 56.7228
6.284000	 56.5806
6.368000	 56.5946
6.452000	 56.4453
6.536000	 56.2835
6.620000	 56.394
6.704000	 55.9873
6.788000	 56.1423
6.872000	 55.8224
6.956000	 55.5848
7.040000	 55.7984
7.124000	 55.4834
7.208000	 55.4015
7.292000	 55.327
7.376000	 55.3336
7.460000	 55.0716
7.544000	 55.1845
7.628000	 54.8903
7.712000	 54.8955
7.796000	 54.7548
7.880000	 54.6944
7.964000	 54.6142
8.048000	 54.5791
8.132000	 54.5496
8.216000	 54.502
8.300000	 54.3991
8.384000	 54.2364
8.468000	 54.2084
8.552000	 54.1383
8.635999	 54.006
8.719999	 54.046
8.804000	 53.8775
8.888000	 53.9467
8.972000	 53.8153
9.056000	 53.7685
9.140000	 53.549
9.224000	 53.44
9.308000	 53.5231
9.391999	 53.5407
9.475999	 53.3927
9.560000	 53.5832
9.644000	 53.486
9.728000	 53.3055
9.812000	 53.1408
9.896000	 53.0876
9.980000	 53.2775
10.064	53.0848
10.148	53.0212
10.232	52.8761
10.316	52.9935
10.4	53.0385
10.484	52.8926
10.568	52.605
10.652	52.5514
10.736	52.3544
10.82	52.3404
10.904	52.8842
10.988	51.8857
11.072	51.6642
11.156	51.6442
11.24	51.6196
11.324	51.9489
11.408	51.9083
11.492	52.272
11.576	52.16
11.66	51.6719
11.744	51.6863
11.828	51.6858
11.912	51.6195
11.996	51.7644
12.08	51.7377
12.164	51.7552
12.248	51.4667
12.332	51.2601
12.416	51.3671
12.5	51.174
12.584	50.9652
12.668	50.9716
12.752	50.855
12.836	50.825
12.92	50.9056
13.004	50.9893
13.088	51.0682
13.172	50.9883
13.256	50.9188
13.34	50.741
13.424	50.7102
13.508	50.9513
13.592	50.9521
13.676	50.7382
13.76	50.5483
13.844	50.3862
13.928	50.1761
14.012	50.197
14.096	50.2055
14.18	49.9806
14.264	49.8733
14.348	49.962
14.432	49.9753
14.516	49.9386
14.6	49.9468
14.684	49.8549
14.768	49.7226
14.852	49.8081
14.936	49.9621
15.02	49.7684
15.104	49.3362
15.188	49.1168
15.272	49.1317
15.356	49.1848
15.44	49.2749
15.524	49.3614
15.608	49.3248
15.692	49.1866
15.776	49.0544
15.86	49.0168
15.944	49.0604
16.028	49.0251
16.112	48.8384
16.196	48.6991
16.28	48.7376
16.364	48.7477
16.448	48.6199
16.532	48.6553
16.616	48.9505
16.7	49.1528
16.784	49.1282
16.868	49.0681
16.952	49.0179
17.036	48.8883
17.12	48.7254
17.204	48.6374
17.288	48.6547
17.372	48.7326
17.456	48.7308
17.54	48.4889
17.624	48.0746
17.708	47.7636
17.792	47.6848
17.876	47.6849
17.96	47.5859
18.044	47.3979
18.128	47.2578
18.212	47.2483
18.296	47.3451
18.38	47.4613
18.464	47.4883
18.548	47.3641
18.632	47.1532
18.716	47.004
18.8	46.982
18.884	46.97
18.968	46.8006
19.052	46.4512
19.136	46.0793
19.22	45.8664
19.304	45.8739
19.388	46.0276
19.472	46.1948
19.556	46.264
19.64	46.1986
19.724	46.0673
19.808	46.0332
19.892	46.2687
19.976	46.7989
20.06	47.4085
20.144	47.752
20.228	47.6133
20.312	47.0724
20.396	46.4368
20.48	46.0081
20.564	45.8983
20.648	46.0121
20.732	46.1775
20.816	46.2849
20.9	46.3049
20.984	46.2165
21.068	45.9733
21.152	45.5456
21.236	44.9899
21.32	44.4425
21.404	44.0297
21.488	43.8037
21.572	43.746
21.656	43.8247
21.74	44.0271
21.824	44.3281
21.908	44.6454
21.992	44.8653
22.076	44.9194
22.16	44.8562
22.244	44.8337
22.328	44.9918
22.412	45.3395
22.496	45.7125
22.58	45.8827
22.664	45.7059
22.748	45.2316
22.832	44.6647
22.916	44.2592
23	44.1663
23.084	44.3843
23.168	44.775
23.252	45.1559
23.336	45.3691
23.42	45.3884
23.504	45.2481
23.588	45.0179
23.672	44.7651
23.756	44.524
23.84	44.3134
23.924	44.1723
24.008	44.1412
24.092	44.245
24.176	44.5249
24.26	44.9682
24.344	45.4999
24.428	46.0441
24.512	46.6003
24.596	47.2344
24.68	47.8627
24.764	48.1137
24.848	47.4379
24.932	45.4148
25.016	42.0747
25.1	37.8954
25.184	33.6276
25.268	29.9477
25.352	27.1933
25.436	25.6813
25.52	25.8139
25.604	28.0356
25.688	32.5246
25.772	38.8413
25.856	45.9104
25.94	52.3033
26.024	56.6926
26.108	58.4209
26.192	57.6229
26.276	55.1043
26.36	52.1057
26.444	49.787
26.528	48.7365
26.612	49.0023
26.696	49.8128
26.78	49.835
26.864	47.5483
26.948	41.8794
27.028	33.2792

File: C-4040-8_t08_cm-1.asc
PE IR       SPECTRUM    SPECTRUM    ASCII       PEDS        1.60
  -1
C-9965~1.ASC
17/03/27
15:07:52.00
17/03/27
15:07:52.00
tln
$C-4040-8_t0008$<tbV0>[-5.2,-13.0,8.0,0.0,27,1,0]
370
64

2002,4.07
MIRTGS : RIGHTBACK : INTERNAL 2
MIR : ON : INTERNAL 2
OPTKBR

0.200000
8
8.000000
FILLER
RATIO
SPECTRUM
UNLOCKED 256

DOUBLE
64
COMBINED
1
0
0

1.000000
RATIO

1
0
TRUE
51149
0
LEFT NOT FITTED RIGHT NOT FITTED 0
NONE
NONE
15600
12
4.427000
51148
TRUE
1 0 8 72 0 0 0 0

15798

#HDR
-1
-1
#GR
CM-1
%T
2.38419e-05
0.0
5000
-1.000000
4631
8
92.212
25.6097
#DATA
5000	63.8279
4984	64.0867
4968	64.0755
4952	63.9061
4936	63.2074
4920	63.9505
4904	64.7186
4888	64.3076
4872	64.674
4856	64.029
4840	64.5262
4824	64.2006
4808	64.5337
4792	64.2693
4776	64.4699
4760	64.4156
4744	64.6631
4728	64.212
4712	64.3056
4696	64.3344
4680	64.6324
4664	64.2345
4648	64.1747
4632	64.4813
4616	64.2505
4600	64.1525
4584	63.8021
4568	63.818
4552	63.8173
4536	62.9086
4520	63.6889
4504	63.7056
4488	62.8928
4472	62.8695
4456	64.8245
4440	65.9042
4424	61.2133
4408	60.6598
4392	74.2269
4376	66.4244
4360	64.5529
4344	63.1693
4328	63.2667
4312	63.0498
4296	63.4284
4280	63.4716
4264	63.2432
4248	63.4794
4232	63.7522
4216	63.6001
4200	63.9135
4184	63.3123
4168	63.3583
4152	63.8609
4136	64.0293
4120	63.925
4104	64.2109
4088	64.3112
4072	63.8068
4056	64.179
4040	64.168
4024	63.9611
4008	64.1554
3992	64.3251
3976	63.8478
3960	63.8878
3944	64.0034
3928	63.8776
3912	63.8948
3896	64.0553
3880	63.8839
3864	63.948
3848	63.8874
3832	63.8802
3816	63.6245
3800	63.9327
3784	63.4243
3768	63.8693
3752	63.9797
3736	63.9759
3720	63.83
3704	63.9288
3688	63.9124
3672	63.9028
3656	63.6697
3640	63.582
3624	63.7063
3608	63.5426
3592	63.8188
3576	63.5772
3560	63.6364
3544	63.5411
3528	63.4322
3512	63.33
3496	63.4468
3480	63.3856
3464	63.2853
3448	63.2962
3432	63.1895
3416	62.9832
3400	63.0552
3384	63.2
3368	63.028
3352	62.9328
3336	62.8732
3320	62.9578
3304	62.8682
3288	62.6892
3272	62.7963
3256	62.779
3240	62.7366
3224	62.8263
3208	62.8948
3192	62.6615
3176	62.6068
3160	62.807
3144	62.4927
3128	62.4823
3112	62.5955
3096	62.5144
3080	62.4759
3064	62.4934
3048	62.5402
3032	62.3225
3016	62.4135
3000	62.4232
2984	62.1325
2968	61.8025
2952	61.8241
2936	62.0463
2920	61.8286
2904	61.8702
2888	61.8447
2872	61.8981
2856	61.7279
2840	61.9488
2824	61.8555
2808	61.9536
2792	61.6276
2776	61.782
2760	61.6934
2744	61.7336
2728	61.5372
2712	61.5278
2696	61.6266
2680	61.3202
2664	61.1924
2648	61.239
2632	61.1295
2616	61.1643
2600	61.0346
2584	61.0493
2568	60.8708
2552	60.8725
2536	60.8017
2520	60.8768
2504	60.6893
2488	60.6611
2472	60.6902
2456	60.6337
2440	60.5158
2424	60.2862
2408	60.4223
2392	60.3603
2376	60.4142
2360	60.3089
2344	60.0561
2328	60.0877
2312	60.1203
2296	59.9192
2280	59.9235
2264	59.9281
2248	59.8773
2232	59.7294
2216	59.6967
2200	59.5714
2184	59.3502
2168	59.4748
2152	59.4395
2136	59.295
2120	59.088
2104	59.1381
2088	59.1154
2072	58.8297
2056	58.9752
2040	58.8754
2024	58.6951
2008	58.7719
1992	58.6653
1976	58.5076
1960	58.465
1944	58.4902
1928	58.3562
1912	58.3267
1896	58.2243
1880	58.1225
1864	58.1204
1848	57.9677
1832	57.8532
1816	57.796
1800	57.7455
1784	57.7368
1768	57.7129
1752	57.5166
1736	57.4516
1720	57.4992
1704	57.3914
1688	57.3
1672	57.3308
1656	57.416
1640	56.9793
1624	56.8366
1608	56.7075
1592	56.5818
1576	56.6491
1560	56.9493
1544	56.622
1528	56.3101
1512	56.3839
1496	56.0112
1480	56.0369
1464	55.9862
1448	55.8066
1432	55.6772
1416	55.7157
1400	55.4619
1384	55.3237
1368	55.3186
1352	55.3139
1336	55.0052
1320	55.1853
1304	54.8281
1288	54.8394
1272	54.6023
1256	54.6206
1240	54.5451
1224	54.5899
1208	54.3847
1192	54.2273
1176	54.1689
1160	54.0478
1144	54.0213
1128	53.9552
1112	53.8034
1096	53.6024
1080	53.3303
1064	53.5269
1048	53.5121
1032	53.344
1016	53.0125
1000	53.2527
984	 52.999
968	 53.0159
952	 52.7832
936	 52.4906
920	 52.7556
904	 51.6107
888	 51.7468
872	 52.181
856	 51.5924
840	 51.6044
824	 51.782
808	 51.317
792	 50.9682
776	 50.8694
760	 51.0093
744	 50.7568
728	 50.5889
712	 50.2298
696	 49.9781
680	 49.8129
664	 49.56
648	 49.2646
632	 49.019
616	 48.7006
600	 49.1041
584	 48.7201
568	 48.1665
552	 47.2705
536	 47.0967
520	 45.8554
504	 46.0876
488	 45.9735
472	 45.3264
456	 44.7165
440	 45.367
424	 45.0269
408	 46.5848
392	 25.6951
376	 48.8819
370	 33.2792