Folder: Masteroppgave/Bakgrunnsmateriale/MATLAB/FTIR/ftir_data/subBb/Mapping_36 (part 6)

File: C-4040-8_t10.asc
PE IR       SPECTRUM    SPECTRUM    ASCII       PEDS        1.60
  -1
C-A92A~1.ASC
17/05/02
11:37:33.00
17/05/02
11:37:59.00
tln
$C-4040-8_t0010$<tbV0>[-2.5,-8.0,8.0,0.0,22,1,0]
27.028
64

2002,4.07
MIRTGS : RIGHTBACK : INTERNAL 2
MIR : ON : INTERNAL 2
OPTKBR

0.200000
8
8.000000
FILLER
RATIO
SPECTRUM
UNLOCKED 256

DOUBLE
64
COMBINED
1
0
0

0.002000
RATIO

1
0
TRUE
51149
0
LEFT NOT FITTED RIGHT NOT FITTED 0
NONE
NONE
15600
12
4.427000
51148
TRUE
1 0 8 72 0 0 0 0

15798

#HDR
-1
-1
#GR
µM
%T
2.38419e-05
0.0
1.282000
0.002000
12874
8
75.094
32.563
#DATA
1.282000	 67.7793
1.368000	 61.2952
1.454000	 63.0787
1.540000	 64.1464
1.626000	 62.8711
1.712000	 64.5338
1.798000	 64.0327
1.884000	 62.9623
1.970000	 63.9673
2.056000	 63.9187
2.142000	 63.9187
2.228000	 63.1126
2.314000	 63.1675
2.400000	 63.7867
2.486000	 63.5419
2.572000	 63.0107
2.658000	 63.2358
2.744000	 63.0104
2.830000	 62.4168
2.916000	 62.3614
3.002000	 61.9705
3.088000	 61.6702
3.174000	 61.3237
3.260000	 61.0391
3.346000	 60.6709
3.432000	 60.1073
3.518000	 59.9349
3.604000	 59.6762
3.690000	 59.3153
3.776000	 58.9802
3.862000	 58.7523
3.948000	 58.4302
4.034000	 58.0815
4.120000	 57.8569
4.206000	 57.4746
4.292000	 57.1582
4.378000	 56.7719
4.464000	 56.4953
4.550000	 56.1548
4.636000	 55.9545
4.722000	 55.6307
4.808000	 55.2054
4.894000	 54.9985
4.980000	 54.7704
5.066000	 54.5032
5.152000	 54.2534
5.238000	 54.1283
5.324000	 53.8562
5.410000	 53.5891
5.496000	 53.3951
5.582000	 53.1807
5.668000	 52.9666
5.754000	 52.6468
5.840000	 52.542
5.926000	 52.3544
6.012000	 52.1259
6.098000	 51.835
6.184000	 51.6261
6.270000	 51.393
6.356000	 51.2264
6.442000	 51.1354
6.528000	 50.8549
6.614000	 50.8124
6.700000	 50.651
6.786000	 50.393
6.872000	 50.3678
6.958000	 50.2145
7.044000	 50.0157
7.130000	 49.8618
7.216000	 49.7295
7.302000	 49.6361
7.388000	 49.3942
7.474000	 49.3726
7.560000	 49.047
7.646000	 49.0566
7.732000	 48.8685
7.818000	 48.7423
7.904000	 48.4915
7.990000	 48.4859
8.076000	 48.408
8.161999	 48.1558
8.248000	 48.1941
8.334000	 48.1353
8.420000	 47.8171
8.506000	 47.7854
8.592000	 47.7893
8.678000	 47.5404
8.763999	 47.3791
8.850000	 47.3087
8.936000	 47.3147
9.022000	 47.0935
9.108000	 46.9831
9.193999	 47.0085
9.280000	 46.859
9.366000	 46.6078
9.452000	 46.6015
9.538000	 46.7729
9.624000	 46.5825
9.710000	 46.2802
9.795999	 46.3863
9.882000	 46.3407
9.968000	 46.0484
10.054	46.1069
10.14	46.0127
10.226	45.6969
10.312	45.7696
10.398	45.6488
10.484	45.6285
10.57	45.5845
10.656	45.3327
10.742	45.4561
10.828	45.1685
10.914	45.1592
11	44.8925
11.086	44.6605
11.172	44.4326
11.258	44.2956
11.344	44.1264
11.43	44.3916
11.516	44.548
11.602	44.728
11.688	43.8969
11.774	43.7432
11.86	43.8193
11.946	44.0687
12.032	44.3843
12.118	43.9565
12.204	43.6856
12.29	43.7662
12.376	43.7948
12.462	43.8704
12.548	43.8111
12.634	43.625
12.72	43.4368
12.806	43.1288
12.892	43.078
12.978	43.1925
13.064	43.2351
13.15	43.1714
13.236	43.1142
13.322	42.9684
13.408	43.0519
13.494	42.9855
13.58	42.6919
13.666	42.5873
13.752	42.7002
13.838	42.7578
13.924	42.6316
14.01	42.5747
14.096	42.4258
14.182	42.1336
14.268	41.9467
14.354	41.9539
14.44	41.9124
14.526	41.71
14.612	41.5291
14.698	41.4042
14.784	41.2815
14.87	41.227
14.956	41.1215
15.042	40.8655
15.128	40.7779
15.214	40.9209
15.3	40.9678
15.386	40.9402
15.472	40.986
15.558	40.9413
15.644	40.7703
15.73	40.637
15.816	40.488
15.902	40.2331
15.988	39.9938
16.074	39.8926
16.16	39.8715
16.246	39.8087
16.332	39.7561
16.418	39.8619
16.504	40.03
16.59	40.0319
16.676	39.9151
16.762	39.8676
16.848	39.8373
16.934	39.646
17.02	39.3427
17.106	39.1495
17.192	39.1206
17.278	39.1034
17.364	38.9677
17.45	38.7049
17.536	38.3926
17.622	38.1653
17.708	38.1414
17.794	38.3157
17.88	38.5544
17.966	38.704
18.052	38.69
18.138	38.5412
18.224	38.3501
18.31	38.1846
18.396	38.0314
18.482	37.8455
18.568	37.6387
18.654	37.4848
18.74	37.4353
18.826	37.4576
18.912	37.4682
18.998	37.4064
19.084	37.2835
19.17	37.1875
19.256	37.187
19.342	37.2295
19.428	37.1761
19.514	36.949
19.6	36.6091
19.686	36.2902
19.772	36.0795
19.858	35.9798
19.944	35.9446
20.03	35.9111
20.116	35.8293
20.202	35.707
20.288	35.6057
20.374	35.5808
20.46	35.6266
20.546	35.6913
20.632	35.7215
20.718	35.6908
20.804	35.6045
20.89	35.49
20.976	35.3869
21.062	35.3321
21.148	35.3312
21.234	35.34
21.32	35.2799
21.406	35.0934
21.492	34.7942
21.578	34.4768
21.664	34.2737
21.75	34.2745
21.836	34.4679
21.922	34.7375
22.008	34.925
22.094	34.9243
22.18	34.7277
22.266	34.4145
22.352	34.0997
22.438	33.8739
22.524	33.7854
22.61	33.8455
22.696	34.0346
22.782	34.2967
22.868	34.5364
22.954	34.6344
23.04	34.5001
23.126	34.1232
23.212	33.5951
23.298	33.0731
23.384	32.7083
23.47	32.5657
23.556	32.6219
23.642	32.7729
23.728	32.9268
23.814	33.0246
23.9	33.0402
23.986	32.9802
24.072	32.8822
24.158	32.7971
24.244	32.7655
24.33	32.8248
24.416	33.0193
24.502	33.3561
24.588	33.7983
24.674	34.294
24.76	34.8178
24.846	35.34
24.932	35.8932
25.018	36.6125
25.104	37.7567
25.19	39.5315
25.276	41.9578
25.362	44.8598
25.448	47.7183
25.534	49.9224
25.62	50.9693
25.706	50.5554
25.792	48.7295
25.878	46.0169
25.964	43.5406
26.05	42.6741
26.136	44.2822
26.222	48.1091
26.308	52.5858
26.394	55.5589
26.48	55.481
26.566	52.087
26.652	46.7035
26.738	41.4342
26.824	38.3244
26.91	38.378
26.996	42.6936
27.028	44.4899

File: C-4040-8_t10_cm-1.asc
PE IR       SPECTRUM    SPECTRUM    ASCII       PEDS        1.60
  -1
C-1A61~1.ASC
17/05/02
11:37:33.00
17/05/02
11:37:33.00
tln
$C-4040-8_t0010$<tbV0>[-2.5,-8.0,8.0,0.0,22,1,0]
370
64

2002,4.07
MIRTGS : RIGHTBACK : INTERNAL 2
MIR : ON : INTERNAL 2
OPTKBR

0.200000
8
8.000000
FILLER
RATIO
SPECTRUM
UNLOCKED 256

DOUBLE
64
COMBINED
1
0
0

1.000000
RATIO

1
0
TRUE
51149
0
LEFT NOT FITTED RIGHT NOT FITTED 0
NONE
NONE
15600
12
4.427000
51148
TRUE
1 0 8 72 0 0 0 0

15798

#HDR
-1
-1
#GR
CM-1
%T
2.38419e-05
0.0
7800
-1.000000
7431
8
75.0515
32.5642
#DATA
7800	67.7793
7775	65.0168
7750	63.1894
7725	68.7936
7700	65.6042
7675	64.7832
7650	63.652
7625	67.8409
7600	65.2721
7575	65.5829
7550	60.5667
7525	58.8718
7500	62.7059
7475	60.847
7450	62.6061
7425	64.977
7400	64.777
7375	61.6986
7350	60.9322
7325	61.1689
7300	64.3689
7275	64.7451
7250	62.8926
7225	67.0101
7200	61.6883
7175	63.3887
7150	61.3647
7125	64.1407
7100	65.8036
7075	63.9555
7050	64.4368
7025	63.8552
7000	64.927
6975	64.5186
6950	63.3856
6925	65.0032
6900	64.7274
6875	63.0851
6850	64.3725
6825	63.5304
6800	63.717
6775	63.1289
6750	64.0409
6725	62.9478
6700	64.8801
6675	62.989
6650	63.7952
6625	62.4515
6600	65.3714
6575	65.1345
6550	62.5198
6525	65.4909
6500	62.6899
6475	63.8995
6450	64.6563
6425	62.849
6400	63.2298
6375	65.3829
6350	63.6676
6325	63.5333
6300	63.029
6275	64.4539
6250	64.6167
6225	64.9701
6200	64.2847
6175	63.9852
6150	62.865
6125	63.7671
6100	64.2737
6075	63.2372
6050	64.5864
6025	64.5798
6000	64.5673
5975	64.9088
5950	62.4423
5925	62.7856
5900	63.6246
5875	64.1573
5850	64.3574
5825	64.4967
5800	64.6149
5775	63.778
5750	62.9864
5725	63.6168
5700	63.4822
5675	63.804
5650	63.8514
5625	64.2787
5600	64.0178
5575	64.5799
5550	64.3117
5525	63.7274
5500	64.3367
5475	63.7675
5450	63.8354
5425	63.0387
5400	63.7724
5375	64.0115
5350	64.3165
5325	64.6512
5300	64.3572
5275	63.0406
5250	67.2551
5225	62.9089
5200	64.8834
5175	65.1464
5150	62.9886
5125	64.6073
5100	63.9468
5075	63.915
5050	63.7286
5025	63.9729
5000	64.028
4975	63.9965
4950	64.0323
4925	64.2985
4900	63.9359
4875	63.8945
4850	63.5102
4825	64.1566
4800	64.2284
4775	64.2653
4750	64.1456
4725	64.0484
4700	64.1263
4675	63.8598
4650	64.0342
4625	64.037
4600	63.9775
4575	63.8351
4550	64.1421
4525	63.2576
4500	63.2919
4475	63.0784
4450	63.6521
4425	63.4453
4400	67.543
4375	64.2295
4350	63.2432
4325	62.9523
4300	63.0821
4275	63.376
4250	63.5616
4225	63.5173
4200	63.6552
4175	63.2077
4150	63.5478
4125	63.8576
4100	63.7203
4075	63.9057
4050	63.6748
4025	63.4987
4000	63.48
3975	63.5174
3950	63.3518
3925	63.1383
3900	63.34
3875	63.5916
3850	63.1219
3825	63.218
3800	63.4635
3775	63.0199
3750	63.1192
3725	62.9948
3700	62.8693
3675	63.0542
3650	63.0949
3625	62.7988
3600	62.7792
3575	62.7838
3550	62.5332
3525	62.507
3500	62.5154
3475	62.3259
3450	62.3458
3425	62.2806
3400	62.1661
3375	62.1402
3350	62.0602
3325	61.8757
3300	61.8129
3275	61.7372
3250	61.5449
3225	61.5127
3200	61.5521
3175	61.4371
3150	61.3199
3125	61.171
3100	61.1851
3075	60.9545
3050	61.0264
3025	60.9036
3000	60.6996
2975	60.4891
2950	60.3775
2925	60.1155
2900	60.115
2875	59.9819
2850	60.023
2825	59.8899
2800	59.778
2775	59.682
2750	59.5556
2725	59.5144
2700	59.316
2675	59.1054
2650	59.0355
2625	58.7474
2600	58.8298
2575	58.5251
2550	58.3955
2525	58.4135
2500	58.2956
2475	58.0709
2450	57.9306
2425	57.8396
2400	57.5545
2375	57.4458
2350	57.2069
2325	57.0569
2300	56.9298
2275	56.6291
2250	56.5392
2225	56.4267
2200	56.1494
2175	55.9981
2150	55.9703
2125	55.6659
2100	55.5599
2075	55.3003
2050	55.1646
2025	54.8961
2000	54.742
1975	54.5197
1950	54.3206
1925	54.2631
1900	54.1144
1875	53.848
1850	53.5966
1825	53.4499
1800	53.2213
1775	52.9769
1750	52.7751
1725	52.4218
1700	52.4326
1675	52.2087
1650	51.9245
1625	51.7042
1600	51.4509
1575	51.2771
1550	51.1097
1525	50.879
1500	50.706
1475	50.4043
1450	50.269
1425	50.0556
1400	49.8465
1375	49.6877
1350	49.371
1325	49.0896
1300	48.9774
1275	48.7099
1250	48.4608
1225	48.1519
1200	48.1365
1175	47.7808
1150	47.5314
1125	47.306
1100	46.9788
1075	46.8152
1050	46.7439
1025	46.2938
1000	46.0397
975	 45.6961
950	 45.6133
925	 45.1857
900	 44.605
875	 44.3886
850	 43.7201
825	 43.9348
800	 43.8831
775	 43.092
750	 42.9641
725	 42.7574
700	 41.9366
675	 41.2534
650	 40.94
625	 39.9707
600	 39.9263
575	 38.8955
550	 38.4431
525	 37.3384
500	 35.9266
475	 35.3351
450	 34.5814
425	 32.589
400	 36.4346
375	 45.7555
370	 44.4899

File: C-4040-8_t11.asc
PE IR       SPECTRUM    SPECTRUM    ASCII       PEDS        1.60
  -1
C-A92E~1.ASC
17/05/02
11:42:14.00
17/05/02
11:42:40.00
tln
$C-4040-8_t0011$<tbV0>[-7.5,-8.0,8.0,0.0,22,1,0]
27.028
64

2002,4.07
MIRTGS : RIGHTBACK : INTERNAL 2
MIR : ON : INTERNAL 2
OPTKBR

0.200000
8
8.000000
FILLER
RATIO
SPECTRUM
UNLOCKED 256

DOUBLE
64
COMBINED
1
0
0

0.002000
RATIO

1
0
TRUE
51149
0
LEFT NOT FITTED RIGHT NOT FITTED 0
NONE
NONE
15600
12
4.427000
51148
TRUE
1 0 8 72 0 0 0 0

15798

#HDR
-1
-1
#GR
µM
%T
2.38419e-05
0.0
1.282000
0.002000
12874
8
75.4328
19.2993
#DATA
1.282000	 64.5421
1.368000	 66.8678
1.454000	 63.9341
1.540000	 64.239
1.626000	 64.9327
1.712000	 64.5435
1.798000	 64.3886
1.884000	 63.4051
1.970000	 64.2865
2.056000	 64.0497
2.142000	 63.8037
2.228000	 63.6808
2.314000	 63.7833
2.400000	 63.5722
2.486000	 63.1397
2.572000	 62.9709
2.658000	 62.9323
2.744000	 62.3263
2.830000	 61.6708
2.916000	 61.4882
3.002000	 61.0692
3.088000	 60.3593
3.174000	 60.1004
3.260000	 59.7336
3.346000	 59.1435
3.432000	 58.457
3.518000	 58.0193
3.604000	 57.8204
3.690000	 57.4275
3.776000	 56.8048
3.862000	 56.2606
3.948000	 55.9243
4.034000	 55.4822
4.120000	 55.1254
4.206000	 54.4818
4.292000	 54.16
4.378000	 53.7384
4.464000	 53.2085
4.550000	 52.8375
4.636000	 52.6208
4.722000	 52.2013
4.808000	 51.8977
4.894000	 51.488
4.980000	 51.0841
5.066000	 50.6229
5.152000	 50.2783
5.238000	 49.9442
5.324000	 49.6832
5.410000	 49.3271
5.496000	 49.1435
5.582000	 48.873
5.668000	 48.6112
5.754000	 48.1979
5.840000	 47.9435
5.926000	 47.6958
6.012000	 47.4956
6.098000	 47.2939
6.184000	 46.9894
6.270000	 46.7369
6.356000	 46.5232
6.442000	 46.3216
6.528000	 45.951
6.614000	 45.8158
6.700000	 45.6482
6.786000	 45.3633
6.872000	 45.1473
6.958000	 45.0565
7.044000	 44.8527
7.130000	 44.6008
7.216000	 44.4155
7.302000	 44.2022
7.388000	 44.0528
7.474000	 44.0126
7.560000	 43.7768
7.646000	 43.6013
7.732000	 43.3328
7.818000	 43.2618
7.904000	 43.1793
7.990000	 42.9802
8.076000	 42.9175
8.161999	 42.5033
8.248000	 42.4863
8.334000	 42.4074
8.420000	 42.2081
8.506000	 42.0383
8.592000	 41.9428
8.678000	 41.8043
8.763999	 41.6389
8.850000	 41.6434
8.936000	 41.4726
9.022000	 41.1495
9.108000	 41.1412
9.193999	 40.9507
9.280000	 40.7568
9.366000	 40.7421
9.452000	 40.516
9.538000	 40.518
9.624000	 40.4514
9.710000	 40.3215
9.795999	 40.3089
9.882000	 40.1904
9.968000	 40.0857
10.054	39.9774
10.14	39.8412
10.226	39.4246
10.312	39.5351
10.398	39.4454
10.484	39.1533
10.57	39.1494
10.656	38.9403
10.742	38.9025
10.828	39.094
10.914	39.027
11	38.8832
11.086	38.717
11.172	38.2237
11.258	38.0119
11.344	37.764
11.43	37.9985
11.516	38.4723
11.602	37.1017
11.688	36.9223
11.774	37.1284
11.86	37.4608
11.946	38.0075
12.032	37.7591
12.118	37.383
12.204	37.296
12.29	37.0685
12.376	36.9161
12.462	37.2556
12.548	37.2067
12.634	36.8209
12.72	36.7229
12.806	36.6054
12.892	36.5776
12.978	36.6203
13.064	36.494
13.15	36.3445
13.236	36.1347
13.322	35.9579
13.408	35.9136
13.494	35.8312
13.58	35.6915
13.666	35.5484
13.752	35.355
13.838	35.2711
13.924	35.2075
14.01	35.0983
14.096	35.0832
14.182	34.8705
14.268	34.69
14.354	34.7514
14.44	34.7616
14.526	34.7158
14.612	34.5986
14.698	34.3821
14.784	34.2197
14.87	34.0874
14.956	33.9831
15.042	34.0288
15.128	34.0671
15.214	33.941
15.3	33.7715
15.386	33.612
15.472	33.4485
15.558	33.2367
15.644	32.9644
15.73	32.7336
15.816	32.6095
15.902	32.6214
15.988	32.7179
16.074	32.8421
16.16	33.0769
16.246	33.3036
16.332	33.2106
16.418	32.8355
16.504	32.4734
16.59	32.2299
16.676	32.1006
16.762	32.0869
16.848	32.0633
16.934	31.8911
17.02	31.6786
17.106	31.5981
17.192	31.5159
17.278	31.223
17.364	30.8707
17.45	30.7779
17.536	30.9604
17.622	31.1728
17.708	31.2385
17.794	31.1335
17.88	30.923
17.966	30.7142
18.052	30.5857
18.138	30.5186
18.224	30.4304
18.31	30.2827
18.396	30.1271
18.482	30.0431
18.568	30.036
18.654	30.0087
18.74	29.858
18.826	29.592
18.912	29.3297
18.998	29.1761
19.084	29.1473
19.17	29.2086
19.256	29.3042
19.342	29.3385
19.428	29.2178
19.514	28.9437
19.6	28.6214
19.686	28.3777
19.772	28.2804
19.858	28.3406
19.944	28.523
20.03	28.7255
20.116	28.7899
20.202	28.5913
20.288	28.1465
20.374	27.6121
20.46	27.1907
20.546	27.02
20.632	27.1199
20.718	27.403
20.804	27.7118
20.89	27.8785
20.976	27.7996
21.062	27.5026
21.148	27.1496
21.234	26.9434
21.32	26.9894
21.406	27.2164
21.492	27.4254
21.578	27.429
21.664	27.1643
21.75	26.7173
21.836	26.2485
21.922	25.8956
22.008	25.7125
22.094	25.6666
22.18	25.6803
22.266	25.6782
22.352	25.6169
22.438	25.495
22.524	25.347
22.61	25.2113
22.696	25.1097
22.782	25.0537
22.868	25.0466
22.954	25.0948
23.04	25.2097
23.126	25.376
23.212	25.539
23.298	25.6233
23.384	25.5449
23.47	25.2793
23.556	24.905
23.642	24.5678
23.728	24.4601
23.814	24.7283
23.9	25.3976
23.986	26.3289
24.072	27.2499
24.158	27.8182
24.244	27.7579
24.33	26.9489
24.416	25.4765
24.502	23.6107
24.588	21.736
24.674	20.2255
24.76	19.3961
24.846	19.445
24.932	20.4572
25.018	22.3745
25.104	24.9837
25.19	28.017
25.276	31.1725
25.362	34.0626
25.448	36.3658
25.534	37.8729
25.62	38.4901
25.706	38.2923
25.792	37.5764
25.878	36.7294
25.964	35.9844
26.05	35.3029
26.136	34.5286
26.222	33.5962
26.308	32.8019
26.394	32.7154
26.48	33.708
26.566	35.8153
26.652	38.6219
26.738	41.4541
26.824	43.498
26.91	44.2229
26.996	42.3574
27.028	41.4027

File: C-4040-8_t11_cm-1.asc
PE IR       SPECTRUM    SPECTRUM    ASCII       PEDS        1.60
  -1
C-1AE4~1.ASC
17/05/02
11:42:14.00
17/05/02
11:42:14.00
tln
$C-4040-8_t0011$<tbV0>[-7.5,-8.0,8.0,0.0,22,1,0]
370
64

2002,4.07
MIRTGS : RIGHTBACK : INTERNAL 2
MIR : ON : INTERNAL 2
OPTKBR

0.200000
8
8.000000
FILLER
RATIO
SPECTRUM
UNLOCKED 256

DOUBLE
64
COMBINED
1
0
0

1.000000
RATIO

1
0
TRUE
51149
0
LEFT NOT FITTED RIGHT NOT FITTED 0
NONE
NONE
15600
12
4.427000
51148
TRUE
1 0 8 72 0 0 0 0

15798

#HDR
-1
-1
#GR
CM-1
%T
2.38419e-05
0.0
7800
-1.000000
7431
8
76.4695
19.314
#DATA
7800	64.5421
7775	66.1581
7750	65.9117
7725	58.9696
7700	69.7824
7675	71.0702
7650	65.5064
7625	62.5483
7600	61.5861
7575	64.8542
7550	60.978
7525	61.6277
7500	63.4035
7475	58.623
7450	61.2782
7425	64.7295
7400	65.8262
7375	60.7894
7350	61.3558
7325	64.3003
7300	64.988
7275	68.0357
7250	69.4601
7225	65.8693
7200	66.7924
7175	66.7523
7150	62.062
7125	64.1298
7100	63.7181
7075	65.6603
7050	64.3331
7025	62.8293
7000	65.7567
6975	64.4655
6950	65.0345
6925	63.8672
6900	64.1631
6875	63.9106
6850	64.1939
6825	64.6975
6800	62.8342
6775	65.7933
6750	64.2528
6725	65.0177
6700	63.7242
6675	64.2544
6650	61.371
6625	61.8663
6600	64.5013
6575	64.8742
6550	63.7602
6525	64.4067
6500	64.3974
6475	65.4063
6450	63.8968
6425	63.3481
6400	64.2422
6375	65.0121
6350	64.5311
6325	63.4055
6300	64.2693
6275	64.3777
6250	63.5008
6225	63.7734
6200	64.7112
6175	64.7705
6150	64.9259
6125	64.2611
6100	64.9707
6075	63.4437
6050	64.2487
6025	64.5706
6000	64.3238
5975	64.9711
5950	63.6636
5925	64.1622
5900	64.2269
5875	64.276
5850	64.3746
5825	64.1783
5800	64.5139
5775	63.9693
5750	64.0673
5725	63.693
5700	64.4296
5675	64.3736
5650	64.2883
5625	64.1514
5600	64.03
5575	64.5411
5550	64.3714
5525	64.1343
5500	64.6677
5475	64.5627
5450	64.1718
5425	64.4498
5400	63.5557
5375	64.5156
5350	63.4784
5325	64.999
5300	63.9678
5275	66.3074
5250	64.5135
5225	62.7508
5200	64.0702
5175	65.7042
5150	63.1874
5125	64.3011
5100	64.0198
5075	64.2344
5050	64.5595
5025	63.6924
5000	63.9402
4975	64.2367
4950	64.0115
4925	63.9491
4900	64.2963
4875	64.232
4850	63.7519
4825	64.1922
4800	64.0312
4775	63.966
4750	64.2395
4725	63.6514
4700	64.4701
4675	64.3565
4650	64.1074
4625	64.2131
4600	63.8903
4575	64.1739
4550	64.1641
4525	63.9604
4500	64.1714
4475	64.128
4450	64.4705
4425	63.5005
4400	72.7394
4375	64.502
4350	64.5019
4325	63.8588
4300	63.5955
4275	63.8362
4250	63.8132
4225	63.8201
4200	63.2923
4175	63.4827
4150	63.48
4125	63.4071
4100	63.2539
4075	63.2758
4050	63.2572
4025	63.0507
4000	63.0136
3975	63.0764
3950	63.3912
3925	62.9637
3900	63.1524
3875	63.2966
3850	62.8533
3825	62.9691
3800	62.9066
3775	62.5905
3750	62.7015
3725	62.6792
3700	62.5161
3675	62.5231
3650	62.3638
3625	62.2214
3600	62.2959
3575	62.0767
3550	61.7444
3525	61.8004
3500	61.6739
3475	61.4626
3450	61.6488
3425	61.4993
3400	61.2533
3375	61.2622
3350	61.0775
3325	60.9536
3300	60.6549
3275	60.5607
3250	60.6657
3225	60.2593
3200	60.2271
3175	60.1743
3150	60.0859
3125	59.9647
3100	59.7423
3075	59.6647
3050	59.5204
3025	59.3976
3000	59.0615
2975	59.0621
2950	58.7576
2925	58.3976
2900	58.4294
2875	58.2566
2850	58.1879
2825	58.0345
2800	57.9421
2775	57.8282
2750	57.5819
2725	57.3479
2700	57.2398
2675	56.929
2650	56.8286
2625	56.5579
2600	56.3984
2575	56.2713
2550	56.0441
2525	55.7797
2500	55.7164
2475	55.5019
2450	55.1543
2425	55.0946
2400	54.8269
2375	54.4561
2350	54.3626
2325	54.1162
2300	53.9092
2275	53.6781
2250	53.3488
2225	53.1934
2200	52.9038
2175	52.6207
2150	52.502
2125	52.2239
2100	51.91
2075	51.883
2050	51.4936
2025	51.118
2000	50.9582
1975	50.6392
1950	50.4066
1925	50.2721
1900	49.928
1875	49.6628
1850	49.3351
1825	49.2308
1800	48.9703
1775	48.6258
1750	48.3223
1725	47.9487
1700	47.9192
1675	47.5831
1650	47.317
1625	46.9894
1600	46.8437
1575	46.5752
1550	46.224
1525	45.9101
1500	45.7257
1475	45.385
1450	44.9119
1425	44.7209
1400	44.6306
1375	44.3093
1350	43.9988
1325	43.856
1300	43.4313
1275	43.2385
1250	42.9337
1225	42.5007
1200	42.4078
1175	42.0442
1150	41.8264
1125	41.5446
1100	41.1251
1075	40.7594
1050	40.5211
1025	40.2707
1000	40.0048
975	 39.4757
950	 39.0714
925	 39.1031
900	 38.6252
875	 37.9848
850	 37.1197
825	 37.377
800	 37.3237
775	 36.5908
750	 35.9461
725	 35.2943
700	 34.6911
675	 34.1744
650	 33.6145
625	 32.7327
600	 32.1083
575	 30.8038
550	 30.4808
525	 29.146
500	 28.6616
475	 27.541
450	 25.685
425	 25.0253
400	 21.9085
375	 39.1163
370	 41.4027

File: C-4040-8_t12.asc
PE IR       SPECTRUM    SPECTRUM    ASCII       PEDS        1.60
  -1
C-A922~1.ASC
17/05/02
11:46:56.00
17/05/02
11:47:22.00
tln
$C-4040-8_t0012$<tbV0>[-12.5,-8.0,8.0,0.0,22,1,0]
27.028
64

2002,4.07
MIRTGS : RIGHTBACK : INTERNAL 2
MIR : ON : INTERNAL 2
OPTKBR

0.200000
8
8.000000
FILLER
RATIO
SPECTRUM
UNLOCKED 256

DOUBLE
64
COMBINED
1
0
0

0.002000
RATIO

1
0
TRUE
51149
0
LEFT NOT FITTED RIGHT NOT FITTED 0
NONE
NONE
15600
12
4.427000
51148
TRUE
1 0 8 72 0 0 0 0

15798

#HDR
-1
-1
#GR
µM
%T
2.38419e-05
0.0
1.282000
0.002000
12874
8
79.1557
42.5175
#DATA
1.282000	 69.2177
1.368000	 67.8199
1.454000	 64.0325
1.540000	 65.0162
1.626000	 64.0596
1.712000	 65.5583
1.798000	 65.4696
1.884000	 64.5821
1.970000	 65.0944
2.056000	 65.2212
2.142000	 64.9347
2.228000	 64.9892
2.314000	 65.933
2.400000	 65.4691
2.486000	 65.1581
2.572000	 65.3175
2.658000	 65.4229
2.744000	 65.3166
2.830000	 65.1183
2.916000	 65.5094
3.002000	 65.3673
3.088000	 65.2798
3.174000	 65.4912
3.260000	 65.395
3.346000	 65.4709
3.432000	 65.0399
3.518000	 65.2499
3.604000	 65.3588
3.690000	 65.4128
3.776000	 65.2374
3.862000	 65.2395
3.948000	 65.4507
4.034000	 65.334
4.120000	 65.3066
4.206000	 65.4243
4.292000	 65.2808
4.378000	 65.3569
4.464000	 65.4514
4.550000	 65.3722
4.636000	 65.3713
4.722000	 65.3482
4.808000	 65.4074
4.894000	 65.3241
4.980000	 65.4602
5.066000	 65.3944
5.152000	 65.3983
5.238000	 65.3004
5.324000	 65.417
5.410000	 65.3988
5.496000	 65.4557
5.582000	 65.4181
5.668000	 65.2972
5.754000	 65.1906
5.840000	 65.2306
5.926000	 65.3436
6.012000	 65.2469
6.098000	 65.1971
6.184000	 65.3795
6.270000	 65.2101
6.356000	 65.0739
6.442000	 65.1175
6.528000	 65.0963
6.614000	 65.1817
6.700000	 65.2726
6.786000	 65.0236
6.872000	 65.2457
6.958000	 65.1641
7.044000	 65.1791
7.130000	 65.1097
7.216000	 65.0531
7.302000	 65.0995
7.388000	 65.248
7.474000	 65.0764
7.560000	 65.0339
7.646000	 65.0572
7.732000	 65.1016
7.818000	 64.984
7.904000	 64.9919
7.990000	 65.0189
8.076000	 65.0454
8.161999	 65.0307
8.248000	 65.0325
8.334000	 65.0779
8.420000	 64.9919
8.506000	 64.9456
8.592000	 64.9818
8.678000	 64.8756
8.763999	 64.7854
8.850000	 64.8848
8.936000	 64.8845
9.022000	 64.9364
9.108000	 65.0978
9.193999	 64.7597
9.280000	 64.9556
9.366000	 64.8929
9.452000	 64.865
9.538000	 65.0068
9.624000	 64.9131
9.710000	 64.9143
9.795999	 64.7324
9.882000	 64.8873
9.968000	 64.8442
10.054	64.848
10.14	64.7199
10.226	64.5424
10.312	64.885
10.398	64.868
10.484	64.6866
10.57	64.8421
10.656	64.4983
10.742	64.6948
10.828	64.7903
10.914	64.8167
11	64.6903
11.086	64.6146
11.172	64.6166
11.258	64.6396
11.344	64.6447
11.43	64.7126
11.516	63.9846
11.602	64.0061
11.688	64.2084
11.774	64.8252
11.86	64.2668
11.946	64.4445
12.032	64.424
12.118	64.0058
12.204	64.2422
12.29	64.4164
12.376	64.0364
12.462	64.2771
12.548	64.3923
12.634	64.2958
12.72	64.2096
12.806	64.1937
12.892	64.3312
12.978	64.2922
13.064	64.087
13.15	63.9654
13.236	63.9659
13.322	63.8189
13.408	63.7221
13.494	64.0134
13.58	64.3468
13.666	64.1848
13.752	63.8087
13.838	63.6219
13.924	63.6703
14.01	63.7645
14.096	63.6857
14.182	63.4617
14.268	63.4
14.354	63.5712
14.44	63.5798
14.526	63.4414
14.612	63.3622
14.698	63.2523
14.784	63.1245
14.87	63.1162
14.956	63.1616
15.042	63.1995
15.128	63.2741
15.214	63.3625
15.3	63.4262
15.386	63.4655
15.472	63.4499
15.558	63.264
15.644	63.0814
15.73	63.1751
15.816	63.2938
15.902	63.1735
15.988	62.9327
16.074	62.6868
16.16	62.56
16.246	62.6518
16.332	62.7948
16.418	62.7995
16.504	62.7025
16.59	62.6051
16.676	62.5507
16.762	62.5429
16.848	62.6339
16.934	62.8423
17.02	63.0065
17.106	62.9326
17.192	62.6386
17.278	62.3853
17.364	62.3634
17.45	62.4285
17.536	62.3526
17.622	62.1891
17.708	62.1444
17.794	62.2394
17.88	62.3183
17.966	62.3167
18.052	62.3059
18.138	62.3163
18.224	62.2714
18.31	62.1107
18.396	61.8684
18.482	61.6468
18.568	61.5194
18.654	61.4542
18.74	61.3574
18.826	61.1864
18.912	61.0032
18.998	60.923
19.084	61.01
19.17	61.2039
19.256	61.3561
19.342	61.3603
19.428	61.2674
19.514	61.2207
19.6	61.264
19.686	61.2889
19.772	61.1899
19.858	60.9997
19.944	60.841
20.03	60.7875
20.116	60.8135
20.202	60.8621
20.288	60.9171
20.374	60.9966
20.46	61.0975
20.546	61.1792
20.632	61.1996
20.718	61.1523
20.804	61.0568
20.89	60.9365
20.976	60.8189
21.062	60.7405
21.148	60.7186
21.234	60.7175
21.32	60.6621
21.406	60.4919
21.492	60.2222
21.578	59.9321
21.664	59.7095
21.75	59.5862
21.836	59.5304
21.922	59.4872
22.008	59.426
22.094	59.3639
22.18	59.3491
22.266	59.426
22.352	59.5918
22.438	59.7747
22.524	59.8646
22.61	59.7582
22.696	59.4143
22.782	58.8806
22.868	58.2616
22.954	57.6577
23.04	57.1244
23.126	56.6813
23.212	56.35
23.298	56.1819
23.384	56.2192
23.47	56.4433
23.556	56.7683
23.642	57.0684
23.728	57.2667
23.814	57.362
23.9	57.4054
23.986	57.4434
24.072	57.4422
24.158	57.2676
24.244	56.786
24.33	55.9658
24.416	54.9222
24.502	53.8675
24.588	53.0498
24.674	52.6665
24.76	52.8408
24.846	53.5851
24.932	54.8215
25.018	56.4122
25.104	58.1966
25.19	60.0409
25.276	61.8953
25.362	63.7933
25.448	65.6996
25.534	67.4817
25.62	68.9013
25.706	69.5986
25.792	69.247
25.878	67.7346
25.964	65.3335
26.05	62.7044
26.136	60.623
26.222	59.7155
26.308	60.1825
26.394	61.7289
26.48	63.7304
26.566	65.445
26.652	66.3239
26.738	66.082
26.824	64.8271
26.91	62.8966
26.996	61.1186
27.028	60.7284