Folder: Masteroppgave/Bakgrunnsmateriale/MATLAB/FTIR/ftir_data/subBb/Mapping_121 (part 38)

File: C-4040-8_t86_cm-1.asc
PE IR       SPECTRUM    SPECTRUM    ASCII       PEDS        1.60
  -1
C-9D6E~1.ASC
17/03/27
21:31:06.00
17/03/27
21:31:06.00
tln
$C-4040-8_t0086$<tbV0>[-7.8,5.2,8.0,0.0,27,1,0]
370
64

2002,4.07
MIRTGS : RIGHTBACK : INTERNAL 2
MIR : ON : INTERNAL 2
OPTKBR

0.200000
8
8.000000
FILLER
RATIO
SPECTRUM
UNLOCKED 256

DOUBLE
64
COMBINED
1
0
0

1.000000
RATIO

1
0
TRUE
51149
0
LEFT NOT FITTED RIGHT NOT FITTED 0
NONE
NONE
15600
12
4.427000
51148
TRUE
1 0 8 72 0 0 0 0

15798

#HDR
-1
-1
#GR
CM-1
%T
2.38419e-05
0.0
5000
-1.000000
4631
8
116.934
-4.198217
#DATA
5000	64.5016
4984	65.0464
4968	64.4185
4952	64.8567
4936	64.2833
4920	64.9266
4904	64.468
4888	64.4591
4872	65.0281
4856	65.0012
4840	65.0852
4824	65.252
4808	65.0675
4792	64.8811
4776	65.3608
4760	65.3857
4744	65.573
4728	65.2174
4712	65.2953
4696	65.5279
4680	65.6265
4664	65.1025
4648	65.4766
4632	65.3212
4616	65.0105
4600	64.5934
4584	65.0396
4568	64.7395
4552	64.4531
4536	64.9281
4520	64.6183
4504	64.4068
4488	64.0706
4472	64.2847
4456	64.2462
4440	64.0589
4424	64.1623
4408	62.4386
4392	63.5258
4376	77.288
4360	64.1936
4344	64.3637
4328	64.4256
4312	64.488
4296	64.6734
4280	64.1322
4264	64.5606
4248	64.3034
4232	64.4756
4216	64.8912
4200	64.6278
4184	65.5267
4168	65.3002
4152	65.106
4136	64.6533
4120	65.4469
4104	65.1053
4088	65.2172
4072	65.4499
4056	65.1319
4040	65.3137
4024	65.5786
4008	65.4083
3992	65.3031
3976	65.3305
3960	65.389
3944	65.3151
3928	65.3342
3912	65.2724
3896	64.9695
3880	65.2277
3864	65.0834
3848	65.1506
3832	65.269
3816	65.2623
3800	65.1586
3784	65.1392
3768	65.0444
3752	65.1607
3736	65.2013
3720	65.4572
3704	65.3253
3688	65.3142
3672	65.1983
3656	65.3198
3640	65.2132
3624	65.5052
3608	65.1641
3592	65.3805
3576	65.4438
3560	65.5069
3544	65.3147
3528	65.2634
3512	65.34
3496	65.1453
3480	65.2563
3464	65.4261
3448	65.45
3432	65.3384
3416	65.395
3400	64.9009
3384	65.4112
3368	65.1029
3352	65.2503
3336	65.4493
3320	65.2095
3304	65.4089
3288	65.1975
3272	65.2189
3256	65.4211
3240	65.2593
3224	65.1834
3208	65.3679
3192	65.2421
3176	65.3999
3160	65.6522
3144	65.5285
3128	65.4923
3112	65.6744
3096	65.2574
3080	65.227
3064	65.4415
3048	65.3842
3032	65.4493
3016	65.2124
3000	65.2092
2984	65.2079
2968	65.0753
2952	65.1642
2936	65.2088
2920	64.9448
2904	65.2114
2888	65.1806
2872	65.2014
2856	65.328
2840	65.1488
2824	65.3695
2808	65.2954
2792	65.2487
2776	65.3973
2760	65.4648
2744	65.5456
2728	65.3966
2712	65.4382
2696	65.3717
2680	65.5046
2664	65.4597
2648	65.3911
2632	65.4037
2616	65.4006
2600	65.3494
2584	65.4785
2568	65.3178
2552	65.3463
2536	65.4015
2520	65.4263
2504	65.1717
2488	65.2138
2472	65.3527
2456	65.3273
2440	65.3581
2424	65.2438
2408	65.3996
2392	65.4373
2376	65.4348
2360	65.3339
2344	65.3662
2328	65.4317
2312	65.4989
2296	65.3428
2280	65.3287
2264	65.4574
2248	65.4157
2232	65.4977
2216	65.4104
2200	65.5175
2184	65.2977
2168	65.4563
2152	65.1294
2136	65.4302
2120	65.3622
2104	65.4985
2088	65.3297
2072	65.6078
2056	65.1497
2040	65.3784
2024	65.5187
2008	65.3419
1992	65.2636
1976	65.4233
1960	65.3298
1944	65.3562
1928	65.4037
1912	65.4033
1896	65.4717
1880	65.361
1864	65.402
1848	65.3286
1832	65.4216
1816	65.5264
1800	65.4809
1784	65.4935
1768	65.3238
1752	65.4222
1736	65.2731
1720	65.4035
1704	65.2716
1688	65.4078
1672	65.2549
1656	65.3244
1640	65.2585
1624	65.182
1608	65.1521
1592	65.0692
1576	65.1845
1560	65.0267
1544	65.0556
1528	65.0684
1512	65.1839
1496	65.1752
1480	65.2006
1464	65.0647
1448	64.8283
1432	65.2112
1416	65.1927
1400	65.2445
1384	65.1823
1368	65.1399
1352	65.0964
1336	65.2894
1320	65.1148
1304	65.0253
1288	65.0589
1272	65.0325
1256	65.0139
1240	64.9925
1224	65.0789
1208	65.1943
1192	64.8975
1176	64.8443
1160	64.9246
1144	64.7667
1128	64.7935
1112	64.8407
1096	64.5962
1080	65.26
1064	64.7873
1048	64.4549
1032	64.7429
1016	64.4284
1000	64.9353
984	 64.8815
968	 64.8121
952	 64.7837
936	 64.9424
920	 65.3053
904	 65.9439
888	 64.752
872	 64.9504
856	 64.2862
840	 64.791
824	 64.6803
808	 64.0427
792	 64.3862
776	 63.8662
760	 63.8997
744	 64.8049
728	 63.9915
712	 63.8477
696	 63.7281
680	 63.4127
664	 63.1679
648	 63.2621
632	 62.6625
616	 62.6415
600	 63.7767
584	 62.9052
568	 62.1658
552	 62.1749
536	 62.003
520	 61.858
504	 61.6912
488	 61.0236
472	 59.9593
456	 60.5557
440	 59.1347
424	 58.6664
408	 55.393
392	 64.5441
376	 50.8477
370	 -4.198217

File: C-4040-8_t87.asc
PE IR       SPECTRUM    SPECTRUM    ASCII       PEDS        1.60
  -1
C-B546~1.ASC
17/03/27
21:35:42.00
17/03/27
21:36:09.00
tln
$C-4040-8_t0087$<tbV0>[-10.4,5.2,8.0,0.0,27,1,0]
27.028
64

2002,4.07
MIRTGS : RIGHTBACK : INTERNAL 2
MIR : ON : INTERNAL 2
OPTKBR

0.200000
8
8.000000
FILLER
RATIO
SPECTRUM
UNLOCKED 256

DOUBLE
64
COMBINED
1
0
0

0.002000
RATIO

1
0
TRUE
51149
0
LEFT NOT FITTED RIGHT NOT FITTED 0
NONE
NONE
15600
12
4.427000
51148
TRUE
1 0 8 72 0 0 0 0

15798

#HDR
-1
-1
#GR
µM
%T
2.38419e-05
0.0
2.000000
0.002000
12515
8
92.2376
32.2468
#DATA
2.000000	 65.4676
2.084000	 65.3068
2.168000	 65.0546
2.252000	 63.8389
2.336000	 64.5555
2.420000	 65.1398
2.504000	 65.2696
2.588000	 65.2579
2.672000	 65.1867
2.756000	 65.4449
2.840000	 65.4331
2.924000	 65.1426
3.008000	 65.0244
3.092000	 65.172
3.176000	 65.2104
3.260000	 65.1666
3.344000	 65.0572
3.428000	 64.4963
3.512000	 65.0617
3.596000	 65.2329
3.680000	 65.3918
3.764000	 65.2956
3.848000	 65.1633
3.932000	 65.1063
4.016000	 65.1245
4.100000	 65.1289
4.184000	 65.3273
4.268000	 65.2762
4.352000	 65.2149
4.436000	 65.1793
4.520000	 65.2048
4.604000	 65.2252
4.688000	 65.0325
4.772000	 65.1701
4.856000	 65.0713
4.940000	 65.0944
5.024000	 65.2735
5.108000	 65.1887
5.192000	 65.356
5.276000	 65.3107
5.359999	 65.3647
5.444000	 65.2427
5.528000	 65.2643
5.612000	 65.2344
5.696000	 65.3336
5.780000	 65.0783
5.864000	 64.9059
5.948000	 65.2749
6.032000	 65.354
6.116000	 65.1657
6.200000	 65.1628
6.284000	 64.9879
6.368000	 65.0588
6.452000	 64.9881
6.536000	 65.0628
6.620000	 65.0626
6.704000	 64.9467
6.788000	 65.0639
6.872000	 65.1616
6.956000	 64.7905
7.040000	 65.0419
7.124000	 65.1429
7.208000	 65.0123
7.292000	 65.0511
7.376000	 64.9104
7.460000	 65.1389
7.544000	 64.8736
7.628000	 64.8427
7.712000	 65.0282
7.796000	 65.0702
7.880000	 64.7985
7.964000	 64.9698
8.048000	 64.8599
8.132000	 64.8022
8.216000	 64.8446
8.300000	 65.0058
8.384000	 64.6359
8.468000	 64.8512
8.552000	 64.6871
8.635999	 64.5999
8.719999	 64.6846
8.804000	 64.6728
8.888000	 64.6518
8.972000	 64.9683
9.056000	 65.1663
9.140000	 64.7261
9.224000	 64.4971
9.308000	 64.735
9.391999	 64.6502
9.475999	 64.8514
9.560000	 64.9001
9.644000	 64.6571
9.728000	 64.6216
9.812000	 64.8552
9.896000	 65.0743
9.980000	 64.9304
10.064	64.6107
10.148	64.5119
10.232	64.3508
10.316	64.4703
10.4	64.6204
10.484	65.0007
10.568	64.9547
10.652	64.775
10.736	64.3658
10.82	64.9372
10.904	64.7982
10.988	64.4812
11.072	64.1288
11.156	64.5997
11.24	64.649
11.324	64.4634
11.408	64.3243
11.492	64.1836
11.576	64.2283
11.66	64.0307
11.744	64.0139
11.828	64.3316
11.912	64.2026
11.996	64.3726
12.08	64.3354
12.164	64.2362
12.248	64.1118
12.332	63.8221
12.416	64.1659
12.5	64.2418
12.584	63.7902
12.668	63.857
12.752	64.2414
12.836	64.1464
12.92	64.1033
13.004	64.007
13.088	63.9273
13.172	64.2062
13.256	64.0022
13.34	63.1067
13.424	62.8488
13.508	63.1874
13.592	63.6473
13.676	63.9539
13.76	63.9199
13.844	63.9932
13.928	63.9781
14.012	63.6441
14.096	63.4028
14.18	63.2339
14.264	63.4439
14.348	63.872
14.432	63.9319
14.516	63.6181
14.6	63.2294
14.684	63.1778
14.768	63.2266
14.852	63.1407
14.936	63.2242
15.02	63.39
15.104	63.4886
15.188	63.5593
15.272	63.4873
15.356	63.2643
15.44	63.0025
15.524	62.8247
15.608	62.8681
15.692	63.0318
15.776	63.1404
15.86	63.2834
15.944	63.4644
16.028	63.4567
16.112	63.1879
16.196	62.7639
16.28	62.2905
16.364	61.9662
16.448	62.0643
16.532	62.5471
16.616	62.9656
16.7	62.9789
16.784	62.7722
16.868	62.7051
16.952	62.7813
17.036	62.7833
17.12	62.729
17.204	62.7865
17.288	62.8497
17.372	62.6638
17.456	62.2755
17.54	61.9954
17.624	62.0012
17.708	62.1827
17.792	62.308
17.876	62.2183
17.96	61.954
18.044	61.7309
18.128	61.7333
18.212	61.8986
18.296	62.0154
18.38	62.0069
18.464	61.9826
18.548	62.0122
18.632	62.0067
18.716	61.8883
18.8	61.7331
18.884	61.6519
18.968	61.6255
19.052	61.5698
19.136	61.5025
19.22	61.5169
19.304	61.6019
19.388	61.6104
19.472	61.4443
19.556	61.1741
19.64	60.9566
19.724	60.8754
19.808	60.9063
19.892	60.9773
19.976	61.0229
20.06	60.9855
20.144	60.8208
20.228	60.529
20.312	60.1744
20.396	59.8497
20.48	59.6413
20.564	59.6059
20.648	59.7747
20.732	60.1385
20.816	60.6275
20.9	61.1164
20.984	61.4788
21.068	61.6565
21.152	61.6875
21.236	61.6631
21.32	61.6402
21.404	61.5913
21.488	61.4158
21.572	61.0333
21.656	60.4586
21.74	59.823
21.824	59.3161
21.908	59.0735
21.992	59.0985
22.076	59.2675
22.16	59.3997
22.244	59.3726
22.328	59.1739
22.412	58.9195
22.496	58.7558
22.58	58.7825
22.664	59.0211
22.748	59.4089
22.832	59.8696
22.916	60.3588
23	60.8431
23.084	61.3007
23.168	61.6768
23.252	61.8979
23.336	61.9251
23.42	61.7669
23.504	61.4721
23.588	61.0629
23.672	60.4587
23.756	59.4443
23.84	57.8276
23.924	55.5406
24.008	52.75
24.092	49.8958
24.176	47.5682
24.26	46.3077
24.344	46.472
24.428	48.0793
24.512	50.8029
24.596	54.1332
24.68	57.5512
24.764	60.6659
24.848	63.2978
24.932	65.3605
25.016	66.7351
25.1	67.1914
25.184	66.3545
25.268	63.8951
25.352	59.7373
25.436	54.1772
25.52	47.8983
25.604	41.7651
25.688	36.7142
25.772	33.4497
25.856	32.2539
25.94	32.9734
26.024	35.142
26.108	38.1829
26.192	41.6081
26.276	45.0988
26.36	48.5106
26.444	51.6209
26.528	54.0535
26.612	55.5128
26.696	55.7202
26.78	54.4781
26.864	51.8503
26.948	48.2413
27.028	44.6348

File: C-4040-8_t87_cm-1.asc
PE IR       SPECTRUM    SPECTRUM    ASCII       PEDS        1.60
  -1
C-9DEF~1.ASC
17/03/27
21:35:42.00
17/03/27
21:35:42.00
tln
$C-4040-8_t0087$<tbV0>[-10.4,5.2,8.0,0.0,27,1,0]
370
64

2002,4.07
MIRTGS : RIGHTBACK : INTERNAL 2
MIR : ON : INTERNAL 2
OPTKBR

0.200000
8
8.000000
FILLER
RATIO
SPECTRUM
UNLOCKED 256

DOUBLE
64
COMBINED
1
0
0

1.000000
RATIO

1
0
TRUE
51149
0
LEFT NOT FITTED RIGHT NOT FITTED 0
NONE
NONE
15600
12
4.427000
51148
TRUE
1 0 8 72 0 0 0 0

15798

#HDR
-1
-1
#GR
CM-1
%T
2.38419e-05
0.0
5000
-1.000000
4631
8
92.1895
32.3265
#DATA
5000	65.4676
4984	64.4895
4968	65.2988
4952	65.2534
4936	64.6991
4920	64.889
4904	65.287
4888	64.5839
4872	64.6949
4856	64.9949
4840	64.6264
4824	65.4322
4808	65.4862
4792	65.1205
4776	65.2644
4760	65.3278
4744	65.6162
4728	65.3054
4712	65.494
4696	65.1187
4680	65.352
4664	65.6251
4648	65.1593
4632	65.1124
4616	65.069
4600	64.8204
4584	64.8171
4568	64.2477
4552	65.1065
4536	65.0453
4520	63.8863
4504	64.6592
4488	64.1612
4472	63.9549
4456	63.8492
4440	63.8218
4424	63.561
4408	62.9822
4392	62.8425
4376	71.6063
4360	63.9239
4344	64.3286
4328	64.5606
4312	64.7511
4296	64.6677
4280	64.5997
4264	64.8307
4248	64.6181
4232	64.2729
4216	64.7305
4200	64.7558
4184	65.0561
4168	64.9126
4152	65.2722
4136	65.3834
4120	65.1035
4104	64.8154
4088	65.2241
4072	64.9277
4056	65.0146
4040	65.2901
4024	65.1969
4008	65.3723
3992	65.2463
3976	65.4641
3960	65.2664
3944	64.9875
3928	65.2585
3912	65.0256
3896	65.0309
3880	64.9317
3864	65.2583
3848	65.1475
3832	65.2143
3816	65.1231
3800	64.9485
3784	65.0693
3768	65.1412
3752	65.3116
3736	65.1334
3720	65.3536
3704	65.1437
3688	65.1968
3672	65.3829
3656	65.3052
3640	65.3473
3624	65.4792
3608	65.076
3592	65.1716
3576	65.3594
3560	65.3695
3544	65.1839
3528	65.3437
3512	65.1656
3496	65.0422
3480	65.3367
3464	65.1585
3448	65.3364
3432	65.2005
3416	65.2631
3400	64.8948
3384	65.5456
3368	65.0131
3352	65.3257
3336	65.1456
3320	65.0301
3304	65.3393
3288	65.0665
3272	65.3638
3256	65.15
3240	65.0993
3224	65.1847
3208	65.1351
3192	65.3209
3176	64.9216
3160	64.9361
3144	65.3625
3128	65.0074
3112	64.8562
3096	65.112
3080	65.0486
3064	65.1365
3048	65.0941
3032	65.1974
3016	65.1989
3000	65.0787
2984	65.1678
2968	64.9649
2952	64.9327
2936	64.958
2920	64.5123
2904	65.0061
2888	65.1478
2872	65.0458
2856	64.9828
2840	65.1417
2824	65.1884
2808	65.1546
2792	65.2045
2776	65.3111
2760	65.132
2744	65.1981
2728	65.2845
2712	65.3414
2696	65.2637
2680	65.2204
2664	65.2262
2648	65.1798
2632	65.2434
2616	65.2252
2600	65.1781
2584	65.2136
2568	65.1455
2552	65.2743
2536	65.222
2520	65.3862
2504	65.0938
2488	65.2021
2472	65.2048
2456	65.1927
2440	65.134
2424	64.9616
2408	65.3855
2392	65.2885
2376	65.4117
2360	65.182
2344	65.2786
2328	65.3884
2312	65.2039
2296	65.192
2280	65.252
2264	65.1919
2248	65.211
2232	65.2216
2216	65.1524
2200	65.2527
2184	65.2594
2168	65.1489
2152	65.1474
2136	64.9679
2120	65.1692
2104	65.2501
2088	65.3167
2072	65.3428
2056	64.8933
2040	65.2723
2024	65.0951
2008	65.2602
1992	65.3147
1976	65.1646
1960	65.199
1944	65.3383
1928	65.3243
1912	65.2589
1896	65.2998
1880	65.2545
1864	65.3517
1848	65.1951
1832	65.2609
1816	65.2935
1800	65.2519
1784	65.3121
1768	65.1779
1752	65.3356
1736	65.0302
1720	64.9193
1704	64.9764
1688	65.381
1672	65.2871
1656	65.3033
1640	65.1476
1624	65.2302
1608	65.1398
1592	64.9945
1576	64.9442
1560	64.9068
1544	65.0812
1528	65.0542
1512	65.0169
1496	64.9934
1480	64.9967
1464	64.953
1448	64.5041
1432	64.9067
1416	65.1009
1400	65.0851
1384	64.9956
1368	64.8808
1352	64.982
1336	65.0684
1320	64.9064
1304	64.9656
1288	64.8771
1272	64.9059
1256	64.9726
1240	64.8575
1224	64.7996
1208	65.0291
1192	64.6448
1176	64.8201
1160	64.5545
1144	64.6965
1128	64.6371
1112	65.0314
1096	64.8221
1080	64.6807
1064	64.6774
1048	64.8915
1032	64.5731
1016	65.0823
1000	64.8839
984	 64.4253
968	 64.4747
952	 64.9367
936	 64.5284
920	 64.8894
904	 64.1359
888	 64.5532
872	 64.2038
856	 63.9786
840	 64.2058
824	 64.2467
808	 63.9508
792	 63.7044
776	 64.1157
760	 64.1509
744	 62.8893
728	 63.9422
712	 63.5352
696	 63.9281
680	 63.2037
664	 63.4414
648	 63.026
632	 63.2075
616	 62.5496
600	 63.0213
584	 62.7287
568	 61.9775
552	 61.7187
536	 61.9833
520	 61.5259
504	 60.9336
488	 59.6249
472	 61.679
456	 59.057
440	 59.304
424	 61.0807
408	 50.7226
392	 48.6353
376	 55.3223
370	 44.6348

File: C-4040-8_t88.asc
PE IR       SPECTRUM    SPECTRUM    ASCII       PEDS        1.60
  -1
C-C54A~1.ASC
17/03/27
21:40:19.00
17/03/27
21:40:45.00
tln
$C-4040-8_t0088$<tbV0>[-13.0,5.2,8.0,0.0,27,1,0]
27.028
64

2002,4.07
MIRTGS : RIGHTBACK : INTERNAL 2
MIR : ON : INTERNAL 2
OPTKBR

0.200000
8
8.000000
FILLER
RATIO
SPECTRUM
UNLOCKED 256

DOUBLE
64
COMBINED
1
0
0

0.002000
RATIO

1
0
TRUE
51149
0
LEFT NOT FITTED RIGHT NOT FITTED 0
NONE
NONE
15600
12
4.427000
51148
TRUE
1 0 8 72 0 0 0 0

15798

#HDR
-1
-1
#GR
µM
%T
2.38419e-05
0.0
2.000000
0.002000
12515
8
122.674
39.4678
#DATA
2.000000	 64.3538
2.084000	 64.9416
2.168000	 65.0631
2.252000	 63.0634
2.336000	 63.5952
2.420000	 65.0263
2.504000	 65.0708
2.588000	 65.0448
2.672000	 65.07
2.756000	 65.1798
2.840000	 65.1572
2.924000	 65.3367
3.008000	 65.1015
3.092000	 65.0983
3.176000	 65.331
3.260000	 65.2472
3.344000	 65.0396
3.428000	 64.6316
3.512000	 65.1137
3.596000	 65.3712
3.680000	 65.481
3.764000	 65.2612
3.848000	 65.2504
3.932000	 65.1747
4.016000	 65.2576
4.100000	 65.3349
4.184000	 65.3896
4.268000	 65.3422
4.352000	 65.3241
4.436000	 65.2977
4.520000	 65.3771
4.604000	 65.2274
4.688000	 65.2217
4.772000	 65.255
4.856000	 65.3342
4.940000	 65.4175
5.024000	 65.2998
5.108000	 65.2686
5.192000	 65.3785
5.276000	 65.2989
5.359999	 65.3296
5.444000	 65.363
5.528000	 65.3591
5.612000	 65.2721
5.696000	 65.2421
5.780000	 65.1867
5.864000	 65.1011
5.948000	 65.3509
6.032000	 65.1344
6.116000	 65.0796
6.200000	 65.1191
6.284000	 65.0905
6.368000	 65.1072
6.452000	 64.9759
6.536000	 65.0777
6.620000	 65.0827
6.704000	 65.2536
6.788000	 65.0355
6.872000	 65.1778
6.956000	 65.1994
7.040000	 65.1769
7.124000	 65.2856
7.208000	 65.1386
7.292000	 65.1753
7.376000	 65.0564
7.460000	 65.2398
7.544000	 64.9847
7.628000	 65.0064
7.712000	 64.9652
7.796000	 65.0139
7.880000	 65.0391
7.964000	 64.9424
8.048000	 65.088
8.132000	 64.9165
8.216000	 64.9006
8.300000	 65.087
8.384000	 64.8364
8.468000	 64.9065
8.552000	 64.7668
8.635999	 64.8989
8.719999	 64.7575
8.804000	 64.9564
8.888000	 64.938
8.972000	 65.0464
9.056000	 65.1951
9.140000	 64.7939
9.224000	 64.9013
9.308000	 64.9204
9.391999	 64.9726
9.475999	 64.8851
9.560000	 64.7607
9.644000	 64.679
9.728000	 64.6509
9.812000	 64.7874
9.896000	 64.7928
9.980000	 64.9753
10.064	64.8969
10.148	64.8356
10.232	64.7288
10.316	64.9625
10.4	64.8315
10.484	65.1792
10.568	64.939
10.652	65.0091
10.736	64.8234
10.82	64.6252
10.904	64.6022
10.988	64.0921
11.072	64.496
11.156	64.4944
11.24	64.6893
11.324	64.9334
11.408	64.7606
11.492	64.827
11.576	64.3287
11.66	64.1254
11.744	64.3858
11.828	64.5827
11.912	64.639
11.996	64.8208
12.08	64.7299
12.164	64.4948
12.248	64.4716
12.332	64.3661
12.416	64.2568
12.5	64.4236
12.584	64.2923
12.668	64.036
12.752	64.0172
12.836	64.2388
12.92	64.3191
13.004	64.1954
13.088	64.2258
13.172	64.1045
13.256	64.0213
13.34	63.7912
13.424	63.7999
13.508	64.0362
13.592	63.8113
13.676	64.0224
13.76	64.0715
13.844	63.9722
13.928	64.1726
14.012	63.9947
14.096	63.5932
14.18	63.4409
14.264	63.5313
14.348	63.5729
14.432	63.4784
14.516	63.422
14.6	63.4
14.684	63.4694
14.768	63.5178
14.852	63.4421
14.936	63.4255
15.02	63.3748
15.104	63.1039
15.188	62.8491
15.272	62.8706
15.356	63.0326
15.44	63.1231
15.524	63.1276
15.608	63.028
15.692	62.861
15.776	62.8799
15.86	63.0805
15.944	63.0632
16.028	62.7678
16.112	62.5539
16.196	62.5648
16.28	62.7329
16.364	63.0673
16.448	63.4522
16.532	63.5611
16.616	63.3004
16.7	62.9658
16.784	62.8162
16.868	62.8229
16.952	62.8362
17.036	62.8216
17.12	62.8652
17.204	62.9824
17.288	63.0343
17.372	62.8978
17.456	62.6304
17.54	62.4098
17.624	62.3601
17.708	62.4456
17.792	62.52
17.876	62.5053
17.96	62.4842
18.044	62.5778
18.128	62.7788
18.212	62.9317
18.296	62.8897
18.38	62.6793
18.464	62.4821
18.548	62.4312
18.632	62.4563
18.716	62.4078
18.8	62.2613
18.884	62.0997
18.968	61.9469
19.052	61.7567
19.136	61.5697
19.22	61.5422
19.304	61.7607
19.388	62.0998
19.472	62.3385
19.556	62.3524
19.64	62.1845
19.724	61.9604
19.808	61.7863
19.892	61.7016
19.976	61.6828
20.06	61.6718
20.144	61.6134
20.228	61.4926
20.312	61.3434
20.396	61.2309
20.48	61.2211
20.564	61.361
20.648	61.6467
20.732	62.0008
20.816	62.292
20.9	62.3845
20.984	62.2012
21.068	61.7663
21.152	61.1898
21.236	60.6112
21.32	60.1329
21.404	59.8022
21.488	59.6532
21.572	59.7316
21.656	60.0765
21.74	60.647
21.824	61.2846
21.908	61.7601
21.992	61.896
22.076	61.6665
22.16	61.209
22.244	60.7441
22.328	60.4405
22.412	60.3547
22.496	60.4322
22.58	60.5805
22.664	60.7366
22.748	60.8605
22.832	60.8856
22.916	60.7422
23	60.3528
23.084	59.6886
23.168	58.8152
23.252	57.8641
23.336	56.9778
23.42	56.2787
23.504	55.8506
23.588	55.7028
23.672	55.7679
23.756	55.9166
23.84	56.0055
23.924	55.9506
24.008	55.811
24.092	55.8449
24.176	56.4616
24.26	58.0427
24.344	60.73
24.428	64.2314
24.512	67.7924
24.596	70.4451
24.68	71.3163
24.764	70.018
24.848	66.8535
24.932	62.8223
25.016	59.2299
25.1	57.1311
25.184	57.0496
25.268	58.7596
25.352	61.5026
25.436	64.2268
25.52	66.1419
25.604	67.0563
25.688	67.269
25.772	67.316
25.856	67.5821
25.94	68.1383
26.024	68.6314
26.108	68.4161
26.192	67.0013
26.276	64.3221
26.36	60.8847
26.444	57.5494
26.528	55.0821
26.612	53.6514
26.696	52.7931
26.78	51.6048
26.864	49.1301
26.948	44.891
27.028	39.4678

File: C-4040-8_t88_cm-1.asc
PE IR       SPECTRUM    SPECTRUM    ASCII       PEDS        1.60
  -1
C-9D65~1.ASC
17/03/27
21:40:19.00
17/03/27
21:40:19.00
tln
$C-4040-8_t0088$<tbV0>[-13.0,5.2,8.0,0.0,27,1,0]
370
64

2002,4.07
MIRTGS : RIGHTBACK : INTERNAL 2
MIR : ON : INTERNAL 2
OPTKBR

0.200000
8
8.000000
FILLER
RATIO
SPECTRUM
UNLOCKED 256

DOUBLE
64
COMBINED
1
0
0

1.000000
RATIO

1
0
TRUE
51149
0
LEFT NOT FITTED RIGHT NOT FITTED 0
NONE
NONE
15600
12
4.427000
51148
TRUE
1 0 8 72 0 0 0 0

15798

#HDR
-1
-1
#GR
CM-1
%T
2.38419e-05
0.0
5000
-1.000000
4631
8
124.602
39.4678
#DATA
5000	64.3538
4984	64.9854
4968	64.4092
4952	65.3347
4936	64.7287
4920	64.3526
4904	64.7444
4888	65.3465
4872	64.8762
4856	64.4888
4840	64.7884
4824	65.1434
4808	64.6096
4792	64.8741
4776	64.9311
4760	65.5939
4744	65.5745
4728	65.7294
4712	65.567
4696	65.4231
4680	65.4022
4664	65.8149
4648	65.3296
4632	65.2583
4616	64.9949
4600	64.5067
4584	64.5916
4568	64.9698
4552	64.5003
4536	64.5685
4520	63.6469
4504	64.0492
4488	63.8056
4472	63.3437
4456	63.0759
4440	63.0833
4424	63.6783
4408	61.3988
4392	65.9061
4376	71.5385
4360	63.2486
4344	62.9415
4328	63.6283
4312	63.8912
4296	63.8495
4280	63.617
4264	63.9876
4248	64.1497
4232	64.8503
4216	64.6058
4200	64.7264
4184	65.2367
4168	65.6886
4152	65.1049
4136	65.0094
4120	65.251
4104	65.3879
4088	65.0819
4072	65.1642
4056	65.2883
4040	65.5557
4024	65.0922
4008	65.3119
3992	65.1054
3976	65.4161
3960	65.1603
3944	65.0396
3928	64.9378
3912	65.0201
3896	65.0132
3880	64.8387
3864	65.0453
3848	64.6245
3832	64.9737
3816	65.1209
3800	64.8846
3784	65.0341
3768	65.0454
3752	65.1779
3736	65.1151
3720	65.363
3704	65.0886
3688	65.0889
3672	65.0244
3656	65.4503
3640	65.3614
3624	65.188
3608	65.2028
3592	65.2534
3576	65.283
3560	65.1884
3544	65.2562
3528	65.0909
3512	65.1482
3496	65.27
3480	65.4535
3464	65.2431
3448	65.2871
3432	65.0562
3416	65.4787
3400	65.0902
3384	65.2749
3368	64.9376
3352	64.936
3336	65.2995
3320	65.1365
3304	65.3098
3288	65.3096
3272	65.0491
3256	65.2113
3240	65.0728
3224	65.174
3208	65.3887
3192	65.2733
3176	65.191
3160	65.1396
3144	65.5262
3128	65.1317
3112	65.0465
3096	65.22
3080	65.0347
3064	65.205
3048	65.1401
3032	65.2733
3016	65.1248
3000	65.1059
2984	64.9862
2968	64.7576
2952	65.0371
2936	65.0105
2920	64.678
2904	64.955
2888	64.9181
2872	65.1052
2856	64.9804
2840	65.0377
2824	65.1338
2808	65.2322
2792	65.2659
2776	65.3568
2760	65.331
2744	65.294
2728	65.3075
2712	65.3855
2696	65.3726
2680	65.2888
2664	65.2694
2648	65.185
2632	65.3546
2616	65.2805
2600	65.2767
2584	65.118
2568	65.1132
2552	65.2546
2536	65.1273
2520	65.2771
2504	65.2563
2488	65.283
2472	65.1893
2456	65.2098
2440	65.3103
2424	64.9288
2408	65.129
2392	65.3745
2376	65.4298
2360	65.3323
2344	65.3441
2328	65.327
2312	65.2962
2296	65.3159
2280	65.4048
2264	65.286
2248	65.4136
2232	65.3216
2216	65.346
2200	65.2826
2184	65.2625
2168	65.22
2152	65.1989
2136	65.1571
2120	65.267
2104	65.3068
2088	65.2288
2072	65.2218
2056	65.3422
2040	65.2479
2024	65.4218
2008	65.354
1992	65.2821
1976	65.3242
1960	65.2504
1944	65.2875
1928	65.3466
1912	65.2166
1896	65.2927
1880	65.2886
1864	65.325
1848	65.2835
1832	65.2979
1816	65.4125
1800	65.2925
1784	65.2775
1768	65.2827
1752	65.1943
1736	65.0987
1720	65.2364
1704	65.1527
1688	65.4484
1672	65.2246
1656	65.1639
1640	65.189
1624	65.1371
1608	65.0306
1592	65.0882
1576	64.9911
1560	64.9398
1544	65.0269
1528	65.0808
1512	65.0808
1496	65.2737
1480	65.1335
1464	64.9748
1448	65.0476
1432	65.2008
1416	65.1553
1400	65.3296
1384	65.154
1368	65.1338
1352	65.0528
1336	65.2618
1320	65.0327
1304	65.0077
1288	65.0124
1272	65.1354
1256	64.956
1240	65.0721
1224	64.8314
1208	65.0507
1192	64.8444
1176	64.8159
1160	64.9287
1144	64.7723
1128	64.9127
1112	65.0499
1096	64.8276
1080	64.8983
1064	64.9562
1048	64.7762
1032	64.5785
1016	64.7554
1000	64.8837
984	 64.7917
968	 64.9643
952	 65.1325
936	 65.0419
920	 64.7183
904	 64.435
888	 64.7765
872	 64.817
856	 64.1853
840	 64.6288
824	 64.5488
808	 64.2744
792	 64.1446
776	 64.3309
760	 64.1327
744	 63.8729
728	 64.1142
712	 63.8274
696	 63.5554
680	 63.4946
664	 63.2677
648	 63.1188
632	 62.9931
616	 62.622
600	 63.0846
584	 62.8688
568	 62.3554
552	 62.7485
536	 62.4544
520	 61.5568
504	 61.7423
488	 61.231
472	 60.9454
456	 61.8326
440	 60.8367
424	 55.704
408	 67.7084
392	 65.972
376	 53.8648
370	 39.4678