Folder: Masteroppgave/Bakgrunnsmateriale/MATLAB/FTIR/ftir_data/subBb/Mapping_121 (part 22)

File: C-4040-8_t46_cm-1.asc
PE IR       SPECTRUM    SPECTRUM    ASCII       PEDS        1.60
  -1
C-9B6E~1.ASC
17/03/27
18:18:32.00
17/03/27
18:18:32.00
tln
$C-4040-8_t0046$<tbV0>[10.4,-2.6,8.0,0.0,27,1,0]
370
64

2002,4.07
MIRTGS : RIGHTBACK : INTERNAL 2
MIR : ON : INTERNAL 2
OPTKBR

0.200000
8
8.000000
FILLER
RATIO
SPECTRUM
UNLOCKED 256

DOUBLE
64
COMBINED
1
0
0

1.000000
RATIO

1
0
TRUE
51149
0
LEFT NOT FITTED RIGHT NOT FITTED 0
NONE
NONE
15600
12
4.427000
51148
TRUE
1 0 8 72 0 0 0 0

15798

#HDR
-1
-1
#GR
CM-1
%T
2.38419e-05
0.0
5000
-1.000000
4631
8
125.006
44.5901
#DATA
5000	64.9106
4984	65.3723
4968	64.9232
4952	64.2493
4936	64.979
4920	65.0082
4904	65.0166
4888	65.0769
4872	64.9283
4856	64.9354
4840	64.696
4824	64.9814
4808	64.8217
4792	64.7654
4776	64.9588
4760	64.1891
4744	64.4356
4728	64.6644
4712	65.0266
4696	64.8383
4680	64.9209
4664	64.2023
4648	64.6707
4632	64.732
4616	64.1746
4600	64.4969
4584	64.7254
4568	64.9585
4552	64.7553
4536	65.0693
4520	65.3707
4504	65.6776
4488	65.8968
4472	65.1927
4456	65.8974
4440	65.631
4424	66.3829
4408	66.1857
4392	66.1615
4376	65.6838
4360	49.0429
4344	67.5174
4328	66.1435
4312	65.9926
4296	66.1214
4280	66.3268
4264	65.4873
4248	64.7525
4232	65.2699
4216	65.3299
4200	64.9312
4184	64.5165
4168	65.1042
4152	65.3989
4136	65.1493
4120	64.7278
4104	65.012
4088	65.0886
4072	64.9641
4056	64.7982
4040	64.8061
4024	65.1127
4008	65.2576
3992	64.93
3976	65.0704
3960	65.0912
3944	65.1932
3928	65.0622
3912	65.1451
3896	65.2739
3880	65.025
3864	65.111
3848	65.3975
3832	65.0072
3816	64.7917
3800	65.374
3784	65.6179
3768	65.2163
3752	65.3053
3736	65.2788
3720	65.1577
3704	65.2033
3688	65.2466
3672	65.114
3656	65.2708
3640	65.1858
3624	64.9502
3608	65.387
3592	64.9297
3576	65.2714
3560	65.3423
3544	65.2509
3528	65.3623
3512	65.1927
3496	64.9142
3480	65.391
3464	65.4834
3448	65.1562
3432	65.2699
3416	65.2971
3400	65.2283
3384	65.2752
3368	65.4416
3352	65.3018
3336	65.2432
3320	65.4102
3304	65.064
3288	65.238
3272	65.2923
3256	65.3621
3240	65.0286
3224	64.9595
3208	64.9649
3192	65.0445
3176	65.274
3160	65.2916
3144	65.0165
3128	65.3839
3112	64.9675
3096	65.3554
3080	65.2476
3064	65.3072
3048	65.3416
3032	65.1012
3016	65.2818
3000	65.2389
2984	65.2449
2968	65.1466
2952	65.1678
2936	65.2494
2920	64.9848
2904	65.0809
2888	65.1977
2872	65.2863
2856	64.8429
2840	65.2119
2824	65.2601
2808	65.4056
2792	65.2464
2776	65.2482
2760	65.3647
2744	65.2149
2728	65.2823
2712	65.1998
2696	65.2584
2680	65.2179
2664	65.3762
2648	65.3214
2632	65.2417
2616	65.2624
2600	65.365
2584	65.2941
2568	65.3989
2552	65.4264
2536	65.3214
2520	65.5264
2504	65.4976
2488	65.1893
2472	65.2329
2456	65.2398
2440	65.4658
2424	65.6211
2408	65.0708
2392	65.3103
2376	65.264
2360	65.379
2344	65.2807
2328	65.4257
2312	65.296
2296	65.3366
2280	65.2313
2264	65.3394
2248	65.4302
2232	65.516
2216	65.4347
2200	65.2827
2184	65.4121
2168	65.3282
2152	65.3047
2136	65.4974
2120	65.4209
2104	65.2997
2088	65.4185
2072	65.4091
2056	65.4892
2040	65.1878
2024	65.3798
2008	65.3566
1992	65.399
1976	65.3737
1960	65.1407
1944	65.4075
1928	65.3429
1912	65.3168
1896	65.429
1880	65.3794
1864	65.3039
1848	65.258
1832	65.5273
1816	65.3769
1800	65.2987
1784	65.2643
1768	65.1444
1752	65.2115
1736	64.8937
1720	65.1942
1704	65.3828
1688	65.2622
1672	65.3034
1656	65.3482
1640	65.2557
1624	65.1877
1608	65.2502
1592	65.1507
1576	65.1664
1560	65.1677
1544	65.1595
1528	65.2503
1512	65.1971
1496	65.1261
1480	65.3138
1464	65.1959
1448	65.2813
1432	65.0346
1416	65.1176
1400	65.0315
1384	65.175
1368	65.0828
1352	65.1952
1336	65.0568
1320	65.0851
1304	65.0897
1288	65.0431
1272	65.0313
1256	64.9621
1240	65.0876
1224	64.9252
1208	65.1764
1192	64.9499
1176	64.8235
1160	64.9621
1144	65.3035
1128	65.0245
1112	64.6818
1096	65.0601
1080	65.0305
1064	65.0316
1048	64.8759
1032	64.4502
1016	64.6834
1000	64.7663
984	 64.8431
968	 64.2918
952	 64.6613
936	 64.439
920	 64.5304
904	 64.6044
888	 64.4499
872	 64.4315
856	 64.4441
840	 64.4602
824	 64.4045
808	 64.5611
792	 64.2413
776	 64.175
760	 64.024
744	 63.8709
728	 63.5541
712	 63.6742
696	 63.889
680	 63.287
664	 63.2827
648	 62.7264
632	 63.4706
616	 63.181
600	 62.8661
584	 61.848
568	 62.4636
552	 62.3782
536	 61.6126
520	 61.0178
504	 60.5611
488	 60.6531
472	 59.4124
456	 60.5935
440	 60.0544
424	 61.9241
408	 63.0854
392	 119.37
376	 80.7909
370	 45.8837

File: C-4040-8_t47.asc
PE IR       SPECTRUM    SPECTRUM    ASCII       PEDS        1.60
  -1
C-B536~1.ASC
17/03/27
18:23:09.00
17/03/27
18:23:35.00
tln
$C-4040-8_t0047$<tbV0>[7.8,-2.6,8.0,0.0,27,1,0]
27.028
64

2002,4.07
MIRTGS : RIGHTBACK : INTERNAL 2
MIR : ON : INTERNAL 2
OPTKBR

0.200000
8
8.000000
FILLER
RATIO
SPECTRUM
UNLOCKED 256

DOUBLE
64
COMBINED
1
0
0

0.002000
RATIO

1
0
TRUE
51149
0
LEFT NOT FITTED RIGHT NOT FITTED 0
NONE
NONE
15600
12
4.427000
51148
TRUE
1 0 8 72 0 0 0 0

15798

#HDR
-1
-1
#GR
µM
%T
2.38419e-05
0.0
2.000000
0.002000
12515
8
92.2923
40.2928
#DATA
2.000000	 64.7907
2.084000	 64.7542
2.168000	 64.4866
2.252000	 64.7536
2.336000	 65.437
2.420000	 65.0119
2.504000	 64.9044
2.588000	 65.1249
2.672000	 64.9321
2.756000	 64.8844
2.840000	 64.9939
2.924000	 65.1152
3.008000	 65.0274
3.092000	 65.2072
3.176000	 65.0294
3.260000	 65.1605
3.344000	 65.017
3.428000	 64.8701
3.512000	 65.0426
3.596000	 64.9199
3.680000	 64.9695
3.764000	 65.2207
3.848000	 65.2309
3.932000	 65.1373
4.016000	 64.8312
4.100000	 65.1354
4.184000	 65.0973
4.268000	 65.0397
4.352000	 65.1985
4.436000	 65.3
4.520000	 65.1321
4.604000	 65.0886
4.688000	 65.2848
4.772000	 65.1445
4.856000	 65.0224
4.940000	 65.156
5.024000	 65.1078
5.108000	 64.973
5.192000	 65.03
5.276000	 65.1796
5.359999	 65.057
5.444000	 65.0393
5.528000	 65.1402
5.612000	 65.098
5.696000	 65.0317
5.780000	 64.8436
5.864000	 64.9671
5.948000	 65.1236
6.032000	 64.9717
6.116000	 64.9017
6.200000	 64.8579
6.284000	 64.8616
6.368000	 64.9257
6.452000	 64.9527
6.536000	 64.779
6.620000	 64.8298
6.704000	 64.7865
6.788000	 64.8393
6.872000	 64.6261
6.956000	 64.789
7.040000	 64.9519
7.124000	 64.8359
7.208000	 64.9224
7.292000	 64.769
7.376000	 64.7606
7.460000	 64.6704
7.544000	 64.8539
7.628000	 64.8907
7.712000	 64.6988
7.796000	 64.8004
7.880000	 64.8131
7.964000	 64.7574
8.048000	 64.7766
8.132000	 64.562
8.216000	 64.7277
8.300000	 64.7752
8.384000	 64.9492
8.468000	 64.426
8.552000	 64.7509
8.635999	 64.6722
8.719999	 65.02
8.804000	 64.5622
8.888000	 64.4833
8.972000	 64.865
9.056000	 64.0627
9.140000	 64.3195
9.224000	 65.2085
9.308000	 64.5052
9.391999	 64.5836
9.475999	 64.4559
9.560000	 64.3874
9.644000	 64.4389
9.728000	 64.1669
9.812000	 64.3642
9.896000	 64.5441
9.980000	 64.5234
10.064	64.4294
10.148	64.2783
10.232	64.3977
10.316	64.2661
10.4	64.5088
10.484	64.5209
10.568	64.3392
10.652	64.3192
10.736	64.4214
10.82	64.2816
10.904	64.5005
10.988	64.364
11.072	64.2997
11.156	64.1122
11.24	64.1379
11.324	64.2593
11.408	64.2347
11.492	64.1396
11.576	64.3453
11.66	64.4035
11.744	64.3569
11.828	64.3382
11.912	64.0554
11.996	63.8491
12.08	63.8886
12.164	64.1404
12.248	64.0326
12.332	64.0571
12.416	63.8942
12.5	63.7337
12.584	63.9063
12.668	63.8745
12.752	63.7187
12.836	63.6897
12.92	63.7228
13.004	63.7034
13.088	63.7921
13.172	63.9262
13.256	63.6456
13.34	63.8796
13.424	63.8462
13.508	63.4323
13.592	63.352
13.676	63.4966
13.76	63.5036
13.844	63.3183
13.928	63.4601
14.012	63.6634
14.096	63.6543
14.18	63.4404
14.264	63.2391
14.348	63.1929
14.432	63.2882
14.516	63.2922
14.6	62.9615
14.684	62.7426
14.768	62.9451
14.852	63.2001
14.936	63.1787
15.02	63.0285
15.104	62.9352
15.188	62.8882
15.272	62.8669
15.356	62.7913
15.44	62.6177
15.524	62.4413
15.608	62.3638
15.692	62.3554
15.776	62.3969
15.86	62.5935
15.944	62.8165
16.028	62.8125
16.112	62.6848
16.196	62.6713
16.28	62.787
16.364	62.8886
16.448	62.7545
16.532	62.3173
16.616	61.8747
16.7	61.7282
16.784	61.8296
16.868	62.0132
16.952	62.1935
17.036	62.3113
17.12	62.3328
17.204	62.2315
17.288	61.9797
17.372	61.656
17.456	61.4528
17.54	61.4727
17.624	61.6154
17.708	61.7091
17.792	61.6446
17.876	61.4175
17.96	61.1347
18.044	60.9594
18.128	60.9608
18.212	61.0617
18.296	61.1549
18.38	61.2258
18.464	61.3246
18.548	61.4551
18.632	61.5409
18.716	61.5329
18.8	61.5106
18.884	61.6048
18.968	61.801
19.052	61.8866
19.136	61.6893
19.22	61.2971
19.304	60.9746
19.388	60.8711
19.472	60.8964
19.556	60.8651
19.64	60.7014
19.724	60.4898
19.808	60.3641
19.892	60.4004
19.976	60.5751
20.06	60.7842
20.144	60.8938
20.228	60.8147
20.312	60.5715
20.396	60.2876
20.48	60.0741
20.564	59.9445
20.648	59.8262
20.732	59.6597
20.816	59.4619
20.9	59.291
20.984	59.1922
21.068	59.1755
21.152	59.2197
21.236	59.3027
21.32	59.3951
21.404	59.4443
21.488	59.3982
21.572	59.2538
21.656	59.1087
21.74	59.1119
21.824	59.3266
21.908	59.6206
21.992	59.7403
22.076	59.5069
22.16	58.983
22.244	58.4797
22.328	58.3545
22.412	58.7871
22.496	59.6503
22.58	60.583
22.664	61.1841
22.748	61.2043
22.832	60.6424
22.916	59.6928
23	58.6346
23.084	57.7062
23.168	57.0286
23.252	56.5948
23.336	56.3557
23.42	56.2548
23.504	56.3206
23.588	56.6203
23.672	57.1815
23.756	57.9715
23.84	58.9454
23.924	59.9723
24.008	60.9102
24.092	61.6891
24.176	62.2851
24.26	62.6743
24.344	62.8319
24.428	62.7863
24.512	62.6765
24.596	62.7918
24.68	63.4367
24.764	64.7722
24.848	66.6928
24.932	69.2395
25.016	72.6958
25.1	77.4574
25.184	83.2489
25.268	88.7826
25.352	92.0446
25.436	91.2346
25.52	85.8437
25.604	76.8887
25.688	66.2685
25.772	55.9629
25.856	47.409
25.94	41.838
26.024	40.3726
26.108	43.8195
26.192	51.896
26.276	62.9691
26.36	73.9853
26.444	81.7509
26.528	84.1089
26.612	80.82
26.696	73.3195
26.78	64.113
26.864	55.6257
26.948	49.3743
27.028	45.8357

File: C-4040-8_t47_cm-1.asc
PE IR       SPECTRUM    SPECTRUM    ASCII       PEDS        1.60
  -1
C-9BEF~1.ASC
17/03/27
18:23:09.00
17/03/27
18:23:09.00
tln
$C-4040-8_t0047$<tbV0>[7.8,-2.6,8.0,0.0,27,1,0]
370
64

2002,4.07
MIRTGS : RIGHTBACK : INTERNAL 2
MIR : ON : INTERNAL 2
OPTKBR

0.200000
8
8.000000
FILLER
RATIO
SPECTRUM
UNLOCKED 256

DOUBLE
64
COMBINED
1
0
0

1.000000
RATIO

1
0
TRUE
51149
0
LEFT NOT FITTED RIGHT NOT FITTED 0
NONE
NONE
15600
12
4.427000
51148
TRUE
1 0 8 72 0 0 0 0

15798

#HDR
-1
-1
#GR
CM-1
%T
2.38419e-05
0.0
5000
-1.000000
4631
8
92.2904
40.6772
#DATA
5000	64.7907
4984	64.4882
4968	65.218
4952	64.9904
4936	64.6588
4920	64.781
4904	65.0139
4888	64.7459
4872	63.9641
4856	64.3978
4840	64.6812
4824	64.6821
4808	64.6393
4792	64.6036
4776	64.729
4760	64.6724
4744	64.4131
4728	64.7478
4712	65.0747
4696	64.8472
4680	64.5082
4664	64.4783
4648	64.9888
4632	64.5145
4616	64.8347
4600	64.753
4584	64.4968
4568	64.8778
4552	64.0814
4536	64.7007
4520	64.9234
4504	64.7382
4488	64.6117
4472	65.0764
4456	64.9691
4440	64.7788
4424	65.5261
4408	65.1771
4392	64.7221
4376	66.6021
4360	63.574
4344	62.2986
4328	65.4565
4312	65.1459
4296	64.4403
4280	65.4598
4264	64.7475
4248	65.0709
4232	64.7419
4216	65.0764
4200	64.8174
4184	63.6404
4168	65.2129
4152	64.8198
4136	65.1233
4120	64.9452
4104	65.043
4088	64.7593
4072	64.9378
4056	64.8113
4040	65.1343
4024	64.7963
4008	65.027
3992	64.8915
3976	64.9622
3960	64.8559
3944	65.0302
3928	64.6771
3912	65.0487
3896	64.9867
3880	64.895
3864	65.1251
3848	65.0291
3832	64.8141
3816	65.0837
3800	65.0891
3784	64.9523
3768	64.9253
3752	65.1839
3736	64.9815
3720	64.9561
3704	64.9204
3688	65.0552
3672	64.9026
3656	64.9635
3640	65.1251
3624	64.9217
3608	64.8619
3592	64.7582
3576	65.0399
3560	65.0809
3544	65.1132
3528	65.1545
3512	64.9479
3496	64.9248
3480	65.0142
3464	65.2542
3448	64.8904
3432	64.8848
3416	65.1563
3400	65.1715
3384	65.0061
3368	65.141
3352	64.9715
3336	65.0249
3320	65.0903
3304	65.0259
3288	64.9121
3272	65.1875
3256	65.1758
3240	64.9234
3224	64.9612
3208	64.9996
3192	65.0593
3176	65.1983
3160	65.0017
3144	64.7215
3128	65.164
3112	65.1024
3096	65.2755
3080	65.021
3064	65.198
3048	65.0801
3032	65.217
3016	65.0504
3000	64.991
2984	65.1122
2968	65.1232
2952	65.2126
2936	64.8016
2920	64.8507
2904	65.1171
2888	65.0332
2872	65.013
2856	64.7983
2840	64.9929
2824	64.9892
2808	65.0892
2792	64.93
2776	65.0211
2760	65.0325
2744	65.164
2728	65.0785
2712	64.952
2696	65.0755
2680	65.0402
2664	65.2014
2648	65.1345
2632	65.0819
2616	65.2431
2600	65.2221
2584	65.2034
2568	65.0503
2552	65.0992
2536	65.1204
2520	65.1057
2504	65.1895
2488	64.8908
2472	65.0414
2456	64.9973
2440	65.1536
2424	65.4493
2408	65.0534
2392	65.1192
2376	64.9951
2360	65.0943
2344	65.0428
2328	65.1417
2312	65.0851
2296	65.1739
2280	65.0728
2264	65.1525
2248	65.2779
2232	65.2229
2216	65.1136
2200	64.9506
2184	65.1623
2168	65.0525
2152	65.2381
2136	65.2319
2120	65.0834
2104	65.1325
2088	65.1753
2072	64.802
2056	65.0306
2040	65.1484
2024	65.1513
2008	65.1295
1992	65.0899
1976	65.1991
1960	64.9946
1944	65.1585
1928	65.0807
1912	65.1381
1896	65.1648
1880	65.1181
1864	65.0826
1848	65.0677
1832	65.202
1816	65.0979
1800	65.1125
1784	65.123
1768	65.1583
1752	65.03
1736	64.8181
1720	65.0589
1704	64.9843
1688	64.9979
1672	65.0343
1656	64.9576
1640	64.9472
1624	64.9004
1608	64.8211
1592	64.8719
1576	65.0243
1560	64.9018
1544	65.0067
1528	64.7673
1512	64.8347
1496	64.9158
1480	64.956
1464	64.8919
1448	64.7896
1432	64.7418
1416	64.8732
1400	64.8699
1384	64.9637
1368	64.7445
1352	64.7686
1336	64.6106
1320	64.8855
1304	64.7048
1288	64.7459
1272	64.7928
1256	64.7526
1240	64.6724
1224	64.7142
1208	64.7917
1192	64.9762
1176	64.5329
1160	64.7655
1144	65.0423
1128	64.4681
1112	64.7012
1096	64.4427
1080	65.0136
1064	64.6128
1048	64.422
1032	64.2636
1016	64.4467
1000	64.5591
984	 64.2934
968	 64.2712
952	 64.4954
936	 64.4155
920	 64.4354
904	 64.322
888	 64.1743
872	 64.1431
856	 64.3797
840	 64.0778
824	 64.0883
808	 64.0256
792	 63.9297
776	 63.7064
760	 63.9431
744	 63.7567
728	 63.5404
712	 63.6874
696	 63.2044
680	 62.7612
664	 62.9761
648	 62.6363
632	 62.4863
616	 62.7133
600	 61.7471
584	 62.3314
568	 61.5827
552	 60.9517
536	 61.5474
520	 61.2467
504	 60.3581
488	 60.0517
472	 59.2504
456	 59.6791
440	 61.2578
424	 56.6045
408	 62.6774
392	 86.6776
376	 81.8385
370	 45.8357

File: C-4040-8_t48.asc
PE IR       SPECTRUM    SPECTRUM    ASCII       PEDS        1.60
  -1
C-C53A~1.ASC
17/03/27
18:27:45.00
17/03/27
18:28:12.00
tln
$C-4040-8_t0048$<tbV0>[5.2,-2.6,8.0,0.0,27,1,0]
27.028
64

2002,4.07
MIRTGS : RIGHTBACK : INTERNAL 2
MIR : ON : INTERNAL 2
OPTKBR

0.200000
8
8.000000
FILLER
RATIO
SPECTRUM
UNLOCKED 256

DOUBLE
64
COMBINED
1
0
0

0.002000
RATIO

1
0
TRUE
51149
0
LEFT NOT FITTED RIGHT NOT FITTED 0
NONE
NONE
15600
12
4.427000
51148
TRUE
1 0 8 72 0 0 0 0

15798

#HDR
-1
-1
#GR
µM
%T
2.38419e-05
0.0
2.000000
0.002000
12515
8
98.0445
34.7146
#DATA
2.000000	 65.5016
2.084000	 65.3146
2.168000	 65.1807
2.252000	 65.6731
2.336000	 65.8236
2.420000	 65.0799
2.504000	 65.0814
2.588000	 65.1773
2.672000	 65.2714
2.756000	 64.9782
2.840000	 65.2305
2.924000	 65.2682
3.008000	 65.2336
3.092000	 65.3664
3.176000	 65.246
3.260000	 65.2901
3.344000	 65.1667
3.428000	 64.9943
3.512000	 65.148
3.596000	 65.0946
3.680000	 65.2004
3.764000	 65.3243
3.848000	 65.142
3.932000	 65.3705
4.016000	 65.0619
4.100000	 65.323
4.184000	 65.2267
4.268000	 65.2297
4.352000	 65.3526
4.436000	 65.2399
4.520000	 65.2507
4.604000	 65.2126
4.688000	 65.3097
4.772000	 65.2703
4.856000	 64.8183
4.940000	 65.4807
5.024000	 65.2001
5.108000	 65.1355
5.192000	 65.3758
5.276000	 65.2357
5.359999	 65.0822
5.444000	 65.2086
5.528000	 65.2253
5.612000	 65.1946
5.696000	 64.9946
5.780000	 65.2142
5.864000	 65.2007
5.948000	 65.1905
6.032000	 65.1561
6.116000	 65.1291
6.200000	 65.2149
6.284000	 64.9566
6.368000	 65.1251
6.452000	 64.9284
6.536000	 64.9295
6.620000	 64.8955
6.704000	 65.1034
6.788000	 64.9513
6.872000	 64.4707
6.956000	 64.9875
7.040000	 64.9489
7.124000	 64.9628
7.208000	 64.9916
7.292000	 64.9208
7.376000	 64.9622
7.460000	 65.0201
7.544000	 65.0823
7.628000	 65.0672
7.712000	 64.7931
7.796000	 64.9535
7.880000	 64.7449
7.964000	 64.9835
8.048000	 65.0316
8.132000	 64.8817
8.216000	 64.9465
8.300000	 65.0554
8.384000	 64.9772
8.468000	 64.7055
8.552000	 64.9328
8.635999	 64.9027
8.719999	 65.0327
8.804000	 64.601
8.888000	 64.819
8.972000	 64.8833
9.056000	 64.35
9.140000	 64.4671
9.224000	 64.8975
9.308000	 64.4289
9.391999	 64.6508
9.475999	 64.712
9.560000	 64.9608
9.644000	 65.0053
9.728000	 64.8442
9.812000	 64.6827
9.896000	 64.8605
9.980000	 64.8788
10.064	64.6919
10.148	64.602
10.232	64.6523
10.316	64.4395
10.4	64.5627
10.484	64.6461
10.568	64.5804
10.652	64.5838
10.736	64.7203
10.82	64.7441
10.904	64.6197
10.988	64.4765
11.072	64.6711
11.156	64.3871
11.24	64.4629
11.324	64.7047
11.408	64.5457
11.492	64.5174
11.576	64.5976
11.66	64.6023
11.744	64.5877
11.828	64.67
11.912	64.6412
11.996	64.4612
12.08	64.266
12.164	64.2614
12.248	64.1665
12.332	64.3168
12.416	64.3257
12.5	64.3056
12.584	64.3398
12.668	64.1074
12.752	64.0214
12.836	64.1073
12.92	64.4076
13.004	64.5248
13.088	64.4395
13.172	64.3543
13.256	64.6499
13.34	65.3251
13.424	65.198
13.508	64.591
13.592	64.3967
13.676	64.1531
13.76	63.6814
13.844	63.2825
13.928	63.3698
14.012	63.7435
14.096	63.9513
14.18	64.1995
14.264	64.2794
14.348	63.9986
14.432	63.7936
14.516	63.7169
14.6	63.6433
14.684	63.5444
14.768	63.4344
14.852	63.3731
14.936	63.4015
15.02	63.5219
15.104	63.7051
15.188	63.9091
15.272	63.9103
15.356	63.6664
15.44	63.4561
15.524	63.4252
15.608	63.5469
15.692	63.6551
15.776	63.6356
15.86	63.5856
15.944	63.5857
16.028	63.6585
16.112	63.806
16.196	63.9222
16.28	63.9228
16.364	63.8154
16.448	63.5902
16.532	63.2582
16.616	62.9293
16.7	62.7287
16.784	62.7221
16.868	62.8691
16.952	62.9798
17.036	62.9446
17.12	62.8834
17.204	62.8406
17.288	62.6701
17.372	62.3837
17.456	62.2406
17.54	62.3807
17.624	62.6586
17.708	62.8359
17.792	62.7838
17.876	62.5884
17.96	62.4541
18.044	62.4806
18.128	62.5936
18.212	62.6926
18.296	62.7359
18.38	62.6974
18.464	62.5849
18.548	62.4906
18.632	62.4873
18.716	62.5284
18.8	62.5393
18.884	62.5512
18.968	62.6163
19.052	62.6456
19.136	62.506
19.22	62.2335
19.304	62.025
19.388	62.0066
19.472	62.1196
19.556	62.218
19.64	62.2204
19.724	62.1437
19.808	62.0545
19.892	62.0129
19.976	62.0363
20.06	62.067
20.144	61.9926
20.228	61.7362
20.312	61.3327
20.396	60.9011
20.48	60.524
20.564	60.2065
20.648	59.9446
20.732	59.814
20.816	59.916
20.9	60.2446
20.984	60.6402
21.068	60.889
21.152	60.8794
21.236	60.6681
21.32	60.4178
21.404	60.2683
21.488	60.2783
21.572	60.459
21.656	60.8299
21.74	61.4181
21.824	62.2071
21.908	63.0821
21.992	63.8452
22.076	64.3023
22.16	64.3675
22.244	64.1094
22.328	63.69
22.412	63.2531
22.496	62.8358
22.58	62.3952
22.664	61.8958
22.748	61.3736
22.832	60.9246
22.916	60.6461
23	60.53
23.084	60.4781
23.168	60.3482
23.252	60.0645
23.336	59.6792
23.42	59.3497
23.504	59.2917
23.588	59.5926
23.672	60.1347
23.756	60.66
23.84	60.89
23.924	60.6421
24.008	59.9196
24.092	58.9336
24.176	58.0364
24.26	57.5921
24.344	57.8849
24.428	59.0046
24.512	60.8684
24.596	63.1793
24.68	65.5069
24.764	67.4668
24.848	68.844
24.932	69.916
25.016	71.427
25.1	74.2372
25.184	78.808
25.268	84.7462
25.352	90.871
25.436	95.6357
25.52	97.9101
25.604	97.4659
25.688	94.8767
25.772	91.2581
25.856	87.7329
25.94	85.1029
26.024	83.6563
26.108	83.1435
26.192	82.8006
26.276	81.6151
26.36	78.6633
26.444	73.5138
26.528	66.4282
26.612	58.342
26.696	50.4826
26.78	43.9232
26.864	39.1917
26.948	36.2331
27.028	34.7146

File: C-4040-8_t48_cm-1.asc
PE IR       SPECTRUM    SPECTRUM    ASCII       PEDS        1.60
  -1
C-9B65~1.ASC
17/03/27
18:27:45.00
17/03/27
18:27:45.00
tln
$C-4040-8_t0048$<tbV0>[5.2,-2.6,8.0,0.0,27,1,0]
370
64

2002,4.07
MIRTGS : RIGHTBACK : INTERNAL 2
MIR : ON : INTERNAL 2
OPTKBR

0.200000
8
8.000000
FILLER
RATIO
SPECTRUM
UNLOCKED 256

DOUBLE
64
COMBINED
1
0
0

1.000000
RATIO

1
0
TRUE
51149
0
LEFT NOT FITTED RIGHT NOT FITTED 0
NONE
NONE
15600
12
4.427000
51148
TRUE
1 0 8 72 0 0 0 0

15798

#HDR
-1
-1
#GR
CM-1
%T
2.38419e-05
0.0
5000
-1.000000
4631
8
97.9028
34.7146
#DATA
5000	65.5016
4984	65.6604
4968	64.5704
4952	65.4822
4936	64.9803
4920	65.3111
4904	65.3056
4888	65.467
4872	65.3752
4856	65.0239
4840	65.0745
4824	64.8601
4808	65.2752
4792	65.2858
4776	65.0085
4760	64.8167
4744	64.6838
4728	64.7349
4712	65.0878
4696	65.2265
4680	64.9811
4664	64.4502
4648	64.803
4632	64.952
4616	65.1544
4600	64.8469
4584	65.0907
4568	65.2144
4552	64.8948
4536	64.3617
4520	64.9875
4504	65.5718
4488	65.199
4472	65.5011
4456	65.7687
4440	65.6661
4424	65.6242
4408	66.4015
4392	65.0919
4376	65.3017
4360	51.9599
4344	72.5547
4328	65.6441
4312	65.7877
4296	65.4811
4280	65.8828
4264	65.2938
4248	64.4841
4232	65.2741
4216	65.2776
4200	65.0828
4184	64.3425
4168	64.5085
4152	65.1289
4136	65.1831
4120	64.9308
4104	64.9492
4088	65.1508
4072	65.081
4056	64.8288
4040	65.1914
4024	65.1097
4008	65.2597
3992	65.0206
3976	65.2236
3960	64.9941
3944	65.0331
3928	65.1035
3912	65.134
3896	65.1469
3880	64.9201
3864	65.1778
3848	65.2982
3832	64.971
3816	65.3332
3800	65.2766
3784	65.2703
3768	65.2009
3752	65.0778
3736	65.373
3720	65.3599
3704	65.2565
3688	65.2967
3672	65.1067
3656	65.2429
3640	65.0707
3624	65.0331
3608	65.2737
3592	65.045
3576	65.4263
3560	65.211
3544	64.9475
3528	65.0841
3512	65.0968
3496	65.287
3480	65.2533
3464	64.93
3448	65.1616
3432	65.4471
3416	65.2385
3400	65.3975
3384	65.2754
3368	65.0922
3352	65.2785
3336	65.3542
3320	65.311
3304	65.1185
3288	65.0629
3272	65.1916
3256	65.1715
3240	65.3169
3224	65.0807
3208	65.3613
3192	64.957
3176	65.4684
3160	65.2359
3144	65.0087
3128	64.8742
3112	65.0714
3096	65.2563
3080	65.1594
3064	65.2636
3048	65.2752
3032	65.2181
3016	65.2189
3000	65.3126
2984	65.0856
2968	65.1324
2952	65.1703
2936	65.1019
2920	65.092
2904	65.1781
2888	65.1569
2872	65.0403
2856	65.0317
2840	65.3321
2824	65.2236
2808	65.1829
2792	65.0614
2776	65.1661
2760	65.3338
2744	65.289
2728	65.22
2712	65.2248
2696	65.1617
2680	65.2585
2664	65.216
2648	65.2185
2632	65.2274
2616	65.2399
2600	65.1467
2584	65.251
2568	65.1655
2552	65.3919
2536	65.2647
2520	65.2508
2504	65.1159
2488	65.1052
2472	65.162
2456	65.2395
2440	65.3225
2424	65.3984
2408	65.2442
2392	65.2305
2376	65.3111
2360	65.2689
2344	65.2236
2328	65.2885
2312	65.0725
2296	65.3535
2280	65.2925
2264	65.3223
2248	65.4272
2232	65.3614
2216	65.2221
2200	65.1938
2184	65.1991
2168	65.2181
2152	65.405
2136	65.1703
2120	65.1753
2104	65.2906
2088	65.1335
2072	65.2894
2056	64.7238
2040	65.226
2024	65.4767
2008	65.2192
1992	65.2098
1976	65.1809
1960	65.0892
1944	65.1818
1928	65.3985
1912	65.327
1896	65.2319
1880	65.2385
1864	65.0961
1848	65.1572
1832	65.321
1816	65.2532
1800	65.1353
1784	65.1864
1768	65.2956
1752	65.0367
1736	65.0745
1720	65.2026
1704	65.216
1688	65.0983
1672	65.0846
1656	65.1438
1640	65.2252
1624	65.2248
1608	65.2231
1592	64.9616
1576	65.1204
1560	64.9301
1544	64.9994
1528	64.9238
1512	64.9122
1496	65.2067
1480	65.0205
1464	64.982
1448	64.8255
1432	64.9205
1416	64.9245
1400	64.9301
1384	65.0221
1368	64.9529
1352	64.8608
1336	65.0501
1320	65.0429
1304	64.9763
1288	64.8565
1272	64.8246
1256	64.9883
1240	64.9554
1224	65.0046
1208	65.0697
1192	64.9766
1176	64.7562
1160	64.8776
1144	65.0251
1128	65.0257
1112	64.6709
1096	64.5248
1080	64.6632
1064	64.6885
1048	64.939
1032	64.9165
1016	64.689
1000	64.9009
984	 64.5976
968	 64.416
952	 64.6213
936	 64.6213
920	 64.6906
904	 64.6636
888	 64.5261
872	 64.4641
856	 64.5815
840	 64.6416
824	 64.2743
808	 64.3658
792	 64.2334
776	 64.2779
760	 64.36
744	 65.0681
728	 63.824
712	 63.8411
696	 63.931
680	 63.5139
664	 63.6015
648	 63.4688
632	 63.6032
616	 63.9371
600	 62.7872
584	 62.8819
568	 62.5986
552	 62.5767
536	 62.4992
520	 62.1991
504	 62.0298
488	 60.4762
472	 60.8086
456	 63.3001
440	 61.5
424	 59.5764
408	 60.813
392	 97.7888
376	 59.915
370	 34.7146