Folder: Masteroppgave/Bakgrunnsmateriale/MATLAB/FTIR/ftir_data/subBb/Mapping_121 (part 41)

File: C-4040-8_t94.asc
PE IR       SPECTRUM    SPECTRUM    ASCII       PEDS        1.60
  -1
C-B94A~1.ASC
17/03/27
22:14:29.00
17/03/27
22:14:55.00
tln
$C-4040-8_t0094$<tbV0>[0.0,7.8,8.0,0.0,27,1,0]
27.028
64

2002,4.07
MIRTGS : RIGHTBACK : INTERNAL 2
MIR : ON : INTERNAL 2
OPTKBR

0.200000
8
8.000000
FILLER
RATIO
SPECTRUM
UNLOCKED 256

DOUBLE
64
COMBINED
1
0
0

0.002000
RATIO

1
0
TRUE
51149
0
LEFT NOT FITTED RIGHT NOT FITTED 0
NONE
NONE
15600
12
4.427000
51148
TRUE
1 0 8 72 0 0 0 0

15798

#HDR
-1
-1
#GR
µM
%T
2.38419e-05
0.0
2.000000
0.002000
12515
8
201.465
27.3086
#DATA
2.000000	 65.3836
2.084000	 65.0229
2.168000	 65.0476
2.252000	 65.7322
2.336000	 65.3169
2.420000	 64.7548
2.504000	 65.0336
2.588000	 65.31
2.672000	 65.4206
2.756000	 65.0792
2.840000	 65.3137
2.924000	 65.2325
3.008000	 65.2912
3.092000	 65.0418
3.176000	 65.1983
3.260000	 65.3237
3.344000	 65.3227
3.428000	 64.8405
3.512000	 65.0989
3.596000	 65.3538
3.680000	 65.3905
3.764000	 65.2383
3.848000	 65.2639
3.932000	 65.4652
4.016000	 65.5018
4.100000	 65.319
4.184000	 65.2648
4.268000	 65.3346
4.352000	 65.2995
4.436000	 65.3003
4.520000	 65.3418
4.604000	 65.3844
4.688000	 65.5094
4.772000	 65.1579
4.856000	 65.3145
4.940000	 65.3025
5.024000	 65.3488
5.108000	 65.3478
5.192000	 65.2769
5.276000	 65.4231
5.359999	 65.3448
5.444000	 65.3651
5.528000	 65.3846
5.612000	 65.3859
5.696000	 65.1458
5.780000	 65.0826
5.864000	 65.3712
5.948000	 65.1486
6.032000	 65.2289
6.116000	 65.3715
6.200000	 65.1122
6.284000	 65.1514
6.368000	 64.966
6.452000	 65.2702
6.536000	 65.127
6.620000	 65.2455
6.704000	 65.3072
6.788000	 65.1122
6.872000	 65.1992
6.956000	 65.3949
7.040000	 65.1108
7.124000	 65.2685
7.208000	 65.0549
7.292000	 65.0298
7.376000	 65.265
7.460000	 65.2052
7.544000	 65.1609
7.628000	 64.8796
7.712000	 65.2208
7.796000	 65.0508
7.880000	 64.9944
7.964000	 65.1586
8.048000	 65.0238
8.132000	 65.0474
8.216000	 64.9448
8.300000	 65.0523
8.384000	 65.0597
8.468000	 64.942
8.552000	 65.0485
8.635999	 64.9893
8.719999	 64.8793
8.804000	 64.9246
8.888000	 64.9272
8.972000	 64.9322
9.056000	 64.7797
9.140000	 64.7149
9.224000	 64.8859
9.308000	 64.7922
9.391999	 64.8743
9.475999	 64.6
9.560000	 64.7491
9.644000	 64.5022
9.728000	 64.8755
9.812000	 64.8536
9.896000	 64.5988
9.980000	 64.6827
10.064	64.7921
10.148	64.7654
10.232	64.5587
10.316	64.7416
10.4	64.7345
10.484	64.6508
10.568	64.6991
10.652	64.2889
10.736	64.3394
10.82	65.1177
10.904	64.9279
10.988	64.852
11.072	64.7256
11.156	64.6286
11.24	64.7899
11.324	64.6042
11.408	64.7091
11.492	64.5583
11.576	64.4403
11.66	64.6973
11.744	64.719
11.828	64.6311
11.912	64.6019
11.996	64.5797
12.08	64.5659
12.164	64.2708
12.248	64.2932
12.332	64.2759
12.416	64.0829
12.5	63.9975
12.584	64.2573
12.668	64.1476
12.752	63.84
12.836	63.9215
12.92	64.1112
13.004	64.1263
13.088	63.9171
13.172	63.8923
13.256	64.0259
13.34	64.1663
13.424	64.1549
13.508	63.7348
13.592	63.5996
13.676	63.7648
13.76	63.6633
13.844	63.578
13.928	63.5804
14.012	63.4691
14.096	63.3721
14.18	63.3793
14.264	63.4306
14.348	63.3862
14.432	63.4696
14.516	63.683
14.6	63.6795
14.684	63.4788
14.768	63.3452
14.852	63.2592
14.936	63.0541
15.02	62.9152
15.104	62.9632
15.188	63.0448
15.272	63.1501
15.356	63.2427
15.44	63.2252
15.524	63.1503
15.608	63.0497
15.692	62.8899
15.776	62.7279
15.86	62.6742
15.944	62.8218
16.028	63.0697
16.112	63.114
16.196	62.9119
16.28	62.7377
16.364	62.6771
16.448	62.633
16.532	62.6027
16.616	62.6278
16.7	62.716
16.784	62.8312
16.868	62.8534
16.952	62.7271
17.036	62.5895
17.12	62.5778
17.204	62.6468
17.288	62.6947
17.372	62.7115
17.456	62.7205
17.54	62.6979
17.624	62.614
17.708	62.497
17.792	62.434
17.876	62.5126
17.96	62.6952
18.044	62.807
18.128	62.7177
18.212	62.4736
18.296	62.1958
18.38	61.9359
18.464	61.6978
18.548	61.5169
18.632	61.4451
18.716	61.5031
18.8	61.6559
18.884	61.7819
18.968	61.7217
19.052	61.4361
19.136	61.0926
19.22	60.9292
19.304	61.0371
19.388	61.304
19.472	61.5589
19.556	61.7093
19.64	61.7436
19.724	61.6826
19.808	61.5787
19.892	61.5367
19.976	61.6556
20.06	61.9146
20.144	62.1472
20.228	62.1663
20.312	61.9271
20.396	61.5584
20.48	61.2312
20.564	61.0108
20.648	60.8278
20.732	60.5834
20.816	60.2652
20.9	59.9592
20.984	59.7795
21.068	59.7742
21.152	59.8917
21.236	60.025
21.32	60.0801
21.404	60.0115
21.488	59.8318
21.572	59.5881
21.656	59.3618
21.74	59.254
21.824	59.3381
21.908	59.6029
21.992	59.9357
22.076	60.1705
22.16	60.1897
22.244	60.0212
22.328	59.8146
22.412	59.737
22.496	59.847
22.58	60.0331
22.664	60.091
22.748	59.8402
22.832	59.2324
22.916	58.3772
23	57.5172
23.084	56.897
23.168	56.6666
23.252	56.8151
23.336	57.2071
23.42	57.6402
23.504	57.9274
23.588	57.9555
23.672	57.6945
23.756	57.1938
23.84	56.5843
23.924	56.0731
24.008	55.911
24.092	56.3099
24.176	57.2871
24.26	58.6207
24.344	59.9163
24.428	60.7844
24.512	60.8506
24.596	60.1316
24.68	59.0144
24.764	58.0389
24.848	57.9153
24.932	58.9832
25.016	60.8785
25.1	62.6188
25.184	63.4161
25.268	63.2347
25.352	62.7615
25.436	62.5409
25.52	62.2771
25.604	60.8543
25.688	57.5733
25.772	52.8841
25.856	48.2965
25.94	45.087
26.024	43.7665
26.108	43.9544
26.192	46.2809
26.276	52.825
26.36	67.1334
26.444	91.21
26.528	123.715
26.612	159.145
26.696	189.927
26.78	200.99
26.864	200
26.948	200.291
27.028	191.82

File: C-4040-8_t94_cm-1.asc
PE IR       SPECTRUM    SPECTRUM    ASCII       PEDS        1.60
  -1
C-1E6F~1.ASC
17/03/27
22:14:29.00
17/03/27
22:14:29.00
tln
$C-4040-8_t0094$<tbV0>[0.0,7.8,8.0,0.0,27,1,0]
370
64

2002,4.07
MIRTGS : RIGHTBACK : INTERNAL 2
MIR : ON : INTERNAL 2
OPTKBR

0.200000
8
8.000000
FILLER
RATIO
SPECTRUM
UNLOCKED 256

DOUBLE
64
COMBINED
1
0
0

1.000000
RATIO

1
0
TRUE
51149
0
LEFT NOT FITTED RIGHT NOT FITTED 0
NONE
NONE
15600
12
4.427000
51148
TRUE
1 0 8 72 0 0 0 0

15798

#HDR
-1
-1
#GR
CM-1
%T
2.38419e-05
0.0
5000
-1.000000
4631
8
200
25.9969
#DATA
5000	65.3836
4984	65.5397
4968	65.1753
4952	65.6947
4936	65.1563
4920	65.524
4904	65.2392
4888	65.1145
4872	66.0042
4856	65.135
4840	64.709
4824	65.314
4808	65.0272
4792	65.3225
4776	65.0638
4760	64.9333
4744	64.8661
4728	64.4675
4712	65.0257
4696	64.7331
4680	64.8614
4664	64.8415
4648	65.4647
4632	65.344
4616	65.2823
4600	64.9219
4584	65.5524
4568	65.0854
4552	65.9438
4536	64.9433
4520	65.9338
4504	65.3561
4488	65.8444
4472	65.5634
4456	65.8391
4440	65.7438
4424	65.2953
4408	67.6835
4392	68.6696
4376	62.1249
4360	66.6165
4344	65.8413
4328	65.6199
4312	65.7878
4296	65.832
4280	65.3403
4264	65.7155
4248	65.1372
4232	65.2689
4216	65.37
4200	64.7225
4184	65.1053
4168	65.0662
4152	65.1497
4136	64.9766
4120	64.6928
4104	65.0119
4088	64.7546
4072	64.8831
4056	64.852
4040	65.1028
4024	65.3733
4008	64.8957
3992	65.0357
3976	64.9588
3960	65.0626
3944	65.1145
3928	65.1367
3912	65.398
3896	65.3867
3880	65.4674
3864	65.3108
3848	65.1008
3832	65.0742
3816	65.268
3800	65.3547
3784	65.2748
3768	65.3452
3752	65.3061
3736	65.3572
3720	65.2748
3704	65.2776
3688	65.3777
3672	65.3301
3656	65.2158
3640	65.4054
3624	65.2886
3608	65.0704
3592	65.1887
3576	65.2334
3560	65.2154
3544	64.9524
3528	65.1882
3512	65.3196
3496	64.9405
3480	64.9864
3464	65.4151
3448	65.0696
3432	65.4098
3416	65.3018
3400	65.2113
3384	65.282
3368	65.3366
3352	65.1837
3336	65.2884
3320	65.175
3304	65.2663
3288	65.0475
3272	65.2889
3256	65.1277
3240	65.1785
3224	65.2117
3208	65.4206
3192	65.1762
3176	65.2785
3160	65.4505
3144	65.2853
3128	65.5041
3112	65.285
3096	65.2563
3080	65.2025
3064	65.2653
3048	65.3538
3032	65.4029
3016	65.4175
3000	65.35
2984	65.1158
2968	65.0918
2952	65.1314
2936	65.2696
2920	64.8137
2904	65.258
2888	65.1777
2872	65.1269
2856	65.2402
2840	65.0879
2824	65.2475
2808	65.2763
2792	65.2683
2776	65.3851
2760	65.2408
2744	65.2619
2728	65.2531
2712	65.4109
2696	65.3304
2680	65.3317
2664	65.4171
2648	65.3009
2632	65.3346
2616	65.3559
2600	65.277
2584	65.33
2568	65.2576
2552	65.3188
2536	65.31
2520	65.4509
2504	65.1149
2488	65.4498
2472	65.4514
2456	65.2764
2440	65.3028
2424	65.3648
2408	65.176
2392	65.3129
2376	65.3221
2360	65.2821
2344	65.3209
2328	65.2133
2312	65.4603
2296	65.3439
2280	65.3723
2264	65.2648
2248	65.3618
2232	65.2793
2216	65.3785
2200	65.2689
2184	65.3557
2168	65.4686
2152	65.3827
2136	65.5425
2120	65.2578
2104	65.3085
2088	65.1689
2072	65.7084
2056	65.2595
2040	65.3428
2024	65.3037
2008	65.3559
1992	65.3672
1976	65.327
1960	65.4099
1944	65.3438
1928	65.2648
1912	65.1675
1896	65.4324
1880	65.3995
1864	65.3287
1848	65.3427
1832	65.4132
1816	65.37
1800	65.3318
1784	65.3715
1768	65.3082
1752	65.0967
1736	65.1081
1720	64.992
1704	65.3945
1688	65.0696
1672	65.2209
1656	65.2235
1640	65.3785
1624	65.1993
1608	65.0941
1592	65.1442
1576	65.1301
1560	65.0615
1544	65.1973
1528	65.1531
1512	65.2218
1496	65.3741
1480	65.1843
1464	65.1878
1448	65.1199
1432	65.0906
1416	65.1503
1400	65.2318
1384	65.0899
1368	65.067
1352	65.2415
1336	65.0599
1320	65.1255
1304	65.0606
1288	65.1018
1272	65.095
1256	65.1631
1240	65.0819
1224	65.0407
1208	64.9925
1192	65.0482
1176	65.0446
1160	64.9535
1144	64.9639
1128	64.8729
1112	64.9795
1096	64.6827
1080	64.9136
1064	64.8782
1048	64.7859
1032	64.7217
1016	64.8456
1000	64.6968
984	 64.752
968	 64.7676
952	 64.7299
936	 64.1302
920	 65.1475
904	 64.7964
888	 64.7597
872	 64.6722
856	 64.7219
840	 64.6077
824	 64.3575
808	 64.1826
792	 64.279
776	 64.0448
760	 63.8754
744	 64.0921
728	 63.7127
712	 63.422
696	 63.3835
680	 63.4304
664	 62.924
648	 63.2308
632	 62.6769
616	 62.8167
600	 62.674
584	 62.5796
568	 62.6374
552	 62.7429
536	 61.4488
520	 60.9284
504	 61.5475
488	 61.194
472	 59.951
456	 59.6893
440	 59.9364
424	 57.9597
408	 60.8596
392	 62.3545
376	 152.462
370	 191.82

File: C-4040-8_t95.asc
PE IR       SPECTRUM    SPECTRUM    ASCII       PEDS        1.60
  -1
C-B94E~1.ASC
17/03/27
22:19:06.00
17/03/27
22:19:32.00
tln
$C-4040-8_t0095$<tbV0>[-2.6,7.8,8.0,0.0,27,1,0]
27.028
64

2002,4.07
MIRTGS : RIGHTBACK : INTERNAL 2
MIR : ON : INTERNAL 2
OPTKBR

0.200000
8
8.000000
FILLER
RATIO
SPECTRUM
UNLOCKED 256

DOUBLE
64
COMBINED
1
0
0

0.002000
RATIO

1
0
TRUE
51149
0
LEFT NOT FITTED RIGHT NOT FITTED 0
NONE
NONE
15600
12
4.427000
51148
TRUE
1 0 8 72 0 0 0 0

15798

#HDR
-1
-1
#GR
µM
%T
2.38419e-05
0.0
2.000000
0.002000
12515
8
101.921
-17.6355
#DATA
2.000000	 65.4427
2.084000	 65.2294
2.168000	 65.5313
2.252000	 65.1585
2.336000	 64.9382
2.420000	 64.9276
2.504000	 65.2358
2.588000	 65.1926
2.672000	 65.2593
2.756000	 65.2708
2.840000	 65.2721
2.924000	 65.2628
3.008000	 65.2754
3.092000	 65.2072
3.176000	 65.1984
3.260000	 65.3031
3.344000	 65.5148
3.428000	 64.9403
3.512000	 64.9611
3.596000	 65.2811
3.680000	 65.1947
3.764000	 65.3393
3.848000	 65.2138
3.932000	 65.6066
4.016000	 65.5061
4.100000	 65.4894
4.184000	 65.2126
4.268000	 65.3332
4.352000	 65.4092
4.436000	 65.3153
4.520000	 65.2816
4.604000	 65.3483
4.688000	 65.5038
4.772000	 65.433
4.856000	 65.7738
4.940000	 65.3579
5.024000	 65.3289
5.108000	 65.487
5.192000	 65.2968
5.276000	 65.3692
5.359999	 65.2887
5.444000	 65.5032
5.528000	 65.3441
5.612000	 65.3241
5.696000	 65.1858
5.780000	 65.0019
5.864000	 65.427
5.948000	 65.2374
6.032000	 65.3283
6.116000	 65.352
6.200000	 65.2428
6.284000	 65.1489
6.368000	 65.0612
6.452000	 65.2012
6.536000	 65.1684
6.620000	 65.2204
6.704000	 65.1903
6.788000	 65.0844
6.872000	 65.2848
6.956000	 65.16
7.040000	 65.1381
7.124000	 65.406
7.208000	 65.2024
7.292000	 64.9212
7.376000	 65.1331
7.460000	 65.0971
7.544000	 65.2839
7.628000	 64.8424
7.712000	 65.1347
7.796000	 65.2408
7.880000	 65.0144
7.964000	 65.0325
8.048000	 64.9839
8.132000	 64.8622
8.216000	 64.9933
8.300000	 64.9315
8.384000	 65.046
8.468000	 64.8954
8.552000	 64.9991
8.635999	 64.9295
8.719999	 64.8957
8.804000	 64.9855
8.888000	 64.8444
8.972000	 64.9068
9.056000	 64.5817
9.140000	 64.6336
9.224000	 64.8511
9.308000	 65.0464
9.391999	 64.6275
9.475999	 64.6768
9.560000	 64.8996
9.644000	 64.5314
9.728000	 64.9522
9.812000	 65.0364
9.896000	 64.605
9.980000	 64.6728
10.064	64.4567
10.148	64.7644
10.232	64.6369
10.316	64.5509
10.4	64.6547
10.484	64.4295
10.568	64.6071
10.652	65.0453
10.736	64.885
10.82	64.5744
10.904	64.0225
10.988	64.2986
11.072	64.8773
11.156	64.7334
11.24	64.6515
11.324	64.2896
11.408	63.9786
11.492	64.2635
11.576	64.5342
11.66	64.5477
11.744	64.6948
11.828	64.4125
11.912	64.2264
11.996	64.4323
12.08	64.5025
12.164	64.1684
12.248	64.1237
12.332	64.1376
12.416	63.9306
12.5	64.0356
12.584	64.233
12.668	64.035
12.752	63.9296
12.836	64.0855
12.92	64.1217
13.004	64.0295
13.088	63.84
13.172	63.7966
13.256	64.1943
13.34	64.4452
13.424	64.5256
13.508	63.8339
13.592	63.3963
13.676	63.6441
13.76	63.6672
13.844	63.5942
13.928	63.6932
14.012	63.5645
14.096	63.4546
14.18	63.5482
14.264	63.4842
14.348	63.278
14.432	63.3645
14.516	63.6735
14.6	63.753
14.684	63.667
14.768	63.6804
14.852	63.6967
14.936	63.5112
15.02	63.1663
15.104	62.8678
15.188	62.7321
15.272	62.7882
15.356	62.9483
15.44	63.0341
15.524	63.0755
15.608	63.1414
15.692	63.0729
15.776	62.94
15.86	63.0173
15.944	63.2291
16.028	63.3352
16.112	63.2848
16.196	63.1576
16.28	63.0752
16.364	63.0218
16.448	62.8576
16.532	62.6459
16.616	62.5775
16.7	62.5987
16.784	62.5581
16.868	62.5159
16.952	62.5499
17.036	62.5721
17.12	62.557
17.204	62.6304
17.288	62.8334
17.372	63.0306
17.456	63.0554
17.54	62.827
17.624	62.4151
17.708	62.0174
17.792	61.823
17.876	61.8956
17.96	62.1174
18.044	62.2452
18.128	62.0939
18.212	61.7026
18.296	61.2874
18.38	61.0415
18.464	61.0376
18.548	61.239
18.632	61.5133
18.716	61.7051
18.8	61.7508
18.884	61.7061
18.968	61.6608
19.052	61.6672
19.136	61.7358
19.22	61.8454
19.304	61.9445
19.388	61.9984
19.472	62.0464
19.556	62.1536
19.64	62.3029
19.724	62.3767
19.808	62.259
19.892	61.9234
19.976	61.4386
20.06	60.9179
20.144	60.4741
20.228	60.1894
20.312	60.063
20.396	59.9942
20.48	59.8606
20.564	59.6363
20.648	59.4227
20.732	59.361
20.816	59.5265
20.9	59.8578
20.984	60.1882
21.068	60.3536
21.152	60.3078
21.236	60.1422
21.32	60.0125
21.404	60.0285
21.488	60.1974
21.572	60.4654
21.656	60.7839
21.74	61.1106
21.824	61.3729
21.908	61.4452
21.992	61.2114
22.076	60.6735
22.16	59.9946
22.244	59.4028
22.328	59.0362
22.412	58.8481
22.496	58.6497
22.58	58.3039
22.664	57.8387
22.748	57.4307
22.832	57.22
22.916	57.18
23	57.0548
23.084	56.5659
23.168	55.565
23.252	54.176
23.336	52.7956
23.42	51.858
23.504	51.6895
23.588	52.3616
23.672	53.6979
23.756	55.3429
23.84	56.896
23.924	58.0385
24.008	58.6098
24.092	58.6216
24.176	58.2552
24.26	57.7892
24.344	57.569
24.428	57.9085
24.512	59.0776
24.596	61.1625
24.68	64.1966
24.764	68.2298
24.848	73.0216
24.932	78.0677
25.016	82.7375
25.1	86.5028
25.184	88.894
25.268	89.6984
25.352	89.0684
25.436	87.7312
25.52	86.7448
25.604	87.0041
25.688	88.6493
25.772	91.0032
25.856	93.0771
25.94	94.5251
26.024	95.8071
26.108	97.7922
26.192	100.388
26.276	101.92
26.36	99.1112
26.444	88.8721
26.528	70.13
26.612	44.9587
26.696	18.2022
26.78	-3.879679
26.864	-16.0899
26.948	-16.1501
27.028	-6.242990

File: C-4040-8_t95_cm-1.asc
PE IR       SPECTRUM    SPECTRUM    ASCII       PEDS        1.60
  -1
C-1EEE~1.ASC
17/03/27
22:19:06.00
17/03/27
22:19:06.00
tln
$C-4040-8_t0095$<tbV0>[-2.6,7.8,8.0,0.0,27,1,0]
370
64

2002,4.07
MIRTGS : RIGHTBACK : INTERNAL 2
MIR : ON : INTERNAL 2
OPTKBR

0.200000
8
8.000000
FILLER
RATIO
SPECTRUM
UNLOCKED 256

DOUBLE
64
COMBINED
1
0
0

1.000000
RATIO

1
0
TRUE
51149
0
LEFT NOT FITTED RIGHT NOT FITTED 0
NONE
NONE
15600
12
4.427000
51148
TRUE
1 0 8 72 0 0 0 0

15798

#HDR
-1
-1
#GR
CM-1
%T
2.38419e-05
0.0
5000
-1.000000
4631
8
101.721
-17.1446
#DATA
5000	65.4427
4984	65.0223
4968	64.6605
4952	65.185
4936	64.9284
4920	64.9397
4904	65.0454
4888	66.1722
4872	65.0824
4856	65.0938
4840	64.9769
4824	65.2193
4808	65.1747
4792	65.2332
4776	65.088
4760	65.0858
4744	64.871
4728	64.5879
4712	65.0157
4696	65.2551
4680	64.9395
4664	65.3121
4648	65.4556
4632	65.1495
4616	65.5923
4600	65.3905
4584	65.1974
4568	65.1445
4552	65.6205
4536	65.0149
4520	65.1679
4504	64.9445
4488	65.4586
4472	65.1222
4456	64.974
4440	65.115
4424	65.1935
4408	65.9582
4392	63.7776
4376	60.8167
4360	65.836
4344	65.4187
4328	65.2989
4312	65.0029
4296	65.1981
4280	64.9395
4264	65.532
4248	64.6197
4232	65.0423
4216	64.8018
4200	64.3503
4184	64.9587
4168	64.3304
4152	65.5346
4136	65.1914
4120	65.2688
4104	65.2698
4088	64.8687
4072	64.8741
4056	65.0296
4040	65.0994
4024	65.2033
4008	65.2822
3992	65.2533
3976	65.1661
3960	65.0766
3944	65.2183
3928	64.9362
3912	65.5531
3896	64.9559
3880	65.0897
3864	65.1925
3848	64.9986
3832	65.2257
3816	65.6457
3800	65.2361
3784	65.2042
3768	65.5162
3752	65.3884
3736	65.3088
3720	65.1316
3704	65.2197
3688	65.3474
3672	65.073
3656	65.3862
3640	65.3841
3624	65.4351
3608	65.022
3592	65.3696
3576	65.2359
3560	65.4646
3544	65.0037
3528	65.3988
3512	65.3042
3496	65.3007
3480	65.0587
3464	65.4576
3448	65.2465
3432	65.5757
3416	65.2616
3400	65.4361
3384	65.035
3368	65.1335
3352	65.3686
3336	65.1312
3320	65.2177
3304	65.2107
3288	65.1963
3272	65.4148
3256	65.1683
3240	65.2039
3224	65.3013
3208	65.1497
3192	64.836
3176	65.3102
3160	65.3546
3144	65.1034
3128	65.5329
3112	65.261
3096	65.1995
3080	65.2001
3064	65.219
3048	65.3697
3032	65.3278
3016	65.3421
3000	65.4274
2984	65.3672
2968	65.3781
2952	65.1887
2936	65.1449
2920	64.9359
2904	65.185
2888	65.1864
2872	65.2488
2856	65.2409
2840	65.1884
2824	65.2797
2808	65.3062
2792	65.4028
2776	65.292
2760	65.3176
2744	65.1481
2728	65.2611
2712	65.2285
2696	65.2008
2680	65.2444
2664	65.3896
2648	65.2527
2632	65.3113
2616	65.2884
2600	65.2201
2584	65.3765
2568	65.3954
2552	65.4068
2536	65.3747
2520	65.2357
2504	65.1804
2488	65.484
2472	65.4331
2456	65.2486
2440	65.4596
2424	65.4314
2408	65.1416
2392	65.1761
2376	65.1036
2360	65.3135
2344	65.3322
2328	65.3128
2312	65.3868
2296	65.3859
2280	65.3412
2264	65.3323
2248	65.2885
2232	65.291
2216	65.3545
2200	65.245
2184	65.4206
2168	65.4491
2152	65.3193
2136	65.5166
2120	65.3176
2104	65.4933
2088	65.51
2072	66.0731
2056	65.5276
2040	65.4818
2024	65.366
2008	65.3349
1992	65.352
1976	65.3006
1960	65.5047
1944	65.4861
1928	65.2952
1912	65.2367
1896	65.3727
1880	65.4478
1864	65.2979
1848	65.2946
1832	65.5249
1816	65.3461
1800	65.4107
1784	65.3607
1768	65.38
1752	65.2013
1736	64.9843
1720	65.0281
1704	65.4239
1688	65.276
1672	65.3416
1656	65.2993
1640	65.3252
1624	65.2085
1608	65.2436
1592	65.1391
1576	65.1733
1560	65.1671
1544	65.2047
1528	65.1588
1512	65.2531
1496	65.272
1480	65.0297
1464	65.3581
1448	65.3109
1432	65.0623
1416	65.1588
1400	65.3241
1384	65.225
1368	64.8807
1352	65.1085
1336	65.0959
1320	65.1557
1304	64.9974
1288	65.1817
1272	65.1296
1256	65.031
1240	64.9388
1224	64.9321
1208	64.8949
1192	65.0324
1176	64.8448
1160	64.9408
1144	64.9695
1128	64.8613
1112	64.8945
1096	64.4332
1080	64.9487
1064	64.6331
1048	64.9243
1032	64.6717
1016	64.7959
1000	64.5838
984	 64.733
968	 64.6086
952	 64.4574
936	 65.0369
920	 64.2854
904	 64.8836
888	 64.5927
872	 64.1298
856	 64.5973
840	 64.225
824	 64.2753
808	 64.0216
792	 64.1666
776	 64.1419
760	 63.7564
744	 64.445
728	 63.7003
712	 63.4909
696	 63.2607
680	 63.6581
664	 63.0072
648	 63.0304
632	 62.9517
616	 63.1104
600	 62.593
584	 62.5574
568	 62.5118
552	 62.134
536	 61.584
520	 61.8599
504	 62.1499
488	 59.8336
472	 60.2453
456	 61.417
440	 57.5161
424	 52.3239
408	 59.0353
392	 86.8019
376	 50.0922
370	 -6.242990

File: C-4040-8_t96.asc
PE IR       SPECTRUM    SPECTRUM    ASCII       PEDS        1.60
  -1
C-B942~1.ASC
17/03/27
22:23:43.00
17/03/27
22:24:09.00
tln
$C-4040-8_t0096$<tbV0>[-5.2,7.8,8.0,0.0,27,1,0]
27.028
64

2002,4.07
MIRTGS : RIGHTBACK : INTERNAL 2
MIR : ON : INTERNAL 2
OPTKBR

0.200000
8
8.000000
FILLER
RATIO
SPECTRUM
UNLOCKED 256

DOUBLE
64
COMBINED
1
0
0

0.002000
RATIO

1
0
TRUE
51149
0
LEFT NOT FITTED RIGHT NOT FITTED 0
NONE
NONE
15600
12
4.427000
51148
TRUE
1 0 8 72 0 0 0 0

15798

#HDR
-1
-1
#GR
µM
%T
2.38419e-05
0.0
2.000000
0.002000
12515
8
115.538
48.9121
#DATA
2.000000	 65.5339
2.084000	 65.0908
2.168000	 64.9491
2.252000	 64.2079
2.336000	 65.0413
2.420000	 64.8494
2.504000	 65.1777
2.588000	 65.0331
2.672000	 65.2233
2.756000	 65.2556
2.840000	 65.2467
2.924000	 64.9767
3.008000	 65.2699
3.092000	 65.1273
3.176000	 65.0935
3.260000	 65.2887
3.344000	 65.331
3.428000	 64.8546
3.512000	 64.7973
3.596000	 65.3538
3.680000	 65.3111
3.764000	 65.2052
3.848000	 65.2448
3.932000	 65.3609
4.016000	 65.3868
4.100000	 65.3454
4.184000	 65.3162
4.268000	 65.2609
4.352000	 65.2558
4.436000	 65.1998
4.520000	 65.3115
4.604000	 65.3114
4.688000	 65.5342
4.772000	 65.3003
4.856000	 65.2455
4.940000	 65.2089
5.024000	 65.3547
5.108000	 65.2644
5.192000	 65.4041
5.276000	 65.3619
5.359999	 65.2882
5.444000	 65.4649
5.528000	 65.3118
5.612000	 65.2588
5.696000	 65.2289
5.780000	 64.9553
5.864000	 65.3648
5.948000	 65.2025
6.032000	 65.2102
6.116000	 65.3499
6.200000	 65.0682
6.284000	 65.1447
6.368000	 65.0245
6.452000	 64.9918
6.536000	 65.1398
6.620000	 65.2063
6.704000	 65.0844
6.788000	 65.1291
6.872000	 65.1082
6.956000	 65.364
7.040000	 65.0322
7.124000	 65.2475
7.208000	 65.07
7.292000	 64.8864
7.376000	 65.1055
7.460000	 64.9957
7.544000	 65.0407
7.628000	 64.8766
7.712000	 65.065
7.796000	 65.0948
7.880000	 64.8403
7.964000	 65.0206
8.048000	 64.9463
8.132000	 64.9443
8.216000	 65.0715
8.300000	 65.0739
8.384000	 64.9662
8.468000	 64.9067
8.552000	 64.8163
8.635999	 64.7581
8.719999	 64.7415
8.804000	 64.8469
8.888000	 64.7565
8.972000	 64.7359
9.056000	 64.7489
9.140000	 64.2532
9.224000	 64.6594
9.308000	 64.6621
9.391999	 64.7977
9.475999	 64.7324
9.560000	 64.964
9.644000	 64.8121
9.728000	 64.9159
9.812000	 64.6226
9.896000	 64.3531
9.980000	 64.493
10.064	64.6874
10.148	64.7315
10.232	64.746
10.316	64.4916
10.4	64.4181
10.484	64.4771
10.568	64.5674
10.652	64.17
10.736	63.9706
10.82	64.9934
10.904	64.6618
10.988	64.5665
11.072	64.3966
11.156	64.3054
11.24	64.7513
11.324	64.7844
11.408	64.6066
11.492	64.7149
11.576	64.5739
11.66	64.6023
11.744	64.6044
11.828	64.3343
11.912	63.9989
11.996	64.1043
12.08	64.0885
12.164	63.8329
12.248	63.9959
12.332	64.0342
12.416	63.988
12.5	63.9444
12.584	64.119
12.668	64.1521
12.752	63.9946
12.836	64.0534
12.92	64.0039
13.004	63.9178
13.088	63.9135
13.172	63.9051
13.256	64.1062
13.34	64.2908
13.424	64.392
13.508	63.8641
13.592	63.4207
13.676	63.5948
13.76	63.5775
13.844	63.4279
13.928	63.3355
14.012	63.1641
14.096	63.1391
14.18	63.1746
14.264	63.0468
14.348	62.9051
14.432	62.9968
14.516	63.2064
14.6	63.365
14.684	63.499
14.768	63.5023
14.852	63.2829
14.936	62.964
15.02	62.7974
15.104	62.8357
15.188	62.8406
15.272	62.8079
15.356	62.9151
15.44	63.0414
15.524	63.0038
15.608	62.8635
15.692	62.7751
15.776	62.8114
15.86	62.9093
15.944	62.9892
16.028	63.0596
16.112	63.0309
16.196	62.7609
16.28	62.4199
16.364	62.3446
16.448	62.5367
16.532	62.7017
16.616	62.7056
16.7	62.6697
16.784	62.681
16.868	62.6565
16.952	62.4998
17.036	62.2852
17.12	62.2013
17.204	62.3178
17.288	62.517
17.372	62.6471
17.456	62.6534
17.54	62.5767
17.624	62.4516
17.708	62.2758
17.792	62.0861
17.876	61.9869
17.96	62.0436
18.044	62.1901
18.128	62.2727
18.212	62.1693
18.296	61.8778
18.38	61.5463
18.464	61.3721
18.548	61.4258
18.632	61.5875
18.716	61.6848
18.8	61.6467
18.884	61.5088
18.968	61.309
19.052	61.0644
19.136	60.8346
19.22	60.729
19.304	60.8158
19.388	61.0612
19.472	61.3872
19.556	61.7354
19.64	62.0423
19.724	62.1843
19.808	62.0396
19.892	61.6363
19.976	61.1983
20.06	60.9869
20.144	61.0827
20.228	61.3339
20.312	61.5051
20.396	61.4635
20.48	61.2443
20.564	60.9659
20.648	60.7175
20.732	60.5272
20.816	60.4036
20.9	60.3575
20.984	60.3739
21.068	60.382
21.152	60.2961
21.236	60.0841
21.32	59.792
21.404	59.5012
21.488	59.2542
21.572	59.0379
21.656	58.8252
21.74	58.627
21.824	58.5009
21.908	58.5092
21.992	58.6513
22.076	58.8417
22.16	58.962
22.244	58.941
22.328	58.7865
22.412	58.5585
22.496	58.3107
22.58	58.0852
22.664	57.9224
22.748	57.854
22.832	57.8858
22.916	57.9863
23	58.135
23.084	58.3494
23.168	58.6799
23.252	59.1707
23.336	59.8247
23.42	60.5301
23.504	61.1193
23.588	61.4206
23.672	61.3122
23.756	60.7475
23.84	59.7413
23.924	58.4016
24.008	56.8838
24.092	55.3409
24.176	53.9126
24.26	52.6785
24.344	51.6645
24.428	50.8425
24.512	50.095
24.596	49.3864
24.68	48.9305
24.764	49.1843
24.848	50.6664
24.932	53.5766
25.016	57.4833
25.1	61.3383
25.184	64.0202
25.268	64.9933
25.352	64.5594
25.436	63.631
25.52	63.1674
25.604	63.6578
25.688	65.1854
25.772	67.5756
25.856	70.64
25.94	73.9583
26.024	77.0094
26.108	79.3805
26.192	81.4431
26.276	84.1714
26.36	88.9163
26.444	96.0434
26.528	104.47
26.612	111.78
26.696	115.404
26.78	113.84
26.864	107.548
26.948	98.5828
27.028	89.869