Folder: Masteroppgave/Bakgrunnsmateriale/MATLAB/FTIR/ftir_data/subBb/Mapping_36 (part 8)

File: C-4040-8_t15.asc
PE IR       SPECTRUM    SPECTRUM    ASCII       PEDS        1.60
  -1
C-B92E~1.ASC
17/05/02
12:07:57.00
17/05/02
12:08:24.00
tln
$C-4040-8_t0015$<tbV0>[2.5,-3.0,8.0,0.0,22,1,0]
27.028
64

2002,4.07
MIRTGS : RIGHTBACK : INTERNAL 2
MIR : ON : INTERNAL 2
OPTKBR

0.200000
8
8.000000
FILLER
RATIO
SPECTRUM
UNLOCKED 256

DOUBLE
64
COMBINED
1
0
0

0.002000
RATIO

1
0
TRUE
51149
0
LEFT NOT FITTED RIGHT NOT FITTED 0
NONE
NONE
15600
12
4.427000
51148
TRUE
1 0 8 72 0 0 0 0

15798

#HDR
-1
-1
#GR
µM
%T
2.38419e-05
0.0
1.282000
0.002000
12874
8
94.2525
30.7509
#DATA
1.282000	 64.2974
1.368000	 61.4222
1.454000	 65.0212
1.540000	 65.4406
1.626000	 64.6023
1.712000	 64.1888
1.798000	 64.5421
1.884000	 60.1166
1.970000	 63.7295
2.056000	 63.5231
2.142000	 63.5495
2.228000	 63.6134
2.314000	 63.4289
2.400000	 63.0179
2.486000	 62.7911
2.572000	 63.1279
2.658000	 62.3875
2.744000	 62.1487
2.830000	 61.7311
2.916000	 61.5793
3.002000	 61.1176
3.088000	 60.7772
3.174000	 60.2965
3.260000	 60.045
3.346000	 59.5643
3.432000	 59.122
3.518000	 58.6935
3.604000	 58.4614
3.690000	 58.0731
3.776000	 57.7296
3.862000	 57.4229
3.948000	 57.1173
4.034000	 56.8014
4.120000	 56.4551
4.206000	 55.9624
4.292000	 55.5226
4.378000	 55.296
4.464000	 55.0928
4.550000	 54.7811
4.636000	 54.4691
4.722000	 54.0986
4.808000	 53.8621
4.894000	 53.5427
4.980000	 53.3237
5.066000	 53.1207
5.152000	 52.9568
5.238000	 52.4937
5.324000	 52.3485
5.410000	 52.1116
5.496000	 51.8777
5.582000	 51.6029
5.668000	 51.4395
5.754000	 51.2399
5.840000	 51.0006
5.926000	 50.8221
6.012000	 50.6473
6.098000	 50.4183
6.184000	 50.3845
6.270000	 50.0653
6.356000	 49.924
6.442000	 49.7231
6.528000	 49.6098
6.614000	 49.5848
6.700000	 49.302
6.786000	 49.2703
6.872000	 49.0936
6.958000	 48.9969
7.044000	 48.8751
7.130000	 48.715
7.216000	 48.6513
7.302000	 48.3713
7.388000	 48.2929
7.474000	 48.1601
7.560000	 47.9884
7.646000	 47.9556
7.732000	 47.7958
7.818000	 47.7896
7.904000	 47.7435
7.990000	 47.383
8.076000	 47.4152
8.161999	 47.392
8.248000	 47.2277
8.334000	 47.1904
8.420000	 47.0205
8.506000	 47.0133
8.592000	 46.9305
8.678000	 46.7701
8.763999	 46.54
8.850000	 46.3715
8.936000	 46.2465
9.022000	 46.1538
9.108000	 46.1018
9.193999	 46.1723
9.280000	 46.0904
9.366000	 45.9422
9.452000	 45.8631
9.538000	 45.744
9.624000	 45.8382
9.710000	 45.7193
9.795999	 45.5844
9.882000	 45.5005
9.968000	 45.4485
10.054	45.3071
10.14	45.4635
10.226	45.5884
10.312	45.2381
10.398	45.2285
10.484	44.8377
10.57	44.5038
10.656	44.0394
10.742	44.4128
10.828	44.6139
10.914	44.4767
11	44.7467
11.086	44.2672
11.172	44.2387
11.258	44.0743
11.344	44.1376
11.43	43.8834
11.516	44.0596
11.602	43.9718
11.688	43.8607
11.774	43.8971
11.86	43.4885
11.946	43.4528
12.032	43.4656
12.118	43.2695
12.204	43.4714
12.29	43.6012
12.376	43.2367
12.462	43.1012
12.548	43.0793
12.634	43.1311
12.72	43.2621
12.806	43.2415
12.892	43.1224
12.978	42.9316
13.064	42.8673
13.15	42.9408
13.236	42.834
13.322	42.6967
13.408	42.6371
13.494	42.7287
13.58	42.6709
13.666	42.399
13.752	42.2561
13.838	42.2244
13.924	42.0924
14.01	41.9648
14.096	41.9276
14.182	41.8947
14.268	41.9295
14.354	41.9727
14.44	41.8175
14.526	41.5801
14.612	41.3809
14.698	41.1959
14.784	41.0977
14.87	41.1506
14.956	41.1523
15.042	41.0391
15.128	40.9925
15.214	41.0308
15.3	41.0428
15.386	40.9114
15.472	40.637
15.558	40.4359
15.644	40.414
15.73	40.3678
15.816	40.2244
15.902	40.2113
15.988	40.3239
16.074	40.2726
16.16	40.0621
16.246	39.9569
16.332	39.962
16.418	39.9275
16.504	39.8936
16.59	39.9109
16.676	39.8899
16.762	39.8004
16.848	39.7107
16.934	39.5813
17.02	39.326
17.106	39.0651
17.192	39.0054
17.278	39.08
17.364	39.0269
17.45	38.7862
17.536	38.5428
17.622	38.4589
17.708	38.5489
17.794	38.725
17.88	38.8673
17.966	38.9142
18.052	38.8923
18.138	38.8278
18.224	38.6967
18.31	38.5118
18.396	38.3561
18.482	38.2617
18.568	38.153
18.654	37.9737
18.74	37.7643
18.826	37.5968
18.912	37.5035
18.998	37.4695
19.084	37.4652
19.17	37.4891
19.256	37.5435
19.342	37.5863
19.428	37.5519
19.514	37.4433
19.6	37.3682
19.686	37.4405
19.772	37.6433
19.858	37.8167
19.944	37.7918
20.03	37.5277
20.116	37.1254
20.202	36.7283
20.288	36.4361
20.374	36.2868
20.46	36.2673
20.546	36.3238
20.632	36.3844
20.718	36.394
20.804	36.3302
20.89	36.2008
20.976	36.0397
21.062	35.8979
21.148	35.8203
21.234	35.8127
21.32	35.8326
21.406	35.8118
21.492	35.7023
21.578	35.5081
21.664	35.2774
21.75	35.0695
21.836	34.9194
21.922	34.8282
22.008	34.7755
22.094	34.7384
22.18	34.6987
22.266	34.6402
22.352	34.5474
22.438	34.414
22.524	34.2409
22.61	34.0303
22.696	33.7794
22.782	33.4871
22.868	33.1679
22.954	32.8591
23.04	32.6098
23.126	32.471
23.212	32.456
23.298	32.5487
23.384	32.7058
23.47	32.8745
23.556	33.0007
23.642	33.0388
23.728	32.9597
23.814	32.7513
23.9	32.4238
23.986	32.0191
24.072	31.5974
24.158	31.2184
24.244	30.9263
24.33	30.7656
24.416	30.7952
24.502	31.0784
24.588	31.6747
24.674	32.5949
24.76	33.7615
24.846	34.9868
24.932	36.005
25.018	36.5901
25.104	36.6652
25.19	36.3467
25.276	35.8977
25.362	35.627
25.448	35.7367
25.534	36.2131
25.62	36.8332
25.706	37.2304
25.792	37.1133
25.878	36.4363
25.964	35.4755
26.05	34.767
26.136	34.8091
26.222	35.7857
26.308	37.4144
26.394	39.0618
26.48	40.0357
26.566	39.8569
26.652	38.505
26.738	36.4188
26.824	34.2779
26.91	32.703
26.996	32.1698
27.028	32.1816

File: C-4040-8_t15_cm-1.asc
PE IR       SPECTRUM    SPECTRUM    ASCII       PEDS        1.60
  -1
C-1AEE~1.ASC
17/05/02
12:07:57.00
17/05/02
12:07:57.00
tln
$C-4040-8_t0015$<tbV0>[2.5,-3.0,8.0,0.0,22,1,0]
370
64

2002,4.07
MIRTGS : RIGHTBACK : INTERNAL 2
MIR : ON : INTERNAL 2
OPTKBR

0.200000
8
8.000000
FILLER
RATIO
SPECTRUM
UNLOCKED 256

DOUBLE
64
COMBINED
1
0
0

1.000000
RATIO

1
0
TRUE
51149
0
LEFT NOT FITTED RIGHT NOT FITTED 0
NONE
NONE
15600
12
4.427000
51148
TRUE
1 0 8 72 0 0 0 0

15798

#HDR
-1
-1
#GR
CM-1
%T
2.38419e-05
0.0
7800
-1.000000
7431
8
94.4559
30.7626
#DATA
7800	64.2974
7775	70.0486
7750	66.9924
7725	70.2523
7700	70.2298
7675	70.1869
7650	67.6905
7625	69.2288
7600	71.8776
7575	65.9495
7550	63.0519
7525	63.7562
7500	60.9018
7475	63.6607
7450	66.6189
7425	65.5287
7400	65.39
7375	60.8526
7350	66.3408
7325	68.2278
7300	66.5427
7275	66.4368
7250	64.4966
7225	65.2512
7200	64.849
7175	64.8704
7150	66.1571
7125	66.6567
7100	63.6865
7075	64.2326
7050	64.8229
7025	63.2116
7000	64.1101
6975	63.9225
6950	64.3954
6925	62.9838
6900	64.1008
6875	64.7777
6850	63.6722
6825	66.1296
6800	66.2472
6775	62.6717
6750	64.7157
6725	65.2983
6700	63.1724
6675	63.0223
6650	63.6577
6625	65.2321
6600	63.9868
6575	63.0686
6550	63.3852
6525	62.4323
6500	64.873
6475	64.732
6450	63.8148
6425	63.269
6400	64.7974
6375	63.3522
6350	63.7812
6325	63.5175
6300	64.3582
6275	63.2186
6250	64.6104
6225	64.6666
6200	64.5238
6175	65.5378
6150	64.6173
6125	64.0091
6100	63.5483
6075	64.7718
6050	63.8111
6025	63.639
6000	65.0256
5975	65.1523
5950	64.4729
5925	64.2632
5900	64.9074
5875	64.4599
5850	64.764
5825	64.5904
5800	63.7294
5775	64.0306
5750	64.5081
5725	64.1362
5700	64.733
5675	63.7346
5650	63.6623
5625	64.8256
5600	63.8305
5575	64.106
5550	64.2163
5525	64.3404
5500	64.0525
5475	64.1747
5450	64.2481
5425	64.2175
5400	64.9572
5375	64.0182
5350	64.3151
5325	60.011
5300	61.997
5275	62.4065
5250	66.5987
5225	63.6161
5200	63.7147
5175	63.7085
5150	63.8602
5125	64.1618
5100	63.9772
5075	63.7732
5050	63.6942
5025	64.0171
5000	64.0284
4975	64.3696
4950	63.8043
4925	63.5644
4900	63.8717
4875	64.0841
4850	63.8135
4825	63.6527
4800	63.8026
4775	63.9736
4750	63.6489
4725	63.689
4700	63.6557
4675	63.465
4650	63.7499
4625	63.9397
4600	63.677
4575	63.5433
4550	63.5312
4525	63.7239
4500	63.7574
4475	63.8955
4450	63.5565
4425	63.7554
4400	63.7945
4375	56.2991
4350	64.6684
4325	63.6708
4300	63.5746
4275	63.6407
4250	63.5439
4225	63.6393
4200	62.9868
4175	63.132
4150	62.9588
4125	62.988
4100	62.9676
4075	62.8093
4050	63.0148
4025	62.772
4000	62.8598
3975	62.9094
3950	62.7332
3925	62.9353
3900	62.6482
3875	62.3812
3850	62.8977
3825	62.6237
3800	62.5554
3775	62.562
3750	62.6251
3725	62.2381
3700	62.4295
3675	62.1762
3650	62.0941
3625	61.9255
3600	62.0035
3575	61.8972
3550	61.9652
3525	61.6153
3500	61.5571
3475	61.6305
3450	61.8831
3425	61.3997
3400	61.3845
3375	61.2292
3350	61.3398
3325	61.1081
3300	60.98
3275	60.8963
3250	60.7694
3225	60.5443
3200	60.5412
3175	60.5158
3150	60.2894
3125	60.2599
3100	60.3347
3075	60.1329
3050	59.9894
3025	59.8639
3000	59.6458
2975	59.5507
2950	59.1292
2925	59.0004
2900	59.0413
2875	59.0272
2850	58.7765
2825	58.7205
2800	58.614
2775	58.4635
2750	58.3792
2725	58.2889
2700	58.0506
2675	57.8417
2650	57.7168
2625	57.6279
2600	57.4842
2575	57.1806
2550	57.1248
2525	57.1178
2500	56.8414
2475	56.6999
2450	56.5229
2425	56.4152
2400	56.1553
2375	55.9508
2350	55.7105
2325	55.5284
2300	55.3954
2275	55.3537
2250	55.1556
2225	54.9714
2200	54.7715
2175	54.4368
2150	54.2941
2125	54.0461
2100	54.0208
2075	53.7925
2050	53.7428
2025	53.4896
2000	53.2662
1975	53.1369
1950	53.0069
1925	52.7666
1900	52.4815
1875	52.3276
1850	52.0991
1825	51.8489
1800	51.6486
1775	51.5062
1750	51.1935
1725	51.041
1700	50.9174
1675	50.7423
1650	50.5201
1625	50.3785
1600	50.0609
1575	49.9624
1550	49.7217
1525	49.6701
1500	49.5803
1475	49.304
1450	49.0252
1425	48.9359
1400	48.7248
1375	48.4005
1350	48.2346
1325	47.9986
1300	47.9223
1275	47.7942
1250	47.3915
1225	47.388
1200	47.1917
1175	47.023
1150	46.7507
1125	46.3935
1100	46.1108
1075	45.9986
1050	45.7438
1025	45.6544
1000	45.356
975	 45.5206
950	 44.6691
925	 44.6946
900	 44.2201
875	 43.8853
850	 43.9121
825	 43.2692
800	 43.0928
775	 43.1051
750	 42.6815
725	 42.2456
700	 41.9468
675	 41.1051
650	 40.9149
625	 40.3319
600	 39.8964
575	 38.9646
550	 38.7706
525	 37.4642
500	 37.643
475	 35.9107
450	 34.6735
425	 32.9692
400	 36.5107
375	 38.1903
370	 32.1816

File: C-4040-8_t16.asc
PE IR       SPECTRUM    SPECTRUM    ASCII       PEDS        1.60
  -1
C-B922~1.ASC
17/05/02
12:12:38.00
17/05/02
12:13:05.00
tln
$C-4040-8_t0016$<tbV0>[-2.5,-3.0,8.0,0.0,22,1,0]
27.028
64

2002,4.07
MIRTGS : RIGHTBACK : INTERNAL 2
MIR : ON : INTERNAL 2
OPTKBR

0.200000
8
8.000000
FILLER
RATIO
SPECTRUM
UNLOCKED 256

DOUBLE
64
COMBINED
1
0
0

0.002000
RATIO

1
0
TRUE
51149
0
LEFT NOT FITTED RIGHT NOT FITTED 0
NONE
NONE
15600
12
4.427000
51148
TRUE
1 0 8 72 0 0 0 0

15798

#HDR
-1
-1
#GR
µM
%T
2.38419e-05
0.0
1.282000
0.002000
12874
8
83.3306
38.0306
#DATA
1.282000	 75.0494
1.368000	 62.9107
1.454000	 64.1222
1.540000	 65.8278
1.626000	 64.8933
1.712000	 64.2182
1.798000	 64.3433
1.884000	 67.3358
1.970000	 63.989
2.056000	 64.2877
2.142000	 64.1706
2.228000	 63.5217
2.314000	 64.2782
2.400000	 63.8384
2.486000	 63.8522
2.572000	 63.8948
2.658000	 63.4672
2.744000	 63.4552
2.830000	 62.9089
2.916000	 62.8777
3.002000	 62.5419
3.088000	 62.4851
3.174000	 62.1594
3.260000	 61.9913
3.346000	 61.7297
3.432000	 61.1523
3.518000	 61.064
3.604000	 60.9983
3.690000	 60.6756
3.776000	 60.4853
3.862000	 60.288
3.948000	 60.0155
4.034000	 59.8359
4.120000	 59.6794
4.206000	 59.3691
4.292000	 59.0767
4.378000	 58.9039
4.464000	 58.7646
4.550000	 58.5492
4.636000	 58.4105
4.722000	 58.1093
4.808000	 57.8814
4.894000	 57.7371
4.980000	 57.5762
5.066000	 57.3913
5.152000	 57.324
5.238000	 57.0892
5.324000	 56.9501
5.410000	 56.7647
5.496000	 56.626
5.582000	 56.4118
5.668000	 56.2532
5.754000	 55.9569
5.840000	 55.913
5.926000	 55.8194
6.012000	 55.74
6.098000	 55.4812
6.184000	 55.466
6.270000	 55.2051
6.356000	 55.1578
6.442000	 55.0594
6.528000	 54.9711
6.614000	 54.9098
6.700000	 54.8641
6.786000	 54.6392
6.872000	 54.6565
6.958000	 54.5093
7.044000	 54.3049
7.130000	 54.2885
7.216000	 54.1512
7.302000	 54.1086
7.388000	 54.0378
7.474000	 53.862
7.560000	 53.7781
7.646000	 53.7152
7.732000	 53.5399
7.818000	 53.5744
7.904000	 53.531
7.990000	 53.3079
8.076000	 53.2877
8.161999	 53.1804
8.248000	 53.0908
8.334000	 52.9786
8.420000	 52.9379
8.506000	 52.9662
8.592000	 52.8251
8.678000	 52.6705
8.763999	 52.6973
8.850000	 52.4701
8.936000	 52.3721
9.022000	 52.5007
9.108000	 52.3223
9.193999	 52.3002
9.280000	 52.1039
9.366000	 52.1619
9.452000	 51.9771
9.538000	 52.0095
9.624000	 52.1316
9.710000	 51.9187
9.795999	 51.7901
9.882000	 51.815
9.968000	 51.7104
10.054	51.6785
10.14	51.7816
10.226	51.6358
10.312	51.5862
10.398	51.3561
10.484	50.9911
10.57	51.5039
10.656	51.6246
10.742	50.9425
10.828	50.3855
10.914	50.924
11	50.7803
11.086	50.5883
11.172	50.387
11.258	50.7143
11.344	50.6491
11.43	50.4686
11.516	50.8899
11.602	50.7613
11.688	50.2502
11.774	50.3434
11.86	50.3538
11.946	49.9363
12.032	49.8817
12.118	50.2668
12.204	50.2319
12.29	50.1536
12.376	50.1271
12.462	50.3437
12.548	50.1538
12.634	49.831
12.72	49.7418
12.806	49.7089
12.892	49.7812
12.978	49.8732
13.064	49.7906
13.15	49.6081
13.236	49.4705
13.322	49.4974
13.408	49.5169
13.494	49.352
13.58	49.0734
13.666	49.0259
13.752	49.2504
13.838	49.2289
13.924	48.9546
14.01	48.7633
14.096	48.673
14.182	48.7105
14.268	48.7227
14.354	48.6483
14.44	48.5832
14.526	48.459
14.612	48.2858
14.698	48.1289
14.784	48.0273
14.87	48.0257
14.956	48.1498
15.042	48.3878
15.128	48.4355
15.214	48.1043
15.3	47.7329
15.386	47.6465
15.472	47.751
15.558	47.7892
15.644	47.7041
15.73	47.6217
15.816	47.5934
15.902	47.5345
15.988	47.4086
16.074	47.3292
16.16	47.3386
16.246	47.277
16.332	47.0975
16.418	46.9653
16.504	46.9102
16.59	46.8245
16.676	46.7423
16.762	46.7236
16.848	46.7076
16.934	46.6286
17.02	46.5362
17.106	46.5482
17.192	46.6452
17.278	46.6478
17.364	46.4883
17.45	46.3291
17.536	46.3246
17.622	46.4451
17.708	46.5537
17.794	46.5184
17.88	46.3032
17.966	45.9992
18.052	45.7379
18.138	45.578
18.224	45.4891
18.31	45.4419
18.396	45.4623
18.482	45.5613
18.568	45.683
18.654	45.7562
18.74	45.7461
18.826	45.6537
18.912	45.5122
18.998	45.3701
19.084	45.2672
19.17	45.2229
19.256	45.2286
19.342	45.2389
19.428	45.2116
19.514	45.1497
19.6	45.094
19.686	45.0718
19.772	45.0667
19.858	45.0352
19.944	44.9505
20.03	44.8265
20.116	44.7018
20.202	44.5944
20.288	44.48
20.374	44.3169
20.46	44.0899
20.546	43.8299
20.632	43.5905
20.718	43.3984
20.804	43.2302
20.89	43.0453
20.976	42.856
21.062	42.7414
21.148	42.7735
21.234	42.9328
21.32	43.108
21.406	43.1833
21.492	43.1294
21.578	43.0064
21.664	42.8978
21.75	42.8383
21.836	42.7921
21.922	42.696
22.008	42.5189
22.094	42.2883
22.18	42.0701
22.266	41.9274
22.352	41.8887
22.438	41.9425
22.524	42.0407
22.61	42.1115
22.696	42.074
22.782	41.8689
22.868	41.4903
22.954	41.0042
23.04	40.5202
23.126	40.1619
23.212	40.0113
23.298	40.0853
23.384	40.3188
23.47	40.6049
23.556	40.8356
23.642	40.9237
23.728	40.8285
23.814	40.5494
23.9	40.1045
23.986	39.5332
24.072	38.9134
24.158	38.3722
24.244	38.0595
24.33	38.1115
24.416	38.5861
24.502	39.3852
24.588	40.2861
24.674	41.0526
24.76	41.5179
24.846	41.6828
24.932	41.7676
25.018	42.1242
25.104	43.0561
25.19	44.6363
25.276	46.6198
25.362	48.5272
25.448	49.8087
25.534	50.1039
25.62	49.3409
25.706	47.7367
25.792	45.6902
25.878	43.6925
25.964	42.2838
26.05	41.9443
26.136	42.9441
26.222	45.2421
26.308	48.4191
26.394	51.7805
26.48	54.5256
26.566	55.9767
26.652	55.8332
26.738	54.2386
26.824	51.7064
26.91	48.9145
26.996	46.5739
27.028	46.0431

File: C-4040-8_t16_cm-1.asc
PE IR       SPECTRUM    SPECTRUM    ASCII       PEDS        1.60
  -1
C-1A6E~1.ASC
17/05/02
12:12:38.00
17/05/02
12:12:38.00
tln
$C-4040-8_t0016$<tbV0>[-2.5,-3.0,8.0,0.0,22,1,0]
370
64

2002,4.07
MIRTGS : RIGHTBACK : INTERNAL 2
MIR : ON : INTERNAL 2
OPTKBR

0.200000
8
8.000000
FILLER
RATIO
SPECTRUM
UNLOCKED 256

DOUBLE
64
COMBINED
1
0
0

1.000000
RATIO

1
0
TRUE
51149
0
LEFT NOT FITTED RIGHT NOT FITTED 0
NONE
NONE
15600
12
4.427000
51148
TRUE
1 0 8 72 0 0 0 0

15798

#HDR
-1
-1
#GR
CM-1
%T
2.38419e-05
0.0
7800
-1.000000
7431
8
83.4958
38.031
#DATA
7800	75.0494
7775	71.9405
7750	65.4006
7725	72.9511
7700	71.991
7675	64.6286
7650	69.2174
7625	68.0758
7600	69.6833
7575	65.1871
7550	67.8058
7525	64.4965
7500	64.5435
7475	63.6437
7450	68.5423
7425	65.4863
7400	59.8768
7375	64.7301
7350	66.4106
7325	67.4175
7300	65.583
7275	64.3224
7250	65.5461
7225	66.5915
7200	64.1537
7175	66.8717
7150	64.6546
7125	64.454
7100	62.4967
7075	62.5016
7050	61.3428
7025	63.3344
7000	62.0854
6975	63.6618
6950	63.8158
6925	65.335
6900	63.0554
6875	64.4637
6850	62.9525
6825	63.2818
6800	63.3174
6775	62.8835
6750	64.3141
6725	61.8179
6700	65.0625
6675	63.6891
6650	61.5627
6625	66.6902
6600	64.8511
6575	64.2153
6550	63.7765
6525	64.1136
6500	65.07
6475	63.0773
6450	64.1073
6425	62.9166
6400	65.1495
6375	63.9272
6350	64.569
6325	65.2868
6300	64.911
6275	63.7722
6250	63.5265
6225	64.5519
6200	64.1601
6175	63.8333
6150	64.9016
6125	65.0777
6100	64.0377
6075	64.7691
6050	64.3328
6025	64.9193
6000	64.5636
5975	64.4251
5950	64.587
5925	63.7377
5900	64.8321
5875	64.181
5850	64.2246
5825	64.1037
5800	63.7649
5775	64.3057
5750	64.889
5725	64.8622
5700	64.3405
5675	63.9377
5650	64.1538
5625	64.8
5600	64.5251
5575	64.2698
5550	64.238
5525	64.4744
5500	63.6977
5475	64.1464
5450	64.4829
5425	64.3453
5400	64.0568
5375	63.8292
5350	63.0809
5325	62.9121
5300	65.5622
5275	63.443
5250	66.9765
5225	64.6519
5200	63.8658
5175	64.6425
5150	64.3853
5125	64.3214
5100	63.95
5075	64.0249
5050	64.0426
5025	64.3596
5000	64.4585
4975	64.2487
4950	64.1268
4925	63.9467
4900	64.5279
4875	64.4807
4850	64.4104
4825	64.4351
4800	64.0374
4775	64.5036
4750	64.0343
4725	64.062
4700	64.1966
4675	64.1297
4650	64.498
4625	64.3284
4600	64.3123
4575	64.0458
4550	63.8584
4525	63.8231
4500	63.8702
4475	63.7858
4450	63.9192
4425	63.6757
4400	62.7269
4375	57.7682
4350	64.5302
4325	64.1971
4300	64.016
4275	63.6656
4250	63.8799
4225	64.0692
4200	63.6944
4175	64.0837
4150	63.7893
4125	64.0052
4100	64.0092
4075	63.6517
4050	63.9539
4025	63.8973
4000	63.6812
3975	63.782
3950	63.6471
3925	63.8662
3900	63.4771
3875	63.5678
3850	63.6544
3825	63.5975
3800	63.6243
3775	63.4794
3750	63.5432
3725	63.4528
3700	63.3835
3675	63.1429
3650	63.2657
3625	63.3455
3600	63.0966
3575	63.1619
3550	63.1255
3525	62.8983
3500	62.8352
3475	63.0252
3450	62.9933
3425	62.9263
3400	62.7742
3375	62.5391
3350	62.6338
3325	62.6072
3300	62.4302
3275	62.3716
3250	62.5124
3225	62.3334
3200	62.2529
3175	62.2938
3150	62.1535
3125	62.0573
3100	62.0268
3075	62.036
3050	61.897
3025	62.0039
3000	61.7907
2975	61.5812
2950	61.4555
2925	61.0685
2900	61.2904
2875	61.1872
2850	61.0291
2825	60.9707
2800	61.0381
2775	61
2750	60.8432
2725	60.7912
2700	60.676
2675	60.5249
2650	60.4775
2625	60.328
2600	60.3541
2575	60.2047
2550	60.1665
2525	60.1002
2500	59.8981
2475	59.8194
2450	59.7619
2425	59.6328
2400	59.4929
2375	59.3295
2350	59.2792
2325	59.07
2300	58.9503
2275	58.9534
2250	58.8193
2225	58.6381
2200	58.5696
2175	58.3972
2150	58.2203
2125	58.0795
2100	57.9434
2075	57.8904
2050	57.7459
2025	57.6383
2000	57.481
1975	57.385
1950	57.2708
1925	57.1964
1900	57.0688
1875	56.8747
1850	56.7882
1825	56.6596
1800	56.4277
1775	56.2571
1750	56.0573
1725	55.8516
1700	55.878
1675	55.6869
1650	55.6338
1625	55.4629
1600	55.2881
1575	55.1733
1550	55.0551
1525	54.9613
1500	54.8329
1475	54.6616
1450	54.584
1425	54.3852
1400	54.2926
1375	54.1734
1350	53.9476
1325	53.8194
1300	53.6784
1275	53.5179
1250	53.3038
1225	53.1808
1200	52.9812
1175	52.9729
1150	52.7038
1125	52.4566
1100	52.3584
1075	52.11
1050	51.9326
1025	51.7678
1000	51.6604
975	 51.679
950	 51.06
925	 50.3012
900	 50.4743
875	 50.4653
850	 50.3076
825	 50.2733
800	 50.3176
775	 49.7996
750	 49.506
725	 49.2938
700	 48.7104
675	 48.0145
650	 47.6457
625	 47.3916
600	 46.7481
575	 46.4272
550	 45.527
525	 45.3043
500	 44.8719
475	 42.7473
450	 41.9879
425	 40.7763
400	 42.0077
375	 55.6584
370	 46.0431

File: C-4040-8_t17.asc
PE IR       SPECTRUM    SPECTRUM    ASCII       PEDS        1.60
  -1
C-B926~1.ASC
17/05/02
12:17:20.00
17/05/02
12:17:46.00
tln
$C-4040-8_t0017$<tbV0>[-7.5,-3.0,8.0,0.0,22,1,0]
27.028
64

2002,4.07
MIRTGS : RIGHTBACK : INTERNAL 2
MIR : ON : INTERNAL 2
OPTKBR

0.200000
8
8.000000
FILLER
RATIO
SPECTRUM
UNLOCKED 256

DOUBLE
64
COMBINED
1
0
0

0.002000
RATIO

1
0
TRUE
51149
0
LEFT NOT FITTED RIGHT NOT FITTED 0
NONE
NONE
15600
12
4.427000
51148
TRUE
1 0 8 72 0 0 0 0

15798

#HDR
-1
-1
#GR
µM
%T
2.38419e-05
0.0
1.282000
0.002000
12874
8
83.2724
46.2058
#DATA
1.282000	 73.4895
1.368000	 61.0212
1.454000	 65.5576
1.540000	 65.1315
1.626000	 65.2642
1.712000	 65.5173
1.798000	 64.7371
1.884000	 61.6016
1.970000	 64.9404
2.056000	 64.9285
2.142000	 65.0921
2.228000	 64.0651
2.314000	 64.577
2.400000	 65.1655
2.486000	 65.4525
2.572000	 65.2667
2.658000	 65.0812
2.744000	 65.3088
2.830000	 65.0864
2.916000	 65.3775
3.002000	 65.1787
3.088000	 65.1939
3.174000	 65.2339
3.260000	 65.2559
3.346000	 65.2541
3.432000	 64.9021
3.518000	 65.0214
3.604000	 65.2435
3.690000	 65.2345
3.776000	 65.2208
3.862000	 65.4042
3.948000	 65.3318
4.034000	 65.379
4.120000	 65.3162
4.206000	 65.4196
4.292000	 65.1936
4.378000	 65.2489
4.464000	 65.4238
4.550000	 65.3705
4.636000	 65.4462
4.722000	 65.3586
4.808000	 65.2861
4.894000	 65.3321
4.980000	 65.2519
5.066000	 65.2451
5.152000	 65.2976
5.238000	 65.2519
5.324000	 65.2763
5.410000	 65.341
5.496000	 65.2387
5.582000	 65.1428
5.668000	 65.2396
5.754000	 65.1791
5.840000	 65.1404
5.926000	 65.178
6.012000	 65.1518
6.098000	 65.133
6.184000	 65.1853
6.270000	 65.1741
6.356000	 65.1055
6.442000	 64.9803
6.528000	 65.1202
6.614000	 65.1471
6.700000	 65.0487
6.786000	 65.0971
6.872000	 64.9432
6.958000	 65.0652
7.044000	 64.9474
7.130000	 65.0578
7.216000	 64.9405
7.302000	 65.002
7.388000	 65.0268
7.474000	 64.9165
7.560000	 65.0005
7.646000	 65.0632
7.732000	 65.0074
7.818000	 64.9157
7.904000	 64.9754
7.990000	 64.7878
8.076000	 64.9882
8.161999	 64.9785
8.248000	 64.9517
8.334000	 64.976
8.420000	 64.8732
8.506000	 65.0384
8.592000	 64.9862
8.678000	 64.7959
8.763999	 64.8048
8.850000	 64.8039
8.936000	 64.7113
9.022000	 64.9322
9.108000	 64.846
9.193999	 64.8263
9.280000	 64.6355
9.366000	 64.7639
9.452000	 64.7943
9.538000	 64.8284
9.624000	 64.9131
9.710000	 64.7734
9.795999	 64.5791
9.882000	 64.6318
9.968000	 64.6596
10.054	64.7221
10.14	64.5662
10.226	64.5984
10.312	64.5568
10.398	64.6604
10.484	64.4144
10.57	64.6499
10.656	64.4233
10.742	64.2787
10.828	64.3336
10.914	64.5064
11	64.596
11.086	64.4402
11.172	64.2538
11.258	64.2144
11.344	64.9017
11.43	64.7185
11.516	64.8758
11.602	64.6921
11.688	63.9592
11.774	64.0608
11.86	64.0944
11.946	63.9861
12.032	63.891
12.118	64.0013
12.204	64.1878
12.29	64.0334
12.376	63.6286
12.462	63.7186
12.548	64.0545
12.634	63.9756
12.72	63.8547
12.806	64.0102
12.892	64.0832
12.978	63.9986
13.064	64.0024
13.15	63.9487
13.236	63.8665
13.322	63.7386
13.408	63.6481
13.494	63.6841
13.58	63.7619
13.666	63.8102
13.752	63.7487
13.838	63.6438
13.924	63.5328
14.01	63.4189
14.096	63.3601
14.182	63.3197
14.268	63.2701
14.354	63.3964
14.44	63.4899
14.526	63.3599
14.612	63.2476
14.698	63.1824
14.784	63.0575
14.87	62.9268
14.956	62.8741
15.042	62.883
15.128	62.8999
15.214	62.9513
15.3	62.9679
15.386	62.8858
15.472	62.8498
15.558	62.8267
15.644	62.6617
15.73	62.5531
15.816	62.7075
15.902	62.9608
15.988	63.0992
16.074	63.0655
16.16	62.8887
16.246	62.6867
16.332	62.5643
16.418	62.5244
16.504	62.4983
16.59	62.4066
16.676	62.2729
16.762	62.1832
16.848	62.1823
16.934	62.2019
17.02	62.1451
17.106	62.0684
17.192	62.0905
17.278	62.1822
17.364	62.2159
17.45	62.1449
17.536	62.0229
17.622	61.9103
17.708	61.8531
17.794	61.8709
17.88	61.8993
17.966	61.8703
18.052	61.8419
18.138	61.9198
18.224	62.0706
18.31	62.1517
18.396	62.0948
18.482	61.9592
18.568	61.8278
18.654	61.727
18.74	61.627
18.826	61.4858
18.912	61.3124
18.998	61.1804
19.084	61.1524
19.17	61.1999
19.256	61.2284
19.342	61.1836
19.428	61.1118
19.514	61.0863
19.6	61.1046
19.686	61.1033
19.772	61.0608
19.858	61.0054
19.944	60.9455
20.03	60.8544
20.116	60.7237
20.202	60.5814
20.288	60.4744
20.374	60.4421
20.46	60.4768
20.546	60.5048
20.632	60.4312
20.718	60.2125
20.804	59.8892
20.89	59.5629
20.976	59.3437
21.062	59.2997
21.148	59.4176
21.234	59.6013
21.32	59.7165
21.406	59.662
21.492	59.4327
21.578	59.1071
21.664	58.7806
21.75	58.5024
21.836	58.2632
21.922	58.0374
22.008	57.8384
22.094	57.7232
22.18	57.7464
22.266	57.9134
22.352	58.1672
22.438	58.4181
22.524	58.578
22.61	58.5726
22.696	58.3459
22.782	57.8905
22.868	57.2774
22.954	56.6579
23.04	56.1942
23.126	55.9994
23.212	56.0697
23.298	56.2958
23.384	56.5178
23.47	56.63
23.556	56.6158
23.642	56.5446
23.728	56.5052
23.814	56.5184
23.9	56.5075
23.986	56.3324
24.072	55.8993
24.158	55.23
24.244	54.4877
24.33	53.9316
24.416	53.7779
24.502	54.0758
24.588	54.6905
24.674	55.3517
24.76	55.7196
24.846	55.5781
24.932	54.9216
25.018	53.9702
25.104	53.055
25.19	52.5005
25.276	52.4565
25.362	52.8589
25.448	53.5123
25.534	54.1118
25.62	54.2983
25.706	53.8859
25.792	52.8633
25.878	51.3542
25.964	49.5713
26.05	47.8366
26.136	46.557
26.222	46.2377
26.308	47.268
26.394	49.7156
26.48	53.2094
26.566	57.0173
26.652	60.2744
26.738	62.2949
26.824	62.8161
26.91	62.0798
26.996	60.5698
27.028	60.1023