Folder: Masteroppgave/Bakgrunnsmateriale/MATLAB/FTIR/ftir_data/subBb/Mapping_121 (part 46)

File: C-4040-8_t106_cm-1.asc
PE IR       SPECTRUM    SPECTRUM    ASCII       PEDS        1.60
  -1
C-4B8C~1.ASC
17/03/27
23:10:29.00
17/03/27
23:10:29.00
tln
$C-4040-8_t0106$<tbV0>[-2.6,10.4,8.0,0.0,27,1,0]
370
64

2002,4.07
MIRTGS : RIGHTBACK : INTERNAL 2
MIR : ON : INTERNAL 2
OPTKBR

0.200000
8
8.000000
FILLER
RATIO
SPECTRUM
UNLOCKED 256

DOUBLE
64
COMBINED
1
0
0

1.000000
RATIO

1
0
TRUE
51149
0
LEFT NOT FITTED RIGHT NOT FITTED 0
NONE
NONE
15600
12
4.427000
51148
TRUE
1 0 8 72 0 0 0 0

15798

#HDR
-1
-1
#GR
CM-1
%T
2.38419e-05
0.0
5000
-1.000000
4631
8
180.946
22.6853
#DATA
5000	65.4725
4984	64.5527
4968	65.224
4952	65.3492
4936	64.9128
4920	64.9634
4904	65.4091
4888	64.8539
4872	65.0355
4856	65.4153
4840	65.235
4824	65.2203
4808	65.0396
4792	65.0513
4776	65.1367
4760	65.2819
4744	64.6748
4728	65.1987
4712	65.2523
4696	65.5842
4680	65.4225
4664	65.0466
4648	65.6935
4632	65.3016
4616	65.253
4600	65.0492
4584	65.1549
4568	65.3171
4552	65.2914
4536	64.3077
4520	64.8556
4504	64.8637
4488	64.67
4472	64.4501
4456	64.2931
4440	64.8798
4424	64.2397
4408	65.4855
4392	61.5105
4376	67.2898
4360	63.8769
4344	65.1213
4328	64.4869
4312	64.8926
4296	64.7174
4280	64.7473
4264	65.1575
4248	64.6945
4232	65.2324
4216	65.078
4200	64.9368
4184	65.0075
4168	64.8417
4152	65.0073
4136	65.2702
4120	65.177
4104	65.345
4088	65.2125
4072	65.0512
4056	65.3479
4040	65.1088
4024	65.0939
4008	65.164
3992	65.1669
3976	65.1184
3960	65.2603
3944	65.0829
3928	65.1281
3912	65.2591
3896	65.0283
3880	65.1669
3864	65.4626
3848	64.916
3832	65.1038
3816	65.322
3800	65.1137
3784	65.1953
3768	65.3916
3752	65.3413
3736	65.2299
3720	65.3498
3704	65.3362
3688	65.4962
3672	65.4128
3656	65.4557
3640	65.2731
3624	65.3056
3608	65.2455
3592	65.3555
3576	65.3925
3560	65.574
3544	65.037
3528	65.3651
3512	65.4541
3496	65.2548
3480	64.9794
3464	65.1238
3448	65.0906
3432	65.5432
3416	65.3319
3400	65.3669
3384	65.1719
3368	65.2106
3352	65.1081
3336	65.301
3320	65.2108
3304	65.1498
3288	65.2053
3272	65.2229
3256	65.2915
3240	65.1534
3224	65.3612
3208	65.3822
3192	65.1423
3176	65.3363
3160	65.3605
3144	65.2553
3128	65.4661
3112	65.5848
3096	65.44
3080	65.0636
3064	65.1629
3048	65.2492
3032	65.5517
3016	65.3794
3000	65.3457
2984	65.1583
2968	65.2027
2952	65.2612
2936	65.4085
2920	64.9785
2904	65.235
2888	65.1569
2872	65.125
2856	65.0516
2840	65.2801
2824	65.1958
2808	65.1714
2792	65.4198
2776	65.3004
2760	65.2443
2744	65.293
2728	65.3677
2712	65.3622
2696	65.3461
2680	65.3446
2664	65.4814
2648	65.3014
2632	65.2447
2616	65.3286
2600	65.2065
2584	65.2592
2568	65.2863
2552	65.3067
2536	65.4117
2520	65.2611
2504	65.3031
2488	65.4817
2472	65.4909
2456	65.351
2440	65.2614
2424	65.3957
2408	65.529
2392	65.3155
2376	65.3816
2360	65.4564
2344	65.3469
2328	65.2694
2312	65.3649
2296	65.3665
2280	65.3663
2264	65.3704
2248	65.3815
2232	65.38
2216	65.4116
2200	65.3023
2184	65.4752
2168	65.5376
2152	65.4812
2136	65.2487
2120	65.3434
2104	65.348
2088	65.1215
2072	65.588
2056	65.3312
2040	65.3563
2024	65.3708
2008	65.3204
1992	65.2431
1976	65.363
1960	65.2826
1944	65.3522
1928	65.5092
1912	65.2041
1896	65.368
1880	65.3306
1864	65.3438
1848	65.4272
1832	65.4165
1816	65.3885
1800	65.3467
1784	65.3712
1768	65.3643
1752	65.1815
1736	65.1667
1720	64.9014
1704	65.2699
1688	65.1481
1672	65.3975
1656	65.1477
1640	65.3033
1624	65.1492
1608	65.1937
1592	65.0154
1576	65.085
1560	65.0748
1544	65.2327
1528	65.0839
1512	65.1363
1496	65.4309
1480	65.0536
1464	65.3308
1448	65.2083
1432	64.9597
1416	65.0944
1400	65.2731
1384	64.9645
1368	64.9826
1352	65.1124
1336	64.9695
1320	65.0307
1304	65.0439
1288	65.0887
1272	64.976
1256	65.1461
1240	64.9543
1224	65.0128
1208	64.9452
1192	64.9686
1176	65.0972
1160	64.8822
1144	64.8523
1128	64.8395
1112	64.9065
1096	64.5215
1080	64.8684
1064	64.6428
1048	64.8246
1032	64.4666
1016	64.4202
1000	64.7224
984	 64.7582
968	 64.6297
952	 64.6045
936	 64.4345
920	 64.9198
904	 64.7576
888	 64.7212
872	 65.127
856	 64.3612
840	 64.0407
824	 63.9182
808	 64.014
792	 63.9693
776	 63.591
760	 63.75
744	 63.7476
728	 63.5683
712	 63.4842
696	 63.3132
680	 63.2878
664	 62.5955
648	 63.002
632	 63.0265
616	 62.5803
600	 62.4908
584	 62.1515
568	 61.7534
552	 62.3061
536	 61.3161
520	 60.4994
504	 60.8872
488	 61.2355
472	 61.07
456	 59.1656
440	 58.7053
424	 60.5035
408	 58.3305
392	 62.1407
376	 72.2346
370	 180.946

File: C-4040-8_t107.asc
PE IR       SPECTRUM    SPECTRUM    ASCII       PEDS        1.60
  -1
C-88D6~1.ASC
17/03/27
23:15:06.00
17/03/27
23:15:32.00
tln
$C-4040-8_t0107$<tbV0>[-5.2,10.4,8.0,0.0,27,1,0]
27.028
64

2002,4.07
MIRTGS : RIGHTBACK : INTERNAL 2
MIR : ON : INTERNAL 2
OPTKBR

0.200000
8
8.000000
FILLER
RATIO
SPECTRUM
UNLOCKED 256

DOUBLE
64
COMBINED
1
0
0

0.002000
RATIO

1
0
TRUE
51149
0
LEFT NOT FITTED RIGHT NOT FITTED 0
NONE
NONE
15600
12
4.427000
51148
TRUE
1 0 8 72 0 0 0 0

15798

#HDR
-1
-1
#GR
µM
%T
2.38419e-05
0.0
2.000000
0.002000
12515
8
102.897
40.8791
#DATA
2.000000	 65.464
2.084000	 64.6969
2.168000	 65.455
2.252000	 63.5619
2.336000	 64.0633
2.420000	 64.9469
2.504000	 65.3606
2.588000	 64.8524
2.672000	 65.1361
2.756000	 65.0972
2.840000	 65.2173
2.924000	 65.0021
3.008000	 65.0881
3.092000	 64.9523
3.176000	 65.0611
3.260000	 65.1859
3.344000	 65.1922
3.428000	 64.7492
3.512000	 65.0114
3.596000	 65.2
3.680000	 65.2527
3.764000	 65.158
3.848000	 65.1579
3.932000	 65.2198
4.016000	 65.1638
4.100000	 65.3197
4.184000	 65.1499
4.268000	 65.1682
4.352000	 65.2851
4.436000	 65.1857
4.520000	 65.1611
4.604000	 65.2266
4.688000	 65.3864
4.772000	 65.2635
4.856000	 65.3969
4.940000	 65.1867
5.024000	 65.2141
5.108000	 65.1503
5.192000	 65.3887
5.276000	 65.141
5.359999	 65.1186
5.444000	 65.2323
5.528000	 65.0932
5.612000	 65.1512
5.696000	 65.1311
5.780000	 64.9987
5.864000	 65.2108
5.948000	 65.0792
6.032000	 65.2549
6.116000	 65.1293
6.200000	 65.0814
6.284000	 65.044
6.368000	 65.0439
6.452000	 65.0975
6.536000	 65.2289
6.620000	 65.0191
6.704000	 65.0941
6.788000	 65.0194
6.872000	 65.0394
6.956000	 64.8691
7.040000	 65.0435
7.124000	 65.1673
7.208000	 64.9533
7.292000	 64.9894
7.376000	 64.939
7.460000	 64.9216
7.544000	 64.9564
7.628000	 64.781
7.712000	 64.8374
7.796000	 65.0292
7.880000	 64.8047
7.964000	 64.9184
8.048000	 64.886
8.132000	 64.8426
8.216000	 64.9921
8.300000	 64.9065
8.384000	 64.8483
8.468000	 64.8209
8.552000	 65.0597
8.635999	 64.8121
8.719999	 64.745
8.804000	 64.8831
8.888000	 64.582
8.972000	 64.9139
9.056000	 65.1588
9.140000	 64.4137
9.224000	 64.3151
9.308000	 64.4687
9.391999	 64.5213
9.475999	 64.6764
9.560000	 64.9194
9.644000	 64.562
9.728000	 64.5181
9.812000	 64.565
9.896000	 64.3227
9.980000	 64.5309
10.064	64.5233
10.148	64.4397
10.232	64.4811
10.316	64.4817
10.4	64.3804
10.484	64.5611
10.568	64.4411
10.652	64.3191
10.736	64.1784
10.82	64.6518
10.904	64.652
10.988	64.0983
11.072	63.9478
11.156	64.0379
11.24	64.3818
11.324	63.8535
11.408	63.3891
11.492	63.9055
11.576	64.4718
11.66	64.5154
11.744	64.3391
11.828	64.6888
11.912	64.2442
11.996	63.6801
12.08	63.5948
12.164	63.8515
12.248	64.0815
12.332	64.1485
12.416	64.2112
12.5	64.0152
12.584	64.0091
12.668	63.7828
12.752	63.5237
12.836	63.537
12.92	63.6896
13.004	63.7098
13.088	63.8037
13.172	63.761
13.256	63.5038
13.34	63.195
13.424	63.386
13.508	63.1567
13.592	62.8916
13.676	63.0672
13.76	63.3873
13.844	63.6255
13.928	63.3751
14.012	63.1501
14.096	63.1577
14.18	63.2947
14.264	63.3578
14.348	63.1194
14.432	62.9538
14.516	63.1003
14.6	63.1317
14.684	63.0359
14.768	63.0664
14.852	62.9772
14.936	62.7307
15.02	62.4741
15.104	62.3622
15.188	62.5605
15.272	62.8054
15.356	62.8495
15.44	62.8031
15.524	62.7342
15.608	62.6547
15.692	62.5607
15.776	62.4912
15.86	62.6027
15.944	62.8108
16.028	62.826
16.112	62.6191
16.196	62.4124
16.28	62.4189
16.364	62.622
16.448	62.7384
16.532	62.6743
16.616	62.6695
16.7	62.7998
16.784	62.8287
16.868	62.5845
16.952	62.1629
17.036	61.7572
17.12	61.455
17.204	61.2376
17.288	61.131
17.372	61.1788
17.456	61.3074
17.54	61.4169
17.624	61.5127
17.708	61.6129
17.792	61.6787
17.876	61.7605
17.96	61.9983
18.044	62.3658
18.128	62.5922
18.212	62.4707
18.296	62.0943
18.38	61.6959
18.464	61.3898
18.548	61.1359
18.632	60.8889
18.716	60.7026
18.8	60.6657
18.884	60.751
18.968	60.7952
19.052	60.6888
19.136	60.544
19.22	60.5819
19.304	60.8452
19.388	61.119
19.472	61.1835
19.556	61.0456
19.64	60.88
19.724	60.7971
19.808	60.7563
19.892	60.687
19.976	60.628
20.06	60.6812
20.144	60.8551
20.228	61.0068
20.312	60.9613
20.396	60.6714
20.48	60.2485
20.564	59.8505
20.648	59.5554
20.732	59.3545
20.816	59.24
20.9	59.2457
20.984	59.3883
21.068	59.5906
21.152	59.6973
21.236	59.5816
21.32	59.2329
21.404	58.7585
21.488	58.309
21.572	57.9931
21.656	57.864
21.74	57.9306
21.824	58.1642
21.908	58.4883
21.992	58.7804
22.076	58.9151
22.16	58.8267
22.244	58.5511
22.328	58.2194
22.412	57.9911
22.496	57.9674
22.58	58.1164
22.664	58.2886
22.748	58.2858
22.832	57.9789
22.916	57.3508
23	56.5245
23.084	55.6816
23.168	54.9752
23.252	54.4688
23.336	54.1808
23.42	54.145
23.504	54.387
23.588	54.9089
23.672	55.654
23.756	56.4645
23.84	57.1513
23.924	57.5885
24.008	57.7719
24.092	57.7822
24.176	57.6809
24.26	57.3721
24.344	56.662
24.428	55.4636
24.512	53.9371
24.596	52.5816
24.68	51.9899
24.764	52.4606
24.848	53.8064
24.932	55.2547
25.016	55.7763
25.1	54.5897
25.184	51.6123
25.268	47.6098
25.352	43.8158
25.436	41.4149
25.52	40.9264
25.604	42.0825
25.688	44.0733
25.772	46.1308
25.856	48.0214
25.94	49.8188
26.024	51.7772
26.108	54.1086
26.192	57.2205
26.276	61.5819
26.36	67.5617
26.444	75.0597
26.528	83.3976
26.612	91.3708
26.696	97.7136
26.78	101.629
26.864	102.897
26.948	101.799
27.028	99.0229

File: C-4040-8_t107_cm-1.asc
PE IR       SPECTRUM    SPECTRUM    ASCII       PEDS        1.60
  -1
C-4C8C~1.ASC
17/03/27
23:15:06.00
17/03/27
23:15:06.00
tln
$C-4040-8_t0107$<tbV0>[-5.2,10.4,8.0,0.0,27,1,0]
370
64

2002,4.07
MIRTGS : RIGHTBACK : INTERNAL 2
MIR : ON : INTERNAL 2
OPTKBR

0.200000
8
8.000000
FILLER
RATIO
SPECTRUM
UNLOCKED 256

DOUBLE
64
COMBINED
1
0
0

1.000000
RATIO

1
0
TRUE
51149
0
LEFT NOT FITTED RIGHT NOT FITTED 0
NONE
NONE
15600
12
4.427000
51148
TRUE
1 0 8 72 0 0 0 0

15798

#HDR
-1
-1
#GR
CM-1
%T
2.38419e-05
0.0
5000
-1.000000
4631
8
102.854
40.89
#DATA
5000	65.464
4984	65.15
4968	64.2078
4952	64.8254
4936	64.3596
4920	64.225
4904	64.5424
4888	65.1561
4872	65.0391
4856	64.697
4840	64.9189
4824	65.5684
4808	65.1571
4792	65.004
4776	65.3373
4760	65.3333
4744	64.9188
4728	64.932
4712	64.9122
4696	65.239
4680	64.9454
4664	65.3628
4648	65.5721
4632	65.6065
4616	65.2868
4600	64.8861
4584	65.3812
4568	64.6095
4552	65.1152
4536	63.4715
4520	64.7345
4504	64.1826
4488	63.9633
4472	64.448
4456	63.6857
4440	63.5328
4424	63.5313
4408	61.614
4392	87.1264
4376	64.4382
4360	64.6187
4344	63.7934
4328	64.1456
4312	64.2141
4296	64.2425
4280	64.0651
4264	65.0606
4248	64.6816
4232	64.4981
4216	64.8324
4200	64.9252
4184	65.811
4168	64.7424
4152	64.6504
4136	65.0187
4120	65.1596
4104	65.3975
4088	65.0539
4072	65.2134
4056	65.4071
4040	65.0887
4024	65.392
4008	65.2327
3992	65.3292
3976	65.0538
3960	65.1099
3944	64.9696
3928	64.8617
3912	65.1447
3896	64.919
3880	64.8454
3864	64.8523
3848	64.6338
3832	64.7559
3816	64.9932
3800	64.9515
3784	65.0761
3768	65.2058
3752	65.13
3736	65.136
3720	65.1986
3704	65.0414
3688	65.2741
3672	65.1371
3656	65.0385
3640	65.2605
3624	65.2457
3608	65.1309
3592	65.2999
3576	65.4316
3560	65.4384
3544	65.1402
3528	65.3315
3512	65.0645
3496	65.3652
3480	64.8594
3464	65.0952
3448	65.1295
3432	65.3625
3416	65.0164
3400	65.2237
3384	65.0981
3368	65.136
3352	65.0431
3336	65.013
3320	64.9736
3304	65.0418
3288	64.9513
3272	65.2553
3256	65.1612
3240	65.1179
3224	65.1956
3208	65.2421
3192	64.8884
3176	65.0895
3160	65.2053
3144	65.0789
3128	65.1443
3112	65.312
3096	65.2428
3080	65.1549
3064	65.0625
3048	64.9321
3032	65.2735
3016	65.1476
3000	65.0907
2984	65.1233
2968	65.092
2952	64.9489
2936	64.9369
2920	64.6802
2904	65.1031
2888	65.0579
2872	64.9149
2856	65.0092
2840	65.1321
2824	65.2026
2808	65.1742
2792	65.3916
2776	65.1691
2760	65.1612
2744	65.1825
2728	65.2385
2712	65.2194
2696	65.124
2680	65.1736
2664	65.3711
2648	65.1981
2632	65.1376
2616	65.2459
2600	65.1398
2584	65.2206
2568	65.2497
2552	65.2577
2536	65.2116
2520	65.0949
2504	65.0151
2488	65.0905
2472	65.3589
2456	65.1669
2440	65.324
2424	64.985
2408	65.349
2392	65.1413
2376	65.1916
2360	65.2154
2344	65.1676
2328	65.2113
2312	65.0693
2296	65.3021
2280	65.3577
2264	65.1747
2248	65.242
2232	65.207
2216	65.241
2200	65.086
2184	65.2222
2168	65.2292
2152	65.4771
2136	65.2835
2120	65.2101
2104	65.3924
2088	65.2702
2072	65.6552
2056	65.2912
2040	65.412
2024	65.1851
2008	65.2666
1992	65.2028
1976	65.2551
1960	65.1784
1944	65.2225
1928	65.4186
1912	65.1373
1896	65.1346
1880	65.2269
1864	65.143
1848	65.3353
1832	65.2401
1816	65.0747
1800	65.1731
1784	65.1236
1768	65.1609
1752	65.1016
1736	64.953
1720	65.2099
1704	65.2343
1688	65.1396
1672	65.2163
1656	65.2054
1640	65.2389
1624	65.0475
1608	65.2256
1592	65.0519
1576	65.1027
1560	64.9946
1544	65.291
1528	65.1798
1512	65.0387
1496	65.0953
1480	64.9302
1464	65.0047
1448	65.1271
1432	64.7146
1416	65.0855
1400	65.0219
1384	65.0157
1368	64.9871
1352	65.0142
1336	64.8811
1320	64.9493
1304	64.8172
1288	64.8969
1272	64.8053
1256	64.9186
1240	64.8906
1224	64.8406
1208	64.9385
1192	64.8526
1176	64.9722
1160	64.8322
1144	64.8365
1128	64.5416
1112	65.0131
1096	64.4453
1080	64.4672
1064	64.5167
1048	64.9278
1032	64.4606
1016	64.4336
1000	64.5522
984	 64.4146
968	 64.491
952	 64.5908
936	 64.2565
920	 64.876
904	 63.9843
888	 64.3482
872	 63.7519
856	 64.4302
840	 64.3196
824	 63.6836
808	 64.2541
792	 63.9158
776	 63.647
760	 63.7801
744	 63.3997
728	 63.2813
712	 63.1341
696	 63.0528
680	 63.0359
664	 62.3862
648	 62.8086
632	 62.5267
616	 62.3819
600	 62.7438
584	 61.445
568	 61.4909
552	 62.5794
536	 60.8229
520	 60.6053
504	 60.733
488	 60.1882
472	 59.6807
456	 58.573
440	 58.3117
424	 54.8853
408	 53.9764
392	 40.89
376	 89.9355
370	 99.0229

File: C-4040-8_t108.asc
PE IR       SPECTRUM    SPECTRUM    ASCII       PEDS        1.60
  -1
C-8CD6~1.ASC
17/03/27
23:19:42.00
17/03/27
23:20:09.00
tln
$C-4040-8_t0108$<tbV0>[-7.8,10.4,8.0,0.0,27,1,0]
27.028
64

2002,4.07
MIRTGS : RIGHTBACK : INTERNAL 2
MIR : ON : INTERNAL 2
OPTKBR

0.200000
8
8.000000
FILLER
RATIO
SPECTRUM
UNLOCKED 256

DOUBLE
64
COMBINED
1
0
0

0.002000
RATIO

1
0
TRUE
51149
0
LEFT NOT FITTED RIGHT NOT FITTED 0
NONE
NONE
15600
12
4.427000
51148
TRUE
1 0 8 72 0 0 0 0

15798

#HDR
-1
-1
#GR
µM
%T
2.38419e-05
0.0
2.000000
0.002000
12515
8
124.189
16.8927
#DATA
2.000000	 65.1404
2.084000	 65.0644
2.168000	 65.1468
2.252000	 64.1306
2.336000	 64.4184
2.420000	 65.0549
2.504000	 65.0424
2.588000	 65.2224
2.672000	 65.1965
2.756000	 65.0922
2.840000	 65.3241
2.924000	 65.0926
3.008000	 65.1126
3.092000	 65.1472
3.176000	 65.0126
3.260000	 65.15
3.344000	 65.1718
3.428000	 64.7477
3.512000	 64.8519
3.596000	 65.2161
3.680000	 65.3414
3.764000	 65.2098
3.848000	 65.1905
3.932000	 65.3857
4.016000	 65.4186
4.100000	 65.0014
4.184000	 65.2673
4.268000	 65.1759
4.352000	 65.2825
4.436000	 65.3004
4.520000	 65.0882
4.604000	 65.2246
4.688000	 65.2709
4.772000	 65.1793
4.856000	 65.2059
4.940000	 65.226
5.024000	 65.2541
5.108000	 65.2073
5.192000	 65.2536
5.276000	 65.3264
5.359999	 65.1249
5.444000	 65.2742
5.528000	 65.1247
5.612000	 65.182
5.696000	 65.1395
5.780000	 64.9959
5.864000	 65.0966
5.948000	 65.1932
6.032000	 65.1672
6.116000	 65.1409
6.200000	 65.0753
6.284000	 64.9219
6.368000	 64.9065
6.452000	 65.1871
6.536000	 65.0221
6.620000	 65.1837
6.704000	 65.1001
6.788000	 64.9741
6.872000	 65.185
6.956000	 64.9076
7.040000	 65.0163
7.124000	 65.1269
7.208000	 64.8224
7.292000	 64.9248
7.376000	 64.9243
7.460000	 65.0126
7.544000	 64.9831
7.628000	 64.6956
7.712000	 64.9261
7.796000	 64.9886
7.880000	 64.7793
7.964000	 64.9018
8.048000	 64.817
8.132000	 64.7985
8.216000	 64.6615
8.300000	 64.9036
8.384000	 64.7004
8.468000	 64.5747
8.552000	 64.7167
8.635999	 64.6177
8.719999	 64.5549
8.804000	 64.6089
8.888000	 64.5965
8.972000	 64.594
9.056000	 64.3996
9.140000	 64.6937
9.224000	 64.4646
9.308000	 64.4534
9.391999	 64.494
9.475999	 64.5545
9.560000	 64.7624
9.644000	 64.3923
9.728000	 64.2686
9.812000	 64.4009
9.896000	 64.2609
9.980000	 64.3607
10.064	64.3155
10.148	64.5218
10.232	64.3328
10.316	64.3734
10.4	64.4167
10.484	64.4382
10.568	64.3501
10.652	64.1748
10.736	64.4072
10.82	65.0082
10.904	64.7724
10.988	64.178
11.072	64.2986
11.156	64.5974
11.24	64.6348
11.324	64.2918
11.408	64.167
11.492	64.3923
11.576	64.2659
11.66	64.3389
11.744	64.1606
11.828	64.2489
11.912	64.399
11.996	64.1448
12.08	64.5752
12.164	64.0731
12.248	63.4598
12.332	63.5895
12.416	63.4826
12.5	63.3959
12.584	63.5896
12.668	63.5973
12.752	63.7078
12.836	63.7726
12.92	63.5761
13.004	63.5105
13.088	63.5419
13.172	63.399
13.256	63.2647
13.34	63.0225
13.424	62.8932
13.508	62.5937
13.592	62.476
13.676	62.8453
13.76	63.1883
13.844	63.3361
13.928	63.2163
14.012	63.0615
14.096	63.083
14.18	63.1244
14.264	63.0131
14.348	62.8062
14.432	62.8024
14.516	63.018
14.6	63.0882
14.684	62.9062
14.768	62.7786
14.852	62.7303
14.936	62.543
15.02	62.3283
15.104	62.2198
15.188	62.2464
15.272	62.3729
15.356	62.4485
15.44	62.518
15.524	62.6305
15.608	62.6122
15.692	62.4003
15.776	62.1433
15.86	61.994
15.944	62.0123
16.028	62.1609
16.112	62.272
16.196	62.2155
16.28	62.1231
16.364	62.1095
16.448	61.99
16.532	61.6919
16.616	61.4468
16.7	61.3744
16.784	61.3954
16.868	61.4529
16.952	61.4651
17.036	61.3696
17.12	61.3312
17.204	61.5325
17.288	61.848
17.372	62.045
17.456	62.0954
17.54	62.072
17.624	61.9529
17.708	61.7147
17.792	61.4669
17.876	61.3901
17.96	61.546
18.044	61.7951
18.128	61.8884
18.212	61.6716
18.296	61.2102
18.38	60.7392
18.464	60.4784
18.548	60.4735
18.632	60.5881
18.716	60.6775
18.8	60.7272
18.884	60.7878
18.968	60.8253
19.052	60.726
19.136	60.448
19.22	60.1183
19.304	59.9573
19.388	60.0964
19.472	60.4709
19.556	60.8608
19.64	61.0388
19.724	60.9169
19.808	60.5803
19.892	60.219
19.976	60.025
20.06	60.1134
20.144	60.4663
20.228	60.9317
20.312	61.309
20.396	61.4743
20.48	61.4466
20.564	61.3352
20.648	61.207
20.732	61.0448
20.816	60.8081
20.9	60.5105
20.984	60.216
21.068	59.9563
21.152	59.6965
21.236	59.369
21.32	58.9454
21.404	58.4555
21.488	57.9669
21.572	57.5444
21.656	57.2721
21.74	57.2563
21.824	57.5837
21.908	58.2296
21.992	59.0006
22.076	59.5943
22.16	59.7368
22.244	59.3294
22.328	58.499
22.412	57.4985
22.496	56.571
22.58	55.828
22.664	55.2541
22.748	54.763
22.832	54.286
22.916	53.7944
23	53.3448
23.084	52.982
23.168	52.7377
23.252	52.6225
23.336	52.6127
23.42	52.7461
23.504	53.0858
23.588	53.6666
23.672	54.437
23.756	55.2244
23.84	55.7998
23.924	55.9875
24.008	55.7273
24.092	55.0807
24.176	54.2204
24.26	53.2172
24.344	51.9895
24.428	50.3274
24.512	47.8817
24.596	44.4596
24.68	40.0737
24.764	34.9447
24.848	29.5036
24.932	24.3897
25.016	20.2733
25.1	17.7203
25.184	16.8943
25.268	17.4904
25.352	18.977
25.436	20.8638
25.52	22.978
25.604	25.504
25.688	28.7513
25.772	32.9249
25.856	38.0067
25.94	43.8305
26.024	50.1454
26.108	56.6785
26.192	63.5242
26.276	70.9656
26.36	79.2635
26.444	88.102
26.528	96.6251
26.612	103.553
26.696	108.16
26.78	110.866
26.864	113.319
26.948	117.554
27.028	124.189

File: C-4040-8_t108_cm-1.asc
PE IR       SPECTRUM    SPECTRUM    ASCII       PEDS        1.60
  -1
C-4D8C~1.ASC
17/03/27
23:19:42.00
17/03/27
23:19:42.00
tln
$C-4040-8_t0108$<tbV0>[-7.8,10.4,8.0,0.0,27,1,0]
370
64

2002,4.07
MIRTGS : RIGHTBACK : INTERNAL 2
MIR : ON : INTERNAL 2
OPTKBR

0.200000
8
8.000000
FILLER
RATIO
SPECTRUM
UNLOCKED 256

DOUBLE
64
COMBINED
1
0
0

1.000000
RATIO

1
0
TRUE
51149
0
LEFT NOT FITTED RIGHT NOT FITTED 0
NONE
NONE
15600
12
4.427000
51148
TRUE
1 0 8 72 0 0 0 0

15798

#HDR
-1
-1
#GR
CM-1
%T
2.38419e-05
0.0
5000
-1.000000
4631
8
124.189
16.8927
#DATA
5000	65.1404
4984	65.1253
4968	65.2678
4952	64.7762
4936	64.5904
4920	65.0683
4904	64.8647
4888	64.9301
4872	65.6676
4856	64.7021
4840	65.1876
4824	65.0985
4808	65.2783
4792	65.3813
4776	65.3389
4760	65.0966
4744	65.0597
4728	64.6917
4712	65.0902
4696	64.9303
4680	65.0787
4664	65.2899
4648	65.2167
4632	65.3523
4616	65.3294
4600	64.8929
4584	65.1931
4568	64.8334
4552	65.3919
4536	64.1928
4520	64.3567
4504	64.7004
4488	64.7491
4472	64.6996
4456	64.3009
4440	64.1042
4424	65.2513
4408	62.7019
4392	74.9121
4376	64.172
4360	64.8275
4344	64.575
4328	64.8164
4312	64.6509
4296	64.5341
4280	64.4085
4264	65.0439
4248	64.2
4232	64.5978
4216	64.8634
4200	64.2931
4184	64.9426
4168	65.2646
4152	65.1089
4136	65.3031
4120	65.2877
4104	65.3143
4088	65.2053
4072	65.0631
4056	65.0733
4040	65.2803
4024	65.4766
4008	65.0679
3992	65.0275
3976	64.9947
3960	65.1343
3944	65.0784
3928	64.9364
3912	64.9037
3896	64.9536
3880	65.109
3864	65.2218
3848	64.8153
3832	64.8565
3816	65.1999
3800	64.7666
3784	65.0285
3768	65.2724
3752	65.3205
3736	65.1314
3720	65.4635
3704	65.1607
3688	65.4275
3672	65.0447
3656	65.1188
3640	65.0768
3624	65.3161
3608	65.1405
3592	65.3946
3576	65.0729
3560	65.1567
3544	65.1085
3528	65.1407
3512	65.1893
3496	65.1067
3480	64.9386
3464	65.2277
3448	64.9832
3432	65.237
3416	65.0591
3400	65.0041
3384	65.013
3368	65.092
3352	65.1303
3336	65.2157
3320	65.1027
3304	65.0569
3288	64.8997
3272	65.1397
3256	65.2245
3240	65.1334
3224	65.4454
3208	65.2737
3192	64.9118
3176	65.3167
3160	65.0967
3144	65.134
3128	65.7469
3112	65.1525
3096	65.2057
3080	65.393
3064	65.045
3048	65.1901
3032	65.2421
3016	65.1597
3000	65.227
2984	64.984
2968	65.0865
2952	64.9708
2936	65.0094
2920	64.7972
2904	64.8914
2888	65.0078
2872	65.0713
2856	65.2483
2840	64.8728
2824	65.0795
2808	65.058
2792	65.2152
2776	65.2441
2760	65.1959
2744	65.2467
2728	65.3334
2712	65.2637
2696	65.2785
2680	65.1941
2664	65.4562
2648	65.2215
2632	65.1119
2616	65.2262
2600	65.2076
2584	65.3234
2568	65.2346
2552	65.3463
2536	65.2378
2520	65.2003
2504	65.2619
2488	65.3604
2472	65.2462
2456	65.1876
2440	65.0047
2424	64.8145
2408	65.1159
2392	65.3147
2376	65.1985
2360	65.2017
2344	65.1709
2328	65.1861
2312	65.2875
2296	65.274
2280	65.2901
2264	65.2896
2248	65.1998
2232	65.2296
2216	65.1206
2200	65.1443
2184	65.2581
2168	65.2985
2152	65.6881
2136	65.3212
2120	65.2395
2104	65.3043
2088	65.2543
2072	66.0417
2056	64.9851
2040	65.2678
2024	65.2271
2008	65.272
1992	65.2438
1976	65.2579
1960	65.2047
1944	65.2719
1928	65.2896
1912	65.2032
1896	65.3381
1880	65.2642
1864	65.1287
1848	65.2277
1832	65.2866
1816	65.2427
1800	65.1365
1784	65.1275
1768	65.2868
1752	65.077
1736	64.9728
1720	64.9255
1704	65.0636
1688	65.2538
1672	65.0839
1656	65.1259
1640	65.1729
1624	65.0876
1608	65.0169
1592	64.9281
1576	65.0082
1560	64.9485
1544	65.1014
1528	65.0261
1512	65.1829
1496	65.1532
1480	65.0469
1464	65.071
1448	65.1054
1432	64.9504
1416	64.9872
1400	65.0499
1384	64.8269
1368	64.9399
1352	64.9813
1336	64.922
1320	64.9824
1304	64.7846
1288	64.9341
1272	64.8682
1256	64.9069
1240	64.7736
1224	64.7465
1208	64.8453
1192	64.674
1176	64.7557
1160	64.5717
1144	64.5495
1128	64.5286
1112	64.5051
1096	64.6784
1080	64.495
1064	64.4993
1048	64.7243
1032	64.2867
1016	64.373
1000	64.33
984	 64.5042
968	 64.4078
952	 64.4491
936	 64.1673
920	 64.9753
904	 64.2875
888	 64.5316
872	 64.34
856	 64.3524
840	 64.4245
824	 64.3748
808	 63.5916
792	 63.6001
776	 63.6688
760	 63.4227
744	 62.856
728	 63.1086
712	 63.0527
696	 62.7774
680	 62.8563
664	 62.2619
648	 62.5084
632	 62.0409
616	 62.1647
600	 61.3866
584	 61.3343
568	 61.99
552	 61.8927
536	 60.6205
520	 60.0841
504	 60.4284
488	 61.4336
472	 59.5736
456	 58.429
440	 54.8806
424	 53.6414
408	 47.9579
392	 22.7141
376	 102.396
370	 124.189