Folder: Masteroppgave/Bakgrunnsmateriale/MATLAB/FTIR/ftir_data/subBb/Mapping_121 (part 4)

File: C-4040-8_t01_cm-1.asc
PE IR       SPECTRUM    SPECTRUM    ASCII       PEDS        1.60
  -1
C-4040~3.ASC
17/03/27
14:35:34.00
17/03/27
14:35:34.00
tln
$C-4040-8_t0001$<tbV0>[13.0,-13.0,8.0,0.0,27,1,0]
370
64

2002,4.07
MIRTGS : RIGHTBACK : INTERNAL 2
MIR : ON : INTERNAL 2
OPTKBR

0.200000
8
8.000000
FILLER
RATIO
SPECTRUM
UNLOCKED 256

DOUBLE
64
COMBINED
1
0
0

1.000000
RATIO

1
0
TRUE
51149
0
LEFT NOT FITTED RIGHT NOT FITTED 0
NONE
NONE
15600
12
4.427000
51148
TRUE
1 0 8 72 0 0 0 0

15798

#HDR
-1
-1
#GR
CM-1
%T
2.38419e-05
0.0
5000
-1.000000
4631
8
70.6951
36.7219
#DATA
5000	62.916
4984	63.8592
4968	64.6149
4952	64.747
4936	64.122
4920	64.2497
4904	65.6576
4888	64.903
4872	64.9676
4856	65.0818
4840	64.7939
4824	64.7155
4808	64.2619
4792	64.6799
4776	64.8823
4760	64.4179
4744	64.5215
4728	64.2876
4712	64.4208
4696	64.5286
4680	64.6981
4664	64.8819
4648	65.0217
4632	65.2405
4616	65.4334
4600	65.1361
4584	65.2534
4568	65.3599
4552	65.2321
4536	64.7036
4520	65.2487
4504	65.837
4488	65.2956
4472	65.2868
4456	67.441
4440	44.1009
4424	61.3692
4408	66.5072
4392	67.0838
4376	66.317
4360	66.2299
4344	65.5901
4328	65.2713
4312	64.9269
4296	65.4052
4280	65.2881
4264	64.7177
4248	64.8637
4232	64.9523
4216	64.8807
4200	64.9751
4184	64.4292
4168	64.8417
4152	64.8187
4136	64.5765
4120	64.7792
4104	64.7823
4088	64.8257
4072	64.9931
4056	65.0383
4040	65.0193
4024	65.1306
4008	65.204
3992	65.1536
3976	64.9385
3960	65.0922
3944	65.1294
3928	65.2551
3912	65.6173
3896	65.0811
3880	64.8017
3864	65.3861
3848	65.1683
3832	64.9697
3816	64.9606
3800	65.3417
3784	64.8905
3768	65.2261
3752	65.4357
3736	65.2323
3720	65.3053
3704	65.1901
3688	65.2234
3672	65.1912
3656	65.0377
3640	64.8767
3624	64.9039
3608	64.9824
3592	65.0537
3576	65.2475
3560	65.2626
3544	64.9423
3528	65.1352
3512	64.8578
3496	65.0381
3480	65.0229
3464	65.1573
3448	65.2331
3432	64.9812
3416	64.9456
3400	65.0158
3384	65.0888
3368	64.9759
3352	65.0076
3336	65.0808
3320	64.9953
3304	65.112
3288	65.0407
3272	65.1202
3256	64.9774
3240	64.9846
3224	65.0053
3208	65.1858
3192	64.7884
3176	64.9589
3160	65.0078
3144	64.9004
3128	64.8562
3112	65.3249
3096	65.1266
3080	65.1082
3064	65.211
3048	65.1144
3032	65.1337
3016	65.1356
3000	65.1249
2984	65.0255
2968	64.9608
2952	64.9357
2936	65.087
2920	64.944
2904	64.7947
2888	64.9953
2872	64.9425
2856	64.9453
2840	65.2171
2824	65.0257
2808	65.0903
2792	64.9919
2776	65.053
2760	65.236
2744	65.1634
2728	65.1459
2712	65.113
2696	65.3134
2680	65.1452
2664	65.1967
2648	65.1662
2632	65.3034
2616	65.2448
2600	65.1446
2584	65.1917
2568	65.1837
2552	65.2051
2536	65.2592
2520	65.2508
2504	65.0533
2488	65.1254
2472	65.1179
2456	65.1389
2440	65.1852
2424	65.1181
2408	64.919
2392	65.217
2376	65.2774
2360	65.3457
2344	65.0364
2328	65.254
2312	65.2655
2296	65.1742
2280	65.2833
2264	65.3271
2248	65.327
2232	65.0309
2216	65.3089
2200	65.3024
2184	65.2277
2168	65.2206
2152	65.2279
2136	65.3543
2120	65.3603
2104	65.1306
2088	65.3429
2072	64.8728
2056	65.0903
2040	65.245
2024	65.2709
2008	65.2252
1992	65.1866
1976	65.2517
1960	65.2776
1944	65.3716
1928	65.1669
1912	65.2963
1896	65.2591
1880	65.2873
1864	65.1525
1848	65.2333
1832	65.2036
1816	65.3092
1800	65.3768
1784	65.3654
1768	65.2547
1752	65.2918
1736	65.1743
1720	65.3625
1704	65.3141
1688	65.2881
1672	65.3153
1656	65.4637
1640	65.2788
1624	65.1299
1608	65.1838
1592	65.0621
1576	65.3136
1560	65.367
1544	65.2671
1528	65.1675
1512	65.1965
1496	65.2389
1480	65.089
1464	65.0604
1448	65.2093
1432	65.259
1416	65.2086
1400	65.0213
1384	65.1422
1368	64.9851
1352	65.09
1336	64.9438
1320	65.0877
1304	64.9373
1288	65.0286
1272	64.8532
1256	64.9388
1240	64.969
1224	65.1444
1208	65.0105
1192	64.9495
1176	64.9391
1160	64.9797
1144	64.9336
1128	64.7254
1112	64.7673
1096	64.6175
1080	64.7035
1064	64.7459
1048	64.8038
1032	64.6028
1016	64.6532
1000	64.839
984	 64.8104
968	 64.4814
952	 64.4844
936	 64.5911
920	 64.4868
904	 64.342
888	 64.4201
872	 64.4453
856	 64.5776
840	 64.1967
824	 64.0361
808	 63.9851
792	 64.0733
776	 64.1067
760	 63.9565
744	 63.8048
728	 63.5776
712	 63.4258
696	 63.2658
680	 62.6734
664	 63.0633
648	 63.3878
632	 63.0179
616	 62.5461
600	 62.5772
584	 61.9351
568	 62.3873
552	 62.2046
536	 61.4872
520	 60.2618
504	 59.6248
488	 60.955
472	 60.1296
456	 58.02
440	 57.6092
424	 59.9379
408	 55.9408
392	 37.3591
376	 52.4592
370	 50.7752

File: C-4040-8_t02.asc
PE IR       SPECTRUM    SPECTRUM    ASCII       PEDS        1.60
  -1
C-A522~1.ASC
17/03/27
14:40:11.00
17/03/27
14:40:37.00
tln
$C-4040-8_t0002$<tbV0>[10.4,-13.0,8.0,0.0,27,1,0]
27.028
64

2002,4.07
MIRTGS : RIGHTBACK : INTERNAL 2
MIR : ON : INTERNAL 2
OPTKBR

0.200000
8
8.000000
FILLER
RATIO
SPECTRUM
UNLOCKED 256

DOUBLE
64
COMBINED
1
0
0

0.002000
RATIO

1
0
TRUE
51149
0
LEFT NOT FITTED RIGHT NOT FITTED 0
NONE
NONE
15600
12
4.427000
51148
TRUE
1 0 8 72 0 0 0 0

15798

#HDR
-1
-1
#GR
µM
%T
2.38419e-05
0.0
2.000000
0.002000
12515
8
69.4416
-0.657820
#DATA
2.000000	 63.306
2.084000	 63.1329
2.168000	 63.4334
2.252000	 66.2862
2.336000	 62.7104
2.420000	 62.1974
2.504000	 62.3994
2.588000	 61.9861
2.672000	 61.7021
2.756000	 61.2651
2.840000	 60.5892
2.924000	 59.9107
3.008000	 59.4316
3.092000	 59.0239
3.176000	 58.5942
3.260000	 58.1564
3.344000	 57.6599
3.428000	 56.8156
3.512000	 56.5492
3.596000	 56.2047
3.680000	 55.8103
3.764000	 55.2117
3.848000	 54.7281
3.932000	 54.2841
4.016000	 53.8764
4.100000	 53.4384
4.184000	 53.0151
4.268000	 52.5301
4.352000	 52.1281
4.436000	 51.8655
4.520000	 51.4273
4.604000	 50.9184
4.688000	 50.543
4.772000	 50.2431
4.856000	 49.8521
4.940000	 49.5897
5.024000	 49.2146
5.108000	 48.9057
5.192000	 48.5187
5.276000	 48.2447
5.359999	 47.9881
5.444000	 47.6167
5.528000	 47.4827
5.612000	 47.2075
5.696000	 47.0702
5.780000	 46.7531
5.864000	 46.5297
5.948000	 46.2304
6.032000	 46.0095
6.116000	 45.6617
6.200000	 45.4693
6.284000	 45.2334
6.368000	 44.9946
6.452000	 44.8461
6.536000	 44.7548
6.620000	 44.7215
6.704000	 44.4078
6.788000	 44.1635
6.872000	 44.0927
6.956000	 43.6847
7.040000	 43.5985
7.124000	 43.3018
7.208000	 43.266
7.292000	 43.0397
7.376000	 42.7908
7.460000	 42.7884
7.544000	 42.6445
7.628000	 42.5508
7.712000	 42.4185
7.796000	 42.4066
7.880000	 42.1592
7.964000	 42.1961
8.048000	 41.9522
8.132000	 41.9686
8.216000	 41.761
8.300000	 41.6717
8.384000	 41.3758
8.468000	 41.2273
8.552000	 41.0676
8.635999	 40.9115
8.719999	 40.9742
8.804000	 40.7597
8.888000	 40.5742
8.972000	 40.6706
9.056000	 40.5461
9.140000	 40.1603
9.224000	 40.3135
9.308000	 40.1347
9.391999	 40.1871
9.475999	 39.9272
9.560000	 39.7745
9.644000	 39.8642
9.728000	 39.697
9.812000	 39.6216
9.896000	 39.7392
9.980000	 39.465
10.064	39.3383
10.148	39.3106
10.232	39.2193
10.316	39.0481
10.4	38.9112
10.484	38.8367
10.568	38.7407
10.652	38.8138
10.736	38.5798
10.82	38.4513
10.904	38.3893
10.988	38.316
11.072	38.2857
11.156	38.2078
11.24	38.2151
11.324	38.1276
11.408	37.8277
11.492	37.7812
11.576	37.6181
11.66	37.5124
11.744	37.5522
11.828	37.5275
11.912	37.4315
11.996	37.358
12.08	37.1915
12.164	37.0243
12.248	37.0784
12.332	37.0989
12.416	36.8452
12.5	36.6879
12.584	36.8202
12.668	37.0162
12.752	36.8898
12.836	36.7005
12.92	36.7001
13.004	36.6692
13.088	36.4911
13.172	36.3303
13.256	36.2678
13.34	36.1885
13.424	36.1233
13.508	35.934
13.592	35.8866
13.676	35.9417
13.76	35.8626
13.844	35.6984
13.928	35.6475
14.012	35.5229
14.096	35.2394
14.18	35.1846
14.264	35.3116
14.348	35.2004
14.432	34.8485
14.516	34.5233
14.6	34.4601
14.684	34.6035
14.768	34.8346
14.852	34.7136
14.936	34.127
15.02	33.7579
15.104	33.9594
15.188	34.5668
15.272	34.911
15.356	34.4135
15.44	33.6857
15.524	33.5303
15.608	33.8115
15.692	33.9788
15.776	33.8203
15.86	33.5715
15.944	33.4059
16.028	33.2735
16.112	33.1786
16.196	33.1103
16.28	33.0211
16.364	32.9808
16.448	33.0028
16.532	33.0082
16.616	32.9768
16.7	32.8739
16.784	32.676
16.868	32.5417
16.952	32.5948
17.036	32.6472
17.12	32.4657
17.204	32.1409
17.288	31.9626
17.372	32.0584
17.456	32.2767
17.54	32.3529
17.624	32.1666
17.708	31.815
17.792	31.4575
17.876	31.1849
17.96	31.0042
18.044	30.885
18.128	30.8197
18.212	30.845
18.296	30.9857
18.38	31.1652
18.464	31.2056
18.548	30.9813
18.632	30.5716
18.716	30.2046
18.8	30.0536
18.884	30.0997
18.968	30.2074
19.052	30.2565
19.136	30.1903
19.22	30.0104
19.304	29.7969
19.388	29.6589
19.472	29.6138
19.556	29.5371
19.64	29.3
19.724	28.9466
19.808	28.6874
19.892	28.6982
19.976	28.966
20.06	29.3244
20.144	29.5916
20.228	29.6518
20.312	29.4669
20.396	29.0738
20.48	28.5986
20.564	28.2292
20.648	28.117
20.732	28.2887
20.816	28.6371
20.9	28.9904
20.984	29.1886
21.068	29.1495
21.152	28.8904
21.236	28.5097
21.32	28.1137
21.404	27.7397
21.488	27.3467
21.572	26.8764
21.656	26.3563
21.74	25.916
21.824	25.6982
21.908	25.7448
21.992	25.9732
22.076	26.2581
22.16	26.5298
22.244	26.8038
22.328	27.1153
22.412	27.4536
22.496	27.7283
22.58	27.833
22.664	27.702
22.748	27.3306
22.832	26.7564
22.916	26.0318
23	25.2277
23.084	24.4583
23.168	23.8785
23.252	23.6181
23.336	23.7418
23.42	24.1856
23.504	24.7962
23.588	25.3749
23.672	25.7551
23.756	25.8522
23.84	25.6279
23.924	25.076
24.008	24.2042
24.092	23.0383
24.176	21.6534
24.26	20.2047
24.344	18.9054
24.428	17.9607
24.512	17.5896
24.596	17.9107
24.68	18.8963
24.764	20.3612
24.848	21.994
24.932	23.516
25.016	24.8244
25.1	25.9948
25.184	27.199
25.268	28.5813
25.352	30.1777
25.436	31.9596
25.52	33.858
25.604	35.7748
25.688	37.4624
25.772	38.516
25.856	38.4835
25.94	37.0185
26.024	34.0676
26.108	29.9921
26.192	25.3811
26.276	20.8313
26.36	16.774
26.444	13.3925
26.528	10.6409
26.612	8.331598
26.696	6.247702
26.78	4.244027
26.864	2.304410
26.948	0.564676
27.028	-0.657820

File: C-4040-8_t02_cm-1.asc
PE IR       SPECTRUM    SPECTRUM    ASCII       PEDS        1.60
  -1
C-9964~1.ASC
17/03/27
14:40:11.00
17/03/27
14:40:11.00
tln
$C-4040-8_t0002$<tbV0>[10.4,-13.0,8.0,0.0,27,1,0]
370
64

2002,4.07
MIRTGS : RIGHTBACK : INTERNAL 2
MIR : ON : INTERNAL 2
OPTKBR

0.200000
8
8.000000
FILLER
RATIO
SPECTRUM
UNLOCKED 256

DOUBLE
64
COMBINED
1
0
0

1.000000
RATIO

1
0
TRUE
51149
0
LEFT NOT FITTED RIGHT NOT FITTED 0
NONE
NONE
15600
12
4.427000
51148
TRUE
1 0 8 72 0 0 0 0

15798

#HDR
-1
-1
#GR
CM-1
%T
2.38419e-05
0.0
5000
-1.000000
4631
8
69.8063
-0.657820
#DATA
5000	63.306
4984	64.093
4968	63.5468
4952	62.6263
4936	62.5163
4920	62.0002
4904	63.851
4888	63.4838
4872	63.9736
4856	63.226
4840	63.7084
4824	63.2506
4808	62.6573
4792	63.2018
4776	63.0002
4760	62.5015
4744	62.9351
4728	62.9552
4712	62.5619
4696	63.0573
4680	63.2113
4664	62.9058
4648	63.2758
4632	63.5445
4616	63.4627
4600	63.4055
4584	63.5907
4568	63.2608
4552	63.47
4536	62.9859
4520	63.4937
4504	63.6254
4488	63.6112
4472	63.2503
4456	64.9935
4440	65.7686
4424	46.9597
4408	65.9998
4392	64.0789
4376	64.0493
4360	64.1252
4344	63.823
4328	63.2705
4312	63.175
4296	62.9866
4280	62.7172
4264	62.5534
4248	62.6451
4232	62.3637
4216	62.3553
4200	62.4669
4184	61.7445
4168	61.4784
4152	62.0446
4136	61.9666
4120	62.101
4104	62.2141
4088	62.1956
4072	62.0733
4056	62.2388
4040	62.0671
4024	62.2262
4008	62.167
3992	62.4033
3976	61.7626
3960	62.1139
3944	62.1112
3928	62.0261
3912	62.1705
3896	62.1137
3880	61.6894
3864	61.9861
3848	61.7672
3832	61.8319
3816	61.5852
3800	61.9058
3784	61.3114
3768	61.5342
3752	61.6493
3736	61.5861
3720	61.562
3704	61.1148
3688	61.0762
3672	61.4522
3656	61.1505
3640	60.9455
3624	61.1219
3608	60.7536
3592	60.885
3576	60.7295
3560	60.8141
3544	60.6257
3528	60.575
3512	60.376
3496	60.3456
3480	60.6098
3464	60.2189
3448	60.12
3432	60.2574
3416	60.0553
3400	59.9746
3384	59.9149
3368	59.7931
3352	59.574
3336	59.6277
3320	59.349
3304	59.5492
3288	59.4422
3272	59.1921
3256	58.9885
3240	59.0438
3224	58.8081
3208	59.1459
3192	58.6787
3176	58.6724
3160	58.6667
3144	58.5642
3128	58.2928
3112	58.4946
3096	58.2976
3080	58.1327
3064	58.1431
3048	58.1669
3032	57.7915
3016	57.8031
3000	57.6383
2984	57.6295
2968	57.5271
2952	57.3329
2936	57.184
2920	56.7795
2904	56.9905
2888	56.8236
2872	56.7018
2856	56.4891
2840	56.6239
2824	56.437
2808	56.3073
2792	56.2847
2776	56.1015
2760	55.9892
2744	55.9283
2728	55.7884
2712	55.7487
2696	55.6256
2680	55.4171
2664	55.2121
2648	55.1543
2632	55.0014
2616	54.8882
2600	54.7222
2584	54.6359
2568	54.4389
2552	54.3058
2536	54.0974
2520	54.0778
2504	54.0001
2488	53.8475
2472	53.6028
2456	53.5787
2440	53.4735
2424	53.1761
2408	53.1166
2392	53.0153
2376	52.7491
2360	52.6699
2344	52.5378
2328	52.4127
2312	52.2128
2296	52.0801
2280	52.0363
2264	51.8322
2248	51.7483
2232	51.5735
2216	51.4314
2200	51.2749
2184	50.966
2168	50.8451
2152	50.6074
2136	50.6719
2120	50.4683
2104	50.176
2088	50.183
2072	49.9219
2056	49.788
2040	49.7691
2024	49.5819
2008	49.4775
1992	49.2711
1976	49.1082
1960	48.9318
1944	48.7331
1928	48.5484
1912	48.4297
1896	48.2462
1880	47.9553
1864	47.982
1848	47.7484
1832	47.6125
1816	47.586
1800	47.2872
1784	47.2145
1768	47.1607
1752	46.9827
1736	46.7353
1720	46.6247
1704	46.5533
1688	46.2795
1672	46.157
1656	46.0686
1640	45.7842
1624	45.47
1608	45.4696
1592	45.2359
1576	45.1324
1560	45.1144
1544	45.0322
1528	44.7641
1512	44.6864
1496	44.544
1480	44.2096
1464	44.1679
1448	43.8561
1432	43.6314
1416	43.4988
1400	43.298
1384	43.2007
1368	42.9064
1352	42.8195
1336	42.6506
1320	42.6466
1304	42.4089
1288	42.4615
1272	42.1402
1256	42.1968
1240	41.9362
1224	41.9376
1208	41.6561
1192	41.3688
1176	41.1492
1160	40.9356
1144	40.9696
1128	40.6263
1112	40.691
1096	40.135
1080	40.206
1064	40.1727
1048	39.7812
1032	39.7553
1016	39.7089
1000	39.4103
984	 39.2986
968	 39.0362
952	 38.79
936	 38.7341
920	 38.416
904	 38.2799
888	 38.2499
872	 37.8027
856	 37.5142
840	 37.4344
824	 37.0804
808	 36.9657
792	 36.9546
776	 36.6847
760	 36.3457
744	 36.0914
728	 35.9035
712	 35.4132
696	 35.1319
680	 34.665
664	 33.7851
648	 33.7356
632	 33.674
616	 33.071
600	 32.928
584	 32.4541
568	 32.2273
552	 30.8247
536	 30.4481
520	 29.9826
504	 28.6553
488	 28.5362
472	 28.7419
456	 25.792
440	 27.4428
424	 25.3566
408	 17.5905
392	 33.6333
376	 8.756470
370	 -0.657820

File: C-4040-8_t03.asc
PE IR       SPECTRUM    SPECTRUM    ASCII       PEDS        1.60
  -1
C-A526~1.ASC
17/03/27
14:44:48.00
17/03/27
14:45:14.00
tln
$C-4040-8_t0003$<tbV0>[7.8,-13.0,8.0,0.0,27,1,0]
27.028
64

2002,4.07
MIRTGS : RIGHTBACK : INTERNAL 2
MIR : ON : INTERNAL 2
OPTKBR

0.200000
8
8.000000
FILLER
RATIO
SPECTRUM
UNLOCKED 256

DOUBLE
64
COMBINED
1
0
0

0.002000
RATIO

1
0
TRUE
51149
0
LEFT NOT FITTED RIGHT NOT FITTED 0
NONE
NONE
15600
12
4.427000
51148
TRUE
1 0 8 72 0 0 0 0

15798

#HDR
-1
-1
#GR
µM
%T
2.38419e-05
0.0
2.000000
0.002000
12515
8
67.5978
12.5334
#DATA
2.000000	 62.3075
2.084000	 62.5837
2.168000	 62.6529
2.252000	 64.0177
2.336000	 62.2604
2.420000	 61.8705
2.504000	 61.7369
2.588000	 61.0283
2.672000	 60.6902
2.756000	 60.1213
2.840000	 59.3657
2.924000	 58.6412
3.008000	 58.0484
3.092000	 57.3774
3.176000	 56.8752
3.260000	 55.9374
3.344000	 55.4181
3.428000	 54.5619
3.512000	 54.0386
3.596000	 53.4381
3.680000	 52.6724
3.764000	 52.0575
3.848000	 51.3679
3.932000	 50.9061
4.016000	 50.1732
4.100000	 49.8478
4.184000	 48.9353
4.268000	 48.3723
4.352000	 47.9044
4.436000	 47.2913
4.520000	 46.7651
4.604000	 46.2506
4.688000	 45.6374
4.772000	 45.1844
4.856000	 44.732
4.940000	 44.3017
5.024000	 43.8908
5.108000	 43.2927
5.192000	 42.9
5.276000	 42.5783
5.359999	 42.1882
5.444000	 41.8476
5.528000	 41.4419
5.612000	 41.1315
5.696000	 40.8425
5.780000	 40.3478
5.864000	 40.0415
5.948000	 39.8298
6.032000	 39.5133
6.116000	 39.1789
6.200000	 38.8508
6.284000	 38.4437
6.368000	 38.122
6.452000	 38.0346
6.536000	 37.7282
6.620000	 37.4709
6.704000	 36.9579
6.788000	 36.8911
6.872000	 36.5217
6.956000	 36.3019
7.040000	 36.2214
7.124000	 35.9571
7.208000	 35.7499
7.292000	 35.5384
7.376000	 35.2894
7.460000	 35.1249
7.544000	 34.9794
7.628000	 34.7421
7.712000	 34.4579
7.796000	 34.2638
7.880000	 34.1706
7.964000	 34.0202
8.048000	 33.6095
8.132000	 33.6171
8.216000	 33.4703
8.300000	 33.2343
8.384000	 33.1293
8.468000	 32.9694
8.552000	 32.5998
8.635999	 32.5958
8.719999	 32.3907
8.804000	 32.3102
8.888000	 32.0785
8.972000	 31.9582
9.056000	 31.7338
9.140000	 31.5539
9.224000	 31.4842
9.308000	 31.1866
9.391999	 31.1182
9.475999	 31.0727
9.560000	 31.0086
9.644000	 30.8431
9.728000	 30.7466
9.812000	 30.5422
9.896000	 30.4443
9.980000	 30.2522
10.064	30.0531
10.148	29.9991
10.232	29.9583
10.316	29.7008
10.4	29.6272
10.484	29.5133
10.568	29.6265
10.652	29.4059
10.736	29.2207
10.82	29.0474
10.904	28.7745
10.988	28.6572
11.072	28.6742
11.156	28.5399
11.24	28.4209
11.324	28.2172
11.408	28.1626
11.492	27.9923
11.576	27.9044
11.66	27.8979
11.744	27.7055
11.828	27.527
11.912	27.4273
11.996	27.3031
12.08	27.2642
12.164	27.4877
12.248	27.2694
12.332	26.9364
12.416	26.8304
12.5	26.6843
12.584	26.5144
12.668	26.4279
12.752	26.4369
12.836	26.4672
12.92	26.2794
13.004	26.1244
13.088	25.862
13.172	25.4077
13.256	25.1355
13.34	25.195
13.424	25.6678
13.508	25.8845
13.592	25.5691
13.676	25.4079
13.76	25.378
13.844	25.2324
13.928	24.983
14.012	24.4538
14.096	24.0083
14.18	24.1138
14.264	24.3086
14.348	24.0429
14.432	23.3979
14.516	22.8029
14.6	22.6234
14.684	22.776
14.768	23.0237
14.852	23.3665
14.936	23.7227
15.02	23.5628
15.104	22.9918
15.188	22.8907
15.272	23.1888
15.356	23.1848
15.44	22.9311
15.524	22.7455
15.608	22.5164
15.692	22.1628
15.776	21.9049
15.86	21.9292
15.944	22.087
16.028	22.0723
16.112	21.9795
16.196	22.1315
16.28	22.3171
16.364	22.0382
16.448	21.3782
16.532	20.9145
16.616	20.9279
16.7	21.2094
16.784	21.4722
16.868	21.5554
16.952	21.3958
17.036	21.0642
17.12	20.7652
17.204	20.6344
17.288	20.5925
17.372	20.5309
17.456	20.5155
17.54	20.6229
17.624	20.741
17.708	20.7172
17.792	20.5723
17.876	20.4136
17.96	20.2492
18.044	20.046
18.128	19.8679
18.212	19.8004
18.296	19.7918
18.38	19.7026
18.464	19.5023
18.548	19.3052
18.632	19.2059
18.716	19.163
18.8	19.0814
18.884	18.9318
18.968	18.764
19.052	18.6364
19.136	18.58
19.22	18.5973
19.304	18.6529
19.388	18.6599
19.472	18.5147
19.556	18.1784
19.64	17.7397
19.724	17.3841
19.808	17.283
19.892	17.478
19.976	17.8488
20.06	18.1865
20.144	18.3147
20.228	18.1771
20.312	17.8336
20.396	17.3987
20.48	16.9868
20.564	16.6865
20.648	16.5538
20.732	16.6038
20.816	16.8022
20.9	17.0595
20.984	17.2384
21.068	17.2115
21.152	16.9225
21.236	16.4309
21.32	15.8813
21.404	15.4134
21.488	15.0957
21.572	14.9103
21.656	14.8002
21.74	14.726
21.824	14.6867
21.908	14.6996
21.992	14.7648
22.076	14.8592
22.16	14.9702
22.244	15.1368
22.328	15.422
22.412	15.8405
22.496	16.2914
22.58	16.5871
22.664	16.5461
22.748	16.104
22.832	15.3682
22.916	14.5763
23	13.9583
23.084	13.6595
23.168	13.686
23.252	13.9258
23.336	14.2316
23.42	14.471
23.504	14.5424
23.588	14.4371
23.672	14.238
23.756	14.0635
23.84	13.9763
23.924	13.9424
24.008	13.8516
24.092	13.6001
24.176	13.2118
24.26	12.8
24.344	12.5489
24.428	12.6939
24.512	13.5643
24.596	15.4574
24.68	18.4132
24.764	22.0311
24.848	25.5413
24.932	28.0366
25.016	28.8948
25.1	27.9974
25.184	25.6547
25.268	22.4627
25.352	19.0767
25.436	16.2419
25.52	14.6939
25.604	15.043
25.688	17.5889
25.772	22.0853
25.856	27.7531
25.94	33.4687
26.024	38.0602
26.108	40.7205
26.192	41.231
26.276	39.9211
26.36	37.5196
26.444	34.8321
26.528	32.4272
26.612	30.5656
26.696	29.1141
26.78	27.6702
26.864	25.8307
26.948	23.4683
27.028	21.0089

File: C-4040-8_t03_cm-1.asc
PE IR       SPECTRUM    SPECTRUM    ASCII       PEDS        1.60
  -1
C-99E1~1.ASC
17/03/27
14:44:48.00
17/03/27
14:44:48.00
tln
$C-4040-8_t0003$<tbV0>[7.8,-13.0,8.0,0.0,27,1,0]
370
64

2002,4.07
MIRTGS : RIGHTBACK : INTERNAL 2
MIR : ON : INTERNAL 2
OPTKBR

0.200000
8
8.000000
FILLER
RATIO
SPECTRUM
UNLOCKED 256

DOUBLE
64
COMBINED
1
0
0

1.000000
RATIO

1
0
TRUE
51149
0
LEFT NOT FITTED RIGHT NOT FITTED 0
NONE
NONE
15600
12
4.427000
51148
TRUE
1 0 8 72 0 0 0 0

15798

#HDR
-1
-1
#GR
CM-1
%T
2.38419e-05
0.0
5000
-1.000000
4631
8
67.8765
12.5589
#DATA
5000	62.3075
4984	63.5535
4968	62.5123
4952	62.9842
4936	62.4991
4920	62.9695
4904	63.6844
4888	63.6137
4872	63.0872
4856	62.7985
4840	63.7592
4824	62.9337
4808	62.6571
4792	62.9622
4776	63.1071
4760	62.7763
4744	63.0688
4728	62.5041
4712	62.3689
4696	62.7679
4680	62.7562
4664	62.5358
4648	62.9002
4632	62.8276
4616	62.6956
4600	62.8738
4584	63.1433
4568	62.8953
4552	63.1127
4536	62.5798
4520	63.059
4504	63.2037
4488	62.2212
4472	62.4406
4456	63.3322
4440	63.4715
4424	60.6317
4408	58.4321
4392	63.2704
4376	63.2434
4360	63.6723
4344	62.4959
4328	62.5468
4312	61.9933
4296	62.2322
4280	62.268
4264	62.1464
4248	62.1039
4232	61.8755
4216	62.0979
4200	62.0556
4184	61.6067
4168	61.2143
4152	61.5583
4136	61.7877
4120	61.8515
4104	61.7615
4088	61.9351
4072	61.4618
4056	61.6707
4040	61.46
4024	61.844
4008	61.7515
3992	61.6712
3976	61.2579
3960	61.4793
3944	61.3445
3928	61.1685
3912	61.3495
3896	61.3257
3880	60.9869
3864	61.028
3848	61.3307
3832	60.9379
3816	60.9241
3800	61.1251
3784	60.2959
3768	60.8028
3752	60.8504
3736	60.7058
3720	60.6298
3704	60.4992
3688	60.4988
3672	60.3667
3656	60.33
3640	59.9508
3624	59.968
3608	59.8531
3592	59.9388
3576	59.599
3560	59.7444
3544	59.5968
3528	59.5386
3512	59.2305
3496	59.0614
3480	59.2263
3464	59.1839
3448	59.1356
3432	58.7544
3416	58.646
3400	58.6318
3384	58.4315
3368	58.2404
3352	58.2345
3336	58.2871
3320	58.0218
3304	57.8143
3288	57.6363
3272	57.7548
3256	57.5631
3240	57.4244
3224	57.3234
3208	57.2625
3192	56.9432
3176	56.9881
3160	56.8366
3144	56.6842
3128	56.4282
3112	56.2393
3096	56.3704
3080	56.3367
3064	55.9002
3048	55.9659
3032	55.6904
3016	55.7527
3000	55.51
2984	55.284
2968	55.0344
2952	54.884
2936	54.9576
2920	54.5517
2904	54.3833
2888	54.5496
2872	54.2747
2856	54.0474
2840	53.993
2824	53.7888
2808	53.6937
2792	53.4062
2776	53.3407
2760	53.2212
2744	53.1444
2728	52.8136
2712	52.5635
2696	52.5784
2680	52.4123
2664	52.2307
2648	52.0029
2632	51.9256
2616	51.6687
2600	51.396
2584	51.1596
2568	51.0637
2552	50.9643
2536	50.8941
2520	50.5956
2504	50.3939
2488	50.1651
2472	50.0846
2456	49.7706
2440	49.8299
2424	49.3145
2408	49.1859
2392	48.9664
2376	48.8822
2360	48.6332
2344	48.3819
2328	48.2533
2312	48.0611
2296	47.8687
2280	47.6432
2264	47.4693
2248	47.2523
2232	46.8931
2216	46.8632
2200	46.5773
2184	46.4252
2168	46.1989
2152	45.9803
2136	45.6626
2120	45.5438
2104	45.4072
2088	45.2304
2072	44.8688
2056	44.6712
2040	44.4452
2024	44.2924
2008	44.1322
1992	43.9121
1976	43.639
1960	43.3386
1944	43.155
1928	42.9313
1912	42.7956
1896	42.5777
1880	42.3874
1864	42.1485
1848	41.9535
1832	41.7755
1816	41.5275
1800	41.3527
1784	41.155
1768	40.9866
1752	40.818
1736	40.4941
1720	40.3669
1704	40.0668
1688	39.8419
1672	39.6811
1656	39.5737
1640	39.243
1624	38.994
1608	38.7186
1592	38.4557
1576	38.2212
1560	38.1957
1544	38.1437
1528	37.7528
1512	37.4657
1496	37.1296
1480	36.9268
1464	36.838
1448	36.458
1432	36.4279
1416	36.1556
1400	35.8888
1384	35.6575
1368	35.5196
1352	35.1773
1336	35.0015
1320	34.8947
1304	34.516
1288	34.4108
1272	34.1285
1256	34.0282
1240	33.5736
1224	33.5497
1208	33.2397
1192	33.1203
1176	32.746
1160	32.6511
1144	32.3412
1128	32.1089
1112	31.8696
1096	31.5693
1080	31.321
1064	31.113
1048	31.0218
1032	30.7199
1016	30.4028
1000	30.149
984	 30.001
968	 29.7082
952	 29.5727
936	 29.3384
920	 28.8759
904	 28.6807
888	 28.3526
872	 28.0211
856	 27.8655
840	 27.4334
824	 27.4291
808	 26.87
792	 26.4606
776	 26.3712
760	 25.478
744	 25.7614
728	 25.3982
712	 24.2279
696	 23.9126
680	 22.8364
664	 23.284
648	 22.9537
632	 21.8845
616	 22.2451
600	 21.0868
584	 20.7567
568	 20.7241
552	 19.8876
536	 19.192
520	 18.6035
504	 17.3285
488	 16.9363
472	 16.738
456	 14.7123
440	 16.2477
424	 14.4432
408	 13.529
392	 14.7825
376	 30.8855
370	 21.0089