Folder: Masteroppgave/Bakgrunnsmateriale/MATLAB/FTIR/ftir_data/subBb/Mapping_121 (part 17)

File: C-4040-8_t34.asc
PE IR       SPECTRUM    SPECTRUM    ASCII       PEDS        1.60
  -1
C-B13A~1.ASC
17/03/27
17:16:13.00
17/03/27
17:16:39.00
tln
$C-4040-8_t0034$<tbV0>[13.0,-5.2,8.0,0.0,27,1,0]
27.028
64

2002,4.07
MIRTGS : RIGHTBACK : INTERNAL 2
MIR : ON : INTERNAL 2
OPTKBR

0.200000
8
8.000000
FILLER
RATIO
SPECTRUM
UNLOCKED 256

DOUBLE
64
COMBINED
1
0
0

0.002000
RATIO

1
0
TRUE
51149
0
LEFT NOT FITTED RIGHT NOT FITTED 0
NONE
NONE
15600
12
4.427000
51148
TRUE
1 0 8 72 0 0 0 0

15798

#HDR
-1
-1
#GR
µM
%T
2.38419e-05
0.0
2.000000
0.002000
12515
8
93.9398
47.9278
#DATA
2.000000	 64.4539
2.084000	 64.8619
2.168000	 65.2446
2.252000	 64.0801
2.336000	 64.3885
2.420000	 64.9102
2.504000	 64.9976
2.588000	 64.8156
2.672000	 64.9949
2.756000	 65.1353
2.840000	 65.1147
2.924000	 64.8577
3.008000	 65.0565
3.092000	 65.2142
3.176000	 65.0317
3.260000	 65.1191
3.344000	 65.0116
3.428000	 64.8038
3.512000	 64.9743
3.596000	 65.2388
3.680000	 65.2604
3.764000	 65.2272
3.848000	 65.2528
3.932000	 65.3391
4.016000	 65.1084
4.100000	 65.1781
4.184000	 65.3844
4.268000	 65.4161
4.352000	 65.2723
4.436000	 65.1703
4.520000	 65.2162
4.604000	 65.2801
4.688000	 65.3528
4.772000	 65.2626
4.856000	 65.4263
4.940000	 65.219
5.024000	 65.2953
5.108000	 65.4135
5.192000	 65.4518
5.276000	 65.3819
5.359999	 65.3099
5.444000	 65.2699
5.528000	 65.2859
5.612000	 65.1856
5.696000	 65.2499
5.780000	 64.9727
5.864000	 65.3771
5.948000	 65.2415
6.032000	 65.1487
6.116000	 65.1964
6.200000	 65.1774
6.284000	 65.1946
6.368000	 65.0388
6.452000	 65.011
6.536000	 64.9571
6.620000	 65.2201
6.704000	 65.198
6.788000	 65.0956
6.872000	 65.0269
6.956000	 65.1007
7.040000	 64.9647
7.124000	 65.0282
7.208000	 64.9912
7.292000	 65.0237
7.376000	 65.1171
7.460000	 64.9758
7.544000	 65.0247
7.628000	 65.0534
7.712000	 64.939
7.796000	 64.9339
7.880000	 65.0166
7.964000	 64.9603
8.048000	 64.9913
8.132000	 64.9153
8.216000	 64.8583
8.300000	 64.7604
8.384000	 64.8838
8.468000	 64.9747
8.552000	 64.7636
8.635999	 64.5555
8.719999	 64.6798
8.804000	 64.97
8.888000	 64.7035
8.972000	 64.6617
9.056000	 64.6826
9.140000	 64.4239
9.224000	 64.5523
9.308000	 65.1111
9.391999	 64.4677
9.475999	 64.863
9.560000	 65.0046
9.644000	 64.7021
9.728000	 64.7875
9.812000	 65.0512
9.896000	 64.7906
9.980000	 64.7365
10.064	64.5826
10.148	64.8959
10.232	64.806
10.316	64.7107
10.4	64.1979
10.484	64.4746
10.568	64.566
10.652	64.5127
10.736	64.6098
10.82	64.4045
10.904	64.6632
10.988	64.6633
11.072	64.4759
11.156	64.3377
11.24	64.2961
11.324	64.4661
11.408	64.3759
11.492	64.2948
11.576	64.4932
11.66	64.4968
11.744	64.4444
11.828	64.3443
11.912	64.1796
11.996	64.1887
12.08	64.2055
12.164	64.1983
12.248	64.1036
12.332	64.0863
12.416	64.1254
12.5	64.0477
12.584	64.1659
12.668	64.3269
12.752	64.3239
12.836	64.104
12.92	63.8976
13.004	63.7789
13.088	63.6404
13.172	63.6105
13.256	63.7778
13.34	63.9445
13.424	64.0689
13.508	64.1129
13.592	63.758
13.676	63.487
13.76	63.5481
13.844	63.607
13.928	63.4448
14.012	63.2875
14.096	63.4817
14.18	63.6004
14.264	63.4864
14.348	63.3158
14.432	63.1191
14.516	63.096
14.6	63.1257
14.684	63.0016
14.768	62.8012
14.852	62.7035
14.936	62.8645
15.02	63.0722
15.104	63.106
15.188	63.1201
15.272	63.1044
15.356	62.9289
15.44	62.7373
15.524	62.5912
15.608	62.404
15.692	62.2838
15.776	62.3305
15.86	62.4216
15.944	62.5196
16.028	62.6986
16.112	62.803
16.196	62.6193
16.28	62.2855
16.364	62.1307
16.448	62.29
16.532	62.5812
16.616	62.6787
16.7	62.4699
16.784	62.1634
16.868	61.9656
16.952	61.8724
17.036	61.7974
17.12	61.7226
17.204	61.7055
17.288	61.7676
17.372	61.8183
17.456	61.763
17.54	61.6596
17.624	61.634
17.708	61.7053
17.792	61.8044
17.876	61.8617
17.96	61.8256
18.044	61.673
18.128	61.4529
18.212	61.2679
18.296	61.1888
18.38	61.2155
18.464	61.3137
18.548	61.4291
18.632	61.4692
18.716	61.3579
18.8	61.1324
18.884	60.938
18.968	60.8999
19.052	61.0092
19.136	61.1429
19.22	61.1809
19.304	61.1023
19.388	60.9863
19.472	60.9224
19.556	60.9231
19.64	60.919
19.724	60.8604
19.808	60.7729
19.892	60.7058
19.976	60.6521
20.06	60.5616
20.144	60.4211
20.228	60.3018
20.312	60.3119
20.396	60.4931
20.48	60.7639
20.564	60.9546
20.648	60.9115
20.732	60.5972
20.816	60.1146
20.9	59.6403
20.984	59.3101
21.068	59.1539
21.152	59.1223
21.236	59.1587
21.32	59.2486
21.404	59.3934
21.488	59.5582
21.572	59.6628
21.656	59.6245
21.74	59.4248
21.824	59.137
21.908	58.8819
21.992	58.7498
22.076	58.7586
22.16	58.8565
22.244	58.9692
22.328	59.0337
22.412	59.0064
22.496	58.8579
22.58	58.5816
22.664	58.2121
22.748	57.8512
22.832	57.638
22.916	57.6871
23	58.001
23.084	58.4652
23.168	58.8814
23.252	59.0891
23.336	59.0287
23.42	58.7191
23.504	58.2497
23.588	57.6917
23.672	57.0731
23.756	56.4375
23.84	55.8245
23.924	55.3056
24.008	54.9486
24.092	54.7738
24.176	54.7598
24.26	54.8382
24.344	54.9217
24.428	54.9732
24.512	55.0633
24.596	55.3164
24.68	55.8852
24.764	56.9132
24.848	58.4262
24.932	60.4872
25.016	63.2154
25.1	66.7116
25.184	70.9008
25.268	75.4773
25.352	80.0107
25.436	83.973
25.52	87.0509
25.604	89.3305
25.688	91.0142
25.772	92.2893
25.856	93.2275
25.94	93.808
26.024	93.9183
26.108	93.4097
26.192	92.1386
26.276	89.9681
26.36	86.8803
26.444	82.8369
26.528	77.829
26.612	71.9402
26.696	65.4738
26.78	58.9849
26.864	53.2523
26.948	49.2496
27.028	47.9278

File: C-4040-8_t34_cm-1.asc
PE IR       SPECTRUM    SPECTRUM    ASCII       PEDS        1.60
  -1
C-1B6F~1.ASC
17/03/27
17:16:13.00
17/03/27
17:16:13.00
tln
$C-4040-8_t0034$<tbV0>[13.0,-5.2,8.0,0.0,27,1,0]
370
64

2002,4.07
MIRTGS : RIGHTBACK : INTERNAL 2
MIR : ON : INTERNAL 2
OPTKBR

0.200000
8
8.000000
FILLER
RATIO
SPECTRUM
UNLOCKED 256

DOUBLE
64
COMBINED
1
0
0

1.000000
RATIO

1
0
TRUE
51149
0
LEFT NOT FITTED RIGHT NOT FITTED 0
NONE
NONE
15600
12
4.427000
51148
TRUE
1 0 8 72 0 0 0 0

15798

#HDR
-1
-1
#GR
CM-1
%T
2.38419e-05
0.0
5000
-1.000000
4631
8
93.9141
47.9278
#DATA
5000	64.4539
4984	64.6493
4968	64.6539
4952	64.4966
4936	64.9088
4920	64.5947
4904	64.8402
4888	64.3012
4872	64.8401
4856	64.3343
4840	64.5163
4824	65.1287
4808	64.8312
4792	64.9847
4776	64.57
4760	65.0321
4744	65.1583
4728	64.9565
4712	64.8565
4696	65.1504
4680	65.26
4664	65.1783
4648	64.9239
4632	65.1194
4616	65.1923
4600	64.9241
4584	64.5492
4568	64.7861
4552	64.8525
4536	64.9261
4520	65.2507
4504	64.508
4488	64.6932
4472	64.1742
4456	64.3972
4440	64.0934
4424	64.1663
4408	63.6119
4392	64.1409
4376	64.4146
4360	75.7351
4344	65.7176
4328	64.4563
4312	64.5294
4296	64.4264
4280	64.4328
4264	64.2572
4248	64.6545
4232	64.6574
4216	64.6662
4200	65.0535
4184	64.5948
4168	64.1941
4152	64.7964
4136	64.9392
4120	65.0212
4104	64.9026
4088	65.0218
4072	65.0141
4056	64.9288
4040	65.1055
4024	65.0841
4008	64.9015
3992	64.9804
3976	65.0169
3960	65.0182
3944	65.1919
3928	64.8078
3912	64.8013
3896	65.0073
3880	65.1142
3864	64.815
3848	64.8971
3832	64.7784
3816	65.0529
3800	64.8115
3784	64.9738
3768	65.008
3752	65.2661
3736	64.9353
3720	64.9906
3704	65.0002
3688	65.1079
3672	65.0673
3656	64.9639
3640	64.9823
3624	65.1171
3608	65.1524
3592	64.9869
3576	65.0406
3560	64.9881
3544	65.0453
3528	65.1624
3512	65.2328
3496	65.2225
3480	65.3134
3464	65.3002
3448	65.209
3432	65.0625
3416	64.8844
3400	65.1443
3384	64.9653
3368	65.0534
3352	64.9978
3336	65.0701
3320	65.023
3304	65.2004
3288	65.1487
3272	64.9421
3256	65.1244
3240	65.1412
3224	64.981
3208	64.9702
3192	65.1491
3176	65.3323
3160	65.0251
3144	65.1469
3128	64.8507
3112	65.3971
3096	65.2465
3080	65.0892
3064	65.1102
3048	65.071
3032	65.2788
3016	65.1227
3000	65.0177
2984	65.1163
2968	65.1361
2952	64.9896
2936	65.0904
2920	64.8115
2904	64.905
2888	65.0701
2872	65.0427
2856	64.9027
2840	65.2603
2824	65.2129
2808	65.3114
2792	65.2313
2776	65.2422
2760	65.2888
2744	65.1685
2728	65.2432
2712	65.208
2696	65.3191
2680	65.2604
2664	65.3072
2648	65.1527
2632	65.3071
2616	65.1883
2600	65.2722
2584	65.1069
2568	65.2306
2552	65.2729
2536	65.3005
2520	65.2313
2504	65.1993
2488	65.1832
2472	65.161
2456	65.285
2440	65.1923
2424	65.3284
2408	65.0385
2392	65.3797
2376	65.3621
2360	65.2498
2344	65.4161
2328	65.3311
2312	65.309
2296	65.2695
2280	65.2448
2264	65.2702
2248	65.2728
2232	65.3603
2216	65.188
2200	65.2941
2184	65.3588
2168	65.3132
2152	65.204
2136	65.2915
2120	65.2669
2104	65.3129
2088	65.3969
2072	65.2813
2056	65.4211
2040	65.2903
2024	65.22
2008	65.3454
1992	65.3335
1976	65.3377
1960	65.4069
1944	65.2835
1928	65.4771
1912	65.2993
1896	65.379
1880	65.2756
1864	65.3062
1848	65.2857
1832	65.1635
1816	65.3267
1800	65.2247
1784	65.191
1768	65.2511
1752	65.2855
1736	65.0011
1720	65.1304
1704	65.3522
1688	65.3164
1672	65.0726
1656	65.1543
1640	65.1713
1624	65.1532
1608	65.1714
1592	65.1923
1576	65.0579
1560	65.01
1544	64.9579
1528	64.9568
1512	65.2199
1496	65.2229
1480	65.098
1464	64.9825
1448	65.1468
1432	65.0072
1416	65.0427
1400	65.1172
1384	64.9277
1368	65.0343
1352	65.1297
1336	65.0893
1320	65.142
1304	65.0048
1288	64.9061
1272	65.0516
1256	64.9639
1240	64.9579
1224	64.882
1208	64.8094
1192	64.8932
1176	64.997
1160	64.5166
1144	64.724
1128	64.7151
1112	64.7123
1096	64.5328
1080	64.896
1064	64.4618
1048	65.0576
1032	64.7709
1016	64.8933
1000	64.715
984	 64.9511
968	 64.6392
952	 64.5502
936	 64.5305
920	 64.5025
904	 64.4861
888	 64.3301
872	 64.3007
856	 64.4599
840	 64.1894
824	 64.1949
808	 64.1158
792	 64.269
776	 63.9578
760	 63.6029
744	 64.0995
728	 63.5151
712	 63.3317
696	 63.2654
680	 62.951
664	 63.1052
648	 62.7521
632	 62.384
616	 62.4676
600	 62.5804
584	 61.7205
568	 61.6297
552	 61.4847
536	 61.4534
520	 61.1765
504	 60.7426
488	 60.7995
472	 59.1309
456	 58.8333
440	 57.932
424	 57.7135
408	 55.0592
392	 86.7357
376	 73.1343
370	 47.9278

File: C-4040-8_t35.asc
PE IR       SPECTRUM    SPECTRUM    ASCII       PEDS        1.60
  -1
C-B13E~1.ASC
17/03/27
17:20:50.00
17/03/27
17:21:16.00
tln
$C-4040-8_t0035$<tbV0>[10.4,-5.2,8.0,0.0,27,1,0]
27.028
64

2002,4.07
MIRTGS : RIGHTBACK : INTERNAL 2
MIR : ON : INTERNAL 2
OPTKBR

0.200000
8
8.000000
FILLER
RATIO
SPECTRUM
UNLOCKED 256

DOUBLE
64
COMBINED
1
0
0

0.002000
RATIO

1
0
TRUE
51149
0
LEFT NOT FITTED RIGHT NOT FITTED 0
NONE
NONE
15600
12
4.427000
51148
TRUE
1 0 8 72 0 0 0 0

15798

#HDR
-1
-1
#GR
µM
%T
2.38419e-05
0.0
2.000000
0.002000
12515
8
100.971
49.9882
#DATA
2.000000	 64.96
2.084000	 64.9987
2.168000	 64.9051
2.252000	 65.6216
2.336000	 65.1307
2.420000	 65.2246
2.504000	 65.1508
2.588000	 65.0616
2.672000	 65.1808
2.756000	 65.2286
2.840000	 65.0491
2.924000	 64.9935
3.008000	 64.9307
3.092000	 65.3225
3.176000	 65.2274
3.260000	 65.2831
3.344000	 65.1342
3.428000	 64.8284
3.512000	 64.9623
3.596000	 65.3037
3.680000	 65.2218
3.764000	 65.2687
3.848000	 65.2056
3.932000	 65.4666
4.016000	 65.3557
4.100000	 65.3483
4.184000	 65.4658
4.268000	 65.4293
4.352000	 65.4228
4.436000	 65.4525
4.520000	 65.3699
4.604000	 65.322
4.688000	 65.4855
4.772000	 65.416
4.856000	 65.4546
4.940000	 65.4104
5.024000	 65.4354
5.108000	 65.4953
5.192000	 65.4694
5.276000	 65.3996
5.359999	 65.4025
5.444000	 65.4444
5.528000	 65.3898
5.612000	 65.3055
5.696000	 65.3903
5.780000	 65.1746
5.864000	 65.3893
5.948000	 65.4305
6.032000	 65.394
6.116000	 65.3943
6.200000	 65.3723
6.284000	 65.4363
6.368000	 65.241
6.452000	 65.3566
6.536000	 65.2932
6.620000	 65.1984
6.704000	 65.3202
6.788000	 65.3241
6.872000	 65.3601
6.956000	 65.2285
7.040000	 65.1352
7.124000	 65.1432
7.208000	 65.192
7.292000	 64.9797
7.376000	 65.2287
7.460000	 65.1765
7.544000	 65.1432
7.628000	 65.1277
7.712000	 65.0576
7.796000	 65.2045
7.880000	 65.1452
7.964000	 65.2497
8.048000	 65.1221
8.132000	 65.1875
8.216000	 65.2211
8.300000	 65.0696
8.384000	 65.0441
8.468000	 65.0903
8.552000	 65.1301
8.635999	 64.9158
8.719999	 65.1384
8.804000	 65.163
8.888000	 64.538
8.972000	 64.975
9.056000	 65.1488
9.140000	 65.0653
9.224000	 65.1864
9.308000	 64.9234
9.391999	 64.9757
9.475999	 64.945
9.560000	 65.0366
9.644000	 65.2978
9.728000	 64.9256
9.812000	 64.7798
9.896000	 64.9485
9.980000	 64.6809
10.064	64.738
10.148	65.0714
10.232	64.6219
10.316	64.7447
10.4	64.5396
10.484	64.87
10.568	64.8945
10.652	64.6355
10.736	64.7126
10.82	64.5835
10.904	64.7374
10.988	64.7229
11.072	64.8084
11.156	64.7728
11.24	64.6102
11.324	64.7259
11.408	64.5623
11.492	64.5122
11.576	64.601
11.66	64.6626
11.744	64.7514
11.828	64.7824
11.912	64.5977
11.996	64.4783
12.08	64.4535
12.164	64.5995
12.248	64.3529
12.332	64.3222
12.416	64.4035
12.5	64.3186
12.584	64.2727
12.668	64.2441
12.752	64.1521
12.836	64.1892
12.92	64.3065
13.004	64.4064
13.088	64.3706
13.172	64.1452
13.256	63.8166
13.34	63.4914
13.424	63.8343
13.508	64.0499
13.592	63.8634
13.676	64.061
13.76	64.0326
13.844	63.7314
13.928	63.7172
14.012	63.734
14.096	63.7237
14.18	63.9977
14.264	64.132
14.348	63.6579
14.432	63.1837
14.516	63.2504
14.6	63.4813
14.684	63.4464
14.768	63.2881
14.852	63.2486
14.936	63.2701
15.02	63.2303
15.104	63.2299
15.188	63.354
15.272	63.4144
15.356	63.317
15.44	63.2336
15.524	63.1651
15.608	63.0566
15.692	63.0517
15.776	63.1126
15.86	63.1023
15.944	63.1034
16.028	63.1765
16.112	63.2264
16.196	63.1891
16.28	63.084
16.364	62.9741
16.448	62.911
16.532	62.9037
16.616	62.9004
16.7	62.8574
16.784	62.8246
16.868	62.8459
16.952	62.8678
17.036	62.8226
17.12	62.7305
17.204	62.7059
17.288	62.8603
17.372	63.1357
17.456	63.3148
17.54	63.2942
17.624	63.2231
17.708	63.2505
17.792	63.2933
17.876	63.1623
17.96	62.8602
18.044	62.6029
18.128	62.571
18.212	62.7162
18.296	62.8282
18.38	62.74
18.464	62.4801
18.548	62.2301
18.632	62.1271
18.716	62.1388
18.8	62.1415
18.884	62.0679
18.968	61.9438
19.052	61.8247
19.136	61.7457
19.22	61.7162
19.304	61.7134
19.388	61.7073
19.472	61.7099
19.556	61.7565
19.64	61.8421
19.724	61.9147
19.808	61.9429
19.892	61.9607
19.976	62.0321
20.06	62.1761
20.144	62.3244
20.228	62.3681
20.312	62.2516
20.396	62.0213
20.48	61.7915
20.564	61.6566
20.648	61.6394
20.732	61.6884
20.816	61.7197
20.9	61.6663
20.984	61.5201
21.068	61.3377
21.152	61.2244
21.236	61.2698
21.32	61.4865
21.404	61.7863
21.488	62.0203
21.572	62.0582
21.656	61.851
21.74	61.4445
21.824	60.9569
21.908	60.5202
21.992	60.2246
22.076	60.0936
22.16	60.067
22.244	60.0218
22.328	59.844
22.412	59.5016
22.496	59.0698
22.58	58.6833
22.664	58.4556
22.748	58.4182
22.832	58.5286
22.916	58.7035
23	58.8321
23.084	58.7945
23.168	58.4748
23.252	57.8183
23.336	56.8663
23.42	55.7706
23.504	54.7794
23.588	54.1155
23.672	53.8789
23.756	54.0126
23.84	54.2308
23.924	54.2037
24.008	53.7326
24.092	52.8204
24.176	51.6478
24.26	50.5813
24.344	50.022
24.428	50.1448
24.512	50.8002
24.596	51.585
24.68	52.0943
24.764	52.1762
24.848	51.9987
24.932	51.8778
25.016	52.0992
25.1	52.7888
25.184	54.2986
25.268	57.2726
25.352	62.5031
25.436	70.289
25.52	79.9252
25.604	89.788
25.688	97.5028
25.772	100.915
25.856	99.0175
25.94	92.1368
26.024	81.8248
26.108	70.3036
26.192	60.0018
26.276	52.9314
26.36	50.4437
26.444	52.3862
26.528	57.2334
26.612	62.5465
26.696	66.0854
26.78	66.6648
26.864	64.7748
26.948	62.0453
27.028	60.0086

File: C-4040-8_t35_cm-1.asc
PE IR       SPECTRUM    SPECTRUM    ASCII       PEDS        1.60
  -1
C-1BEE~1.ASC
17/03/27
17:20:50.00
17/03/27
17:20:50.00
tln
$C-4040-8_t0035$<tbV0>[10.4,-5.2,8.0,0.0,27,1,0]
370
64

2002,4.07
MIRTGS : RIGHTBACK : INTERNAL 2
MIR : ON : INTERNAL 2
OPTKBR

0.200000
8
8.000000
FILLER
RATIO
SPECTRUM
UNLOCKED 256

DOUBLE
64
COMBINED
1
0
0

1.000000
RATIO

1
0
TRUE
51149
0
LEFT NOT FITTED RIGHT NOT FITTED 0
NONE
NONE
15600
12
4.427000
51148
TRUE
1 0 8 72 0 0 0 0

15798

#HDR
-1
-1
#GR
CM-1
%T
2.38419e-05
0.0
5000
-1.000000
4631
8
100.926
50.0056
#DATA
5000	64.96
4984	64.4941
4968	65.2659
4952	64.5509
4936	65.057
4920	64.8858
4904	64.8815
4888	64.9305
4872	65.3136
4856	64.9182
4840	65.1891
4824	64.92
4808	64.7978
4792	65.0254
4776	64.8439
4760	65.3285
4744	65.0904
4728	64.6988
4712	64.6858
4696	65.1208
4680	64.6665
4664	65.1484
4648	65.0048
4632	64.8982
4616	64.8654
4600	64.8867
4584	64.7637
4568	65.4524
4552	65.2608
4536	65.4347
4520	64.8899
4504	65.179
4488	65.3512
4472	65.0986
4456	65.5415
4440	65.6029
4424	64.8817
4408	64.9459
4392	65.9543
4376	67.1137
4360	59.6543
4344	66.5064
4328	64.8823
4312	65.5359
4296	65.1916
4280	65.1481
4264	65.6415
4248	65.1241
4232	65.4673
4216	65.1432
4200	64.9857
4184	64.4844
4168	64.4315
4152	65.112
4136	65.2319
4120	65.0083
4104	64.6519
4088	64.9924
4072	65.0223
4056	65.059
4040	65.0944
4024	65.1194
4008	65.079
3992	65.2555
3976	65.0589
3960	65.1982
3944	65.1366
3928	65.0264
3912	64.9485
3896	65.022
3880	65.291
3864	65.0612
3848	65.2822
3832	64.9962
3816	65.2167
3800	65.0733
3784	65.0728
3768	65.0591
3752	65.3744
3736	65.2052
3720	65.3549
3704	65.3677
3688	65.1628
3672	65.0257
3656	65.1425
3640	65.2379
3624	65.269
3608	65.2479
3592	65.1662
3576	65.239
3560	65.078
3544	65.034
3528	65.0543
3512	65.2872
3496	65.2831
3480	65.2546
3464	65.1454
3448	65.4183
3432	65.1785
3416	65.1153
3400	65.1143
3384	65.1416
3368	65.1079
3352	65.3163
3336	65.2948
3320	65.0866
3304	65.3781
3288	65.3281
3272	65.1973
3256	65.3959
3240	65.2445
3224	65.21
3208	65.0695
3192	65.1329
3176	65.26
3160	65.2181
3144	65.293
3128	65.2734
3112	65.3897
3096	65.2331
3080	65.3627
3064	65.2385
3048	65.1102
3032	65.4094
3016	65.3383
3000	65.1002
2984	65.1555
2968	65.3621
2952	65.1693
2936	65.1157
2920	64.8703
2904	65.0547
2888	65.1925
2872	65.3531
2856	64.9792
2840	65.3095
2824	65.2813
2808	65.316
2792	65.3633
2776	65.3213
2760	65.3242
2744	65.3221
2728	65.3907
2712	65.1888
2696	65.3924
2680	65.3121
2664	65.41
2648	65.3673
2632	65.3463
2616	65.2575
2600	65.2228
2584	65.2748
2568	65.3454
2552	65.3919
2536	65.4294
2520	65.3744
2504	65.2046
2488	65.3795
2472	65.3664
2456	65.2962
2440	65.3835
2424	65.3541
2408	65.0702
2392	65.4322
2376	65.2622
2360	65.3498
2344	65.4336
2328	65.3969
2312	65.3898
2296	65.4011
2280	65.35
2264	65.3174
2248	65.4684
2232	65.3261
2216	65.3237
2200	65.4511
2184	65.4172
2168	65.3103
2152	65.3973
2136	65.4597
2120	65.3561
2104	65.4654
2088	65.5096
2072	65.3916
2056	65.5921
2040	65.3027
2024	65.4113
2008	65.514
1992	65.4341
1976	65.3985
1960	65.4933
1944	65.3666
1928	65.4614
1912	65.4081
1896	65.3861
1880	65.3489
1864	65.4216
1848	65.4197
1832	65.3794
1816	65.3716
1800	65.3748
1784	65.3243
1768	65.4343
1752	65.383
1736	65.1939
1720	65.2288
1704	65.3945
1688	65.4119
1672	65.3365
1656	65.3971
1640	65.3794
1624	65.4522
1608	65.3658
1592	65.434
1576	65.3502
1560	65.3523
1544	65.3347
1528	65.3021
1512	65.2055
1496	65.3429
1480	65.2156
1464	65.1893
1448	65.5055
1432	65.1427
1416	65.2025
1400	65.1155
1384	65.2485
1368	64.9261
1352	65.2351
1336	65.2407
1320	65.1422
1304	65.1824
1288	65.1273
1272	65.1499
1256	65.2437
1240	65.1088
1224	65.1944
1208	65.0599
1192	65.0272
1176	65.1554
1160	64.926
1144	65.1352
1128	64.5845
1112	65.0513
1096	64.975
1080	64.9335
1064	64.9831
1048	65.022
1032	65.2258
1016	64.8856
1000	64.6783
984	 65.0123
968	 64.7298
952	 64.9527
936	 64.5969
920	 64.6491
904	 64.7919
888	 64.6289
872	 64.499
856	 64.6644
840	 64.6123
824	 64.5725
808	 64.3851
792	 64.2712
776	 64.2617
760	 64.1866
744	 63.932
728	 64.0971
712	 63.7111
696	 63.5118
680	 63.4036
664	 63.2142
648	 63.2387
632	 63.1146
616	 63.147
600	 62.8777
584	 62.7274
568	 63.2323
552	 62.561
536	 62.1239
520	 61.7151
504	 61.9474
488	 61.7654
472	 61.2207
456	 60.4271
440	 58.4112
424	 54.1325
408	 50.7802
392	 78.7613
376	 61.6213
370	 60.0086

File: C-4040-8_t36.asc
PE IR       SPECTRUM    SPECTRUM    ASCII       PEDS        1.60
  -1
C-B132~1.ASC
17/03/27
17:25:27.00
17/03/27
17:25:53.00
tln
$C-4040-8_t0036$<tbV0>[7.8,-5.2,8.0,0.0,27,1,0]
27.028
64

2002,4.07
MIRTGS : RIGHTBACK : INTERNAL 2
MIR : ON : INTERNAL 2
OPTKBR

0.200000
8
8.000000
FILLER
RATIO
SPECTRUM
UNLOCKED 256

DOUBLE
64
COMBINED
1
0
0

0.002000
RATIO

1
0
TRUE
51149
0
LEFT NOT FITTED RIGHT NOT FITTED 0
NONE
NONE
15600
12
4.427000
51148
TRUE
1 0 8 72 0 0 0 0

15798

#HDR
-1
-1
#GR
µM
%T
2.38419e-05
0.0
2.000000
0.002000
12515
8
104.044
43.2733
#DATA
2.000000	 64.4344
2.084000	 64.1906
2.168000	 64.6175
2.252000	 63.8618
2.336000	 64.0984
2.420000	 64.1567
2.504000	 64.0558
2.588000	 64.0696
2.672000	 63.852
2.756000	 63.9128
2.840000	 63.8019
2.924000	 63.5065
3.008000	 63.4519
3.092000	 63.1928
3.176000	 63.0426
3.260000	 63.0176
3.344000	 62.8135
3.428000	 62.2014
3.512000	 62.5918
3.596000	 62.3775
3.680000	 62.2844
3.764000	 62.0345
3.848000	 61.8736
3.932000	 61.8485
4.016000	 61.5895
4.100000	 61.371
4.184000	 61.4249
4.268000	 61.2376
4.352000	 61.0562
4.436000	 61.0219
4.520000	 60.7733
4.604000	 60.6766
4.688000	 60.6119
4.772000	 60.5101
4.856000	 60.2529
4.940000	 60.2317
5.024000	 60.2028
5.108000	 60.0965
5.192000	 60.0113
5.276000	 59.8367
5.359999	 59.7908
5.444000	 59.6922
5.528000	 59.5536
5.612000	 59.4254
5.696000	 59.4158
5.780000	 59.1026
5.864000	 59.2277
5.948000	 59.0734
6.032000	 59.0042
6.116000	 58.8958
6.200000	 58.7007
6.284000	 58.787
6.368000	 58.5869
6.452000	 58.6212
6.536000	 58.5837
6.620000	 58.7617
6.704000	 58.5718
6.788000	 58.3891
6.872000	 58.5539
6.956000	 58.3556
7.040000	 58.2165
7.124000	 57.9817
7.208000	 58.0981
7.292000	 57.8699
7.376000	 57.946
7.460000	 57.8467
7.544000	 57.8329
7.628000	 57.8714
7.712000	 57.7834
7.796000	 57.7786
7.880000	 57.6862
7.964000	 57.8124
8.048000	 57.7957
8.132000	 57.5544
8.216000	 57.4792
8.300000	 57.3649
8.384000	 57.444
8.468000	 57.3693
8.552000	 57.4169
8.635999	 57.3039
8.719999	 57.2255
8.804000	 57.3338
8.888000	 57.0521
8.972000	 57.0329
9.056000	 57.0199
9.140000	 57.3628
9.224000	 57.5811
9.308000	 56.969
9.391999	 56.8474
9.475999	 56.8616
9.560000	 57.1962
9.644000	 57.1823
9.728000	 56.9223
9.812000	 57.016
9.896000	 56.9365
9.980000	 56.6136
10.064	56.5952
10.148	57.098
10.232	56.646
10.316	56.7951
10.4	56.4487
10.484	56.6476
10.568	56.7925
10.652	56.5873
10.736	56.6388
10.82	56.5567
10.904	56.7946
10.988	56.4922
11.072	56.4498
11.156	56.4243
11.24	56.4608
11.324	56.5249
11.408	56.5172
11.492	56.2252
11.576	56.2075
11.66	56.1819
11.744	56.2127
11.828	56.2361
11.912	55.8502
11.996	55.8664
12.08	56.0275
12.164	55.9232
12.248	55.7947
12.332	55.8414
12.416	55.8988
12.5	55.8441
12.584	55.9284
12.668	56.146
12.752	55.9287
12.836	55.7478
12.92	55.6482
13.004	55.4236
13.088	55.4548
13.172	55.6551
13.256	55.4878
13.34	55.2784
13.424	55.2965
13.508	55.6109
13.592	55.7522
13.676	55.5712
13.76	55.413
13.844	55.4988
13.928	55.608
14.012	55.4269
14.096	55.3611
14.18	55.5133
14.264	55.5379
14.348	55.3066
14.432	55.1783
14.516	55.2673
14.6	55.214
14.684	55.0836
14.768	54.9729
14.852	54.7973
14.936	54.7431
15.02	54.7932
15.104	54.8996
15.188	55.1034
15.272	55.108
15.356	54.8294
15.44	54.6194
15.524	54.5125
15.608	54.3621
15.692	54.4011
15.776	54.6885
15.86	54.7755
15.944	54.5646
16.028	54.4732
16.112	54.5448
16.196	54.4806
16.28	54.3655
16.364	54.4716
16.448	54.7024
16.532	54.7626
16.616	54.5794
16.7	54.2885
16.784	54.0548
16.868	54.0014
16.952	54.1067
17.036	54.1791
17.12	54.093
17.204	53.9436
17.288	53.828
17.372	53.704
17.456	53.5948
17.54	53.6632
17.624	53.9084
17.708	54.0855
17.792	54.0458
17.876	53.8883
17.96	53.7314
18.044	53.5627
18.128	53.3721
18.212	53.2592
18.296	53.3095
18.38	53.452
18.464	53.5514
18.548	53.5707
18.632	53.5528
18.716	53.506
18.8	53.3943
18.884	53.2408
18.968	53.1595
19.052	53.2512
19.136	53.4805
19.22	53.6947
19.304	53.7626
19.388	53.6988
19.472	53.6366
19.556	53.6867
19.64	53.8304
19.724	53.9499
19.808	53.9386
19.892	53.7647
19.976	53.4734
20.06	53.1644
20.144	52.9516
20.228	52.9117
20.312	53.0322
20.396	53.2095
20.48	53.3318
20.564	53.3584
20.648	53.345
20.732	53.3764
20.816	53.477
20.9	53.5865
20.984	53.605
21.068	53.4775
21.152	53.2472
21.236	53.0329
21.32	52.9525
21.404	53.0364
21.488	53.1861
21.572	53.2275
21.656	53.0127
21.74	52.5194
21.824	51.8901
21.908	51.3644
21.992	51.1387
22.076	51.2705
22.16	51.65
22.244	52.0656
22.328	52.3241
22.412	52.336
22.496	52.1241
22.58	51.7824
22.664	51.4196
22.748	51.1318
22.832	50.9993
22.916	51.0756
23	51.3243
23.084	51.6153
23.168	51.7737
23.252	51.691
23.336	51.368
23.42	50.9177
23.504	50.5055
23.588	50.2257
23.672	50.0504
23.756	49.8571
23.84	49.4464
23.924	48.6798
24.008	47.5388
24.092	46.1398
24.176	44.7516
24.26	43.6931
24.344	43.2737
24.428	43.6246
24.512	44.5609
24.596	45.6607
24.68	46.4308
24.764	46.5322
24.848	45.9103
24.932	44.8869
25.016	44.0427
25.1	43.8923
25.184	44.8805
25.268	47.2341
25.352	50.9365
25.436	55.7428
25.52	61.2345
25.604	66.9462
25.688	72.2959
25.772	76.8717
25.856	80.6418
25.94	83.719
26.024	86.3235
26.108	88.7009
26.192	91.2104
26.276	94.1206
26.36	97.6907
26.444	101.364
26.528	103.813
26.612	103.236
26.696	98.3627
26.78	89.2804
26.864	77.6629
26.948	65.9791
27.028	56.5584