Folder: Masteroppgave/Bakgrunnsmateriale/MATLAB/FTIR/ftir_data/subBb/Mapping_121 (part 9)

File: C-4040-8_t14.asc
PE IR       SPECTRUM    SPECTRUM    ASCII       PEDS        1.60
  -1
C-B92A~1.ASC
17/03/27
15:36:10.00
17/03/27
15:36:36.00
tln
$C-4040-8_t0014$<tbV0>[7.8,-10.4,8.0,0.0,27,1,0]
27.028
64

2002,4.07
MIRTGS : RIGHTBACK : INTERNAL 2
MIR : ON : INTERNAL 2
OPTKBR

0.200000
8
8.000000
FILLER
RATIO
SPECTRUM
UNLOCKED 256

DOUBLE
64
COMBINED
1
0
0

0.002000
RATIO

1
0
TRUE
51149
0
LEFT NOT FITTED RIGHT NOT FITTED 0
NONE
NONE
15600
12
4.427000
51148
TRUE
1 0 8 72 0 0 0 0

15798

#HDR
-1
-1
#GR
µM
%T
2.38419e-05
0.0
2.000000
0.002000
12515
8
67.9638
11.8022
#DATA
2.000000	 63.0001
2.084000	 62.6706
2.168000	 62.5859
2.252000	 65.4315
2.336000	 61.5407
2.420000	 61.8206
2.504000	 61.3965
2.588000	 60.8207
2.672000	 60.568
2.756000	 59.8965
2.840000	 58.9711
2.924000	 58.123
3.008000	 57.661
3.092000	 56.6577
3.176000	 56.3387
3.260000	 55.5788
3.344000	 54.8749
3.428000	 53.9374
3.512000	 53.3241
3.596000	 52.666
3.680000	 51.9054
3.764000	 51.1447
3.848000	 50.6244
3.932000	 49.9913
4.016000	 49.2394
4.100000	 48.8069
4.184000	 48.0026
4.268000	 47.2537
4.352000	 46.8917
4.436000	 46.2669
4.520000	 45.7121
4.604000	 45.0498
4.688000	 44.6774
4.772000	 44.0474
4.856000	 43.4266
4.940000	 43.1186
5.024000	 42.721
5.108000	 42.1617
5.192000	 41.8429
5.276000	 41.3135
5.359999	 40.8473
5.444000	 40.5075
5.528000	 40.0827
5.612000	 39.8637
5.696000	 39.3395
5.780000	 39.105
5.864000	 38.6782
5.948000	 38.4859
6.032000	 38.1838
6.116000	 37.7747
6.200000	 37.4655
6.284000	 36.9633
6.368000	 36.8182
6.452000	 36.5304
6.536000	 36.2
6.620000	 36.3045
6.704000	 35.7166
6.788000	 35.4399
6.872000	 35.3681
6.956000	 34.9151
7.040000	 34.7623
7.124000	 34.3892
7.208000	 34.2266
7.292000	 34.0602
7.376000	 33.7788
7.460000	 33.4566
7.544000	 33.2957
7.628000	 33.0773
7.712000	 32.989
7.796000	 32.6251
7.880000	 32.4642
7.964000	 32.2978
8.048000	 32.1408
8.132000	 32.0001
8.216000	 31.9823
8.300000	 31.7972
8.384000	 31.4749
8.468000	 31.3121
8.552000	 31.1838
8.635999	 31.0426
8.719999	 30.9733
8.804000	 30.7473
8.888000	 30.6111
8.972000	 30.435
9.056000	 30.1846
9.140000	 29.9766
9.224000	 30.1428
9.308000	 29.6854
9.391999	 29.7433
9.475999	 29.7551
9.560000	 29.5046
9.644000	 29.1881
9.728000	 29.1311
9.812000	 28.9461
9.896000	 28.905
9.980000	 28.8714
10.064	28.6919
10.148	28.2896
10.232	28.2684
10.316	28.1069
10.4	28.2194
10.484	27.8165
10.568	27.5959
10.652	27.7243
10.736	27.6902
10.82	27.6374
10.904	27.5848
10.988	27.317
11.072	26.4362
11.156	26.8278
11.24	27.2456
11.324	26.7605
11.408	26.8319
11.492	26.9159
11.576	26.6277
11.66	26.1051
11.744	25.9837
11.828	25.5866
11.912	25.4718
11.996	25.5307
12.08	25.4655
12.164	25.5366
12.248	25.4411
12.332	25.2836
12.416	25.251
12.5	24.9933
12.584	24.9014
12.668	24.9393
12.752	25.0667
12.836	24.8818
12.92	24.6568
13.004	24.5356
13.088	24.4981
13.172	24.4687
13.256	24.307
13.34	24.102
13.424	24.075
13.508	24.1502
13.592	23.9106
13.676	23.8347
13.76	23.7388
13.844	23.2992
13.928	22.9728
14.012	22.9804
14.096	22.9907
14.18	22.9616
14.264	23.1052
14.348	23.1706
14.432	22.9423
14.516	22.6476
14.6	22.4547
14.684	22.3321
14.768	22.178
14.852	22.0579
14.936	22.0513
15.02	22.0326
15.104	22.0003
15.188	21.9838
15.272	21.8203
15.356	21.5028
15.44	21.243
15.524	21.1448
15.608	21.1282
15.692	21.0812
15.776	21.0436
15.86	21.1383
15.944	21.2977
16.028	21.2885
16.112	21.0405
16.196	20.7165
16.28	20.4612
16.364	20.2951
16.448	20.2484
16.532	20.342
16.616	20.4411
16.7	20.3638
16.784	20.1255
16.868	19.901
16.952	19.7829
17.036	19.6956
17.12	19.5302
17.204	19.2613
17.288	18.9307
17.372	18.6408
17.456	18.531
17.54	18.6353
17.624	18.8025
17.708	18.843
17.792	18.718
17.876	18.5416
17.96	18.4054
18.044	18.2966
18.128	18.1896
18.212	18.1125
18.296	18.0893
18.38	18.1062
18.464	18.1348
18.548	18.1462
18.632	18.0885
18.716	17.9248
18.8	17.7076
18.884	17.5585
18.968	17.5265
19.052	17.4835
19.136	17.2328
19.22	16.73
19.304	16.185
19.388	15.8896
19.472	15.9595
19.556	16.2473
19.64	16.4974
19.724	16.5709
19.808	16.5061
19.892	16.4125
19.976	16.3449
20.06	16.2785
20.144	16.167
20.228	15.9958
20.312	15.797
20.396	15.6319
20.48	15.5618
20.564	15.6077
20.648	15.7159
20.732	15.7796
20.816	15.7136
20.9	15.5211
20.984	15.2879
21.068	15.1089
21.152	15.0172
21.236	14.9788
21.32	14.935
21.404	14.8522
21.488	14.7321
21.572	14.588
21.656	14.4244
21.74	14.243
21.824	14.0601
21.908	13.9092
21.992	13.8266
22.076	13.8302
22.16	13.9085
22.244	14.0326
22.328	14.175
22.412	14.3244
22.496	14.4758
22.58	14.6088
22.664	14.6911
22.748	14.6929
22.832	14.6106
22.916	14.4889
23	14.3785
23.084	14.3199
23.168	14.3021
23.252	14.2707
23.336	14.181
23.42	14.0225
23.504	13.8171
23.588	13.5994
23.672	13.3818
23.756	13.1331
23.84	12.8116
23.924	12.409
24.008	12.009
24.092	11.8026
24.176	12.011
24.26	12.7446
24.344	13.975
24.428	15.5811
24.512	17.4021
24.596	19.3825
24.68	21.5111
24.764	23.7002
24.848	25.7573
24.932	27.363
25.016	28.1945
25.1	28.0947
25.184	27.105
25.268	25.471
25.352	23.5474
25.436	21.6729
25.52	20.0652
25.604	18.815
25.688	17.9261
25.772	17.395
25.856	17.3014
25.94	17.8559
26.024	19.372
26.108	22.1159
26.192	26.1721
26.276	31.3628
26.36	37.189
26.444	42.9973
26.528	48.1472
26.612	52.2077
26.696	54.9456
26.78	56.3349
26.864	56.5182
26.948	55.8006
27.028	54.7353

File: C-4040-8_t14_cm-1.asc
PE IR       SPECTRUM    SPECTRUM    ASCII       PEDS        1.60
  -1
C-1A6F~1.ASC
17/03/27
15:36:10.00
17/03/27
15:36:10.00
tln
$C-4040-8_t0014$<tbV0>[7.8,-10.4,8.0,0.0,27,1,0]
370
64

2002,4.07
MIRTGS : RIGHTBACK : INTERNAL 2
MIR : ON : INTERNAL 2
OPTKBR

0.200000
8
8.000000
FILLER
RATIO
SPECTRUM
UNLOCKED 256

DOUBLE
64
COMBINED
1
0
0

1.000000
RATIO

1
0
TRUE
51149
0
LEFT NOT FITTED RIGHT NOT FITTED 0
NONE
NONE
15600
12
4.427000
51148
TRUE
1 0 8 72 0 0 0 0

15798

#HDR
-1
-1
#GR
CM-1
%T
2.38419e-05
0.0
5000
-1.000000
4631
8
68.249
11.8022
#DATA
5000	63.0001
4984	62.8776
4968	62.4322
4952	62.9985
4936	62.3006
4920	62.8906
4904	63.8429
4888	62.7002
4872	63.3096
4856	63.018
4840	63.287
4824	62.7236
4808	62.7428
4792	62.5525
4776	63.2606
4760	62.4852
4744	62.9528
4728	62.7133
4712	62.6117
4696	62.9557
4680	62.9568
4664	62.7835
4648	62.4828
4632	62.6114
4616	62.6196
4600	62.5342
4584	62.2464
4568	62.4758
4552	62.1859
4536	61.8154
4520	61.8082
4504	62.2471
4488	61.7207
4472	62.3702
4456	63.4232
4440	64.9703
4424	61.3059
4408	60.2042
4392	60.697
4376	64.5887
4360	62.1956
4344	61.9791
4328	61.8301
4312	61.6736
4296	61.4996
4280	61.5351
4264	61.3565
4248	61.3399
4232	61.655
4216	61.7237
4200	61.6205
4184	60.6256
4168	61.9566
4152	61.4154
4136	61.6164
4120	61.7946
4104	61.2757
4088	61.7456
4072	61.5229
4056	61.6782
4040	61.5084
4024	61.6639
4008	61.5005
3992	61.3571
3976	60.7781
3960	60.9877
3944	60.9277
3928	60.9688
3912	60.8826
3896	60.96
3880	60.9282
3864	60.8207
3848	60.9747
3832	60.944
3816	60.6608
3800	60.6434
3784	60.394
3768	60.4888
3752	60.7269
3736	60.575
3720	60.4041
3704	60.0806
3688	60.1561
3672	60.2038
3656	59.8286
3640	59.7739
3624	59.6271
3608	59.5795
3592	59.6089
3576	59.3584
3560	59.375
3544	59.0011
3528	59.0652
3512	58.7358
3496	58.6881
3480	58.849
3464	58.7644
3448	58.5996
3432	58.3309
3416	58.0302
3400	58.1757
3384	57.8543
3368	57.986
3352	57.7962
3336	57.7315
3320	57.538
3304	57.3622
3288	57.3326
3272	57.2609
3256	56.9075
3240	56.8262
3224	56.8762
3208	56.7377
3192	56.3978
3176	56.303
3160	56.2647
3144	56.2702
3128	55.9439
3112	55.9819
3096	55.5907
3080	55.7237
3064	55.6036
3048	55.4139
3032	55.2383
3016	55.144
3000	54.7588
2984	54.7723
2968	54.6005
2952	54.1497
2936	54.2424
2920	53.8833
2904	53.7789
2888	53.636
2872	53.5744
2856	53.4099
2840	53.3125
2824	53.1879
2808	53.0013
2792	52.8306
2776	52.6088
2760	52.3761
2744	52.3766
2728	52.181
2712	51.7995
2696	51.7391
2680	51.4968
2664	51.2607
2648	51.0848
2632	50.9408
2616	50.6842
2600	50.6413
2584	50.337
2568	50.1203
2552	49.9882
2536	49.8863
2520	49.6289
2504	49.3732
2488	49.1717
2472	49.0692
2456	48.7828
2440	48.8176
2424	48.4217
2408	48.1588
2392	48.0186
2376	47.7391
2360	47.712
2344	47.2785
2328	47.1992
2312	47.0283
2296	46.8336
2280	46.5694
2264	46.433
2248	46.1965
2232	45.9209
2216	45.7472
2200	45.4342
2184	45.2568
2168	44.9868
2152	44.9201
2136	44.8086
2120	44.4165
2104	44.2815
2088	43.9835
2072	43.6358
2056	43.3944
2040	43.3184
2024	43.1169
2008	42.9334
1992	42.7142
1976	42.4436
1960	42.2097
1944	42.0241
1928	41.8594
1912	41.5801
1896	41.315
1880	41.0235
1864	40.8286
1848	40.7057
1832	40.4319
1816	40.3041
1800	39.9273
1784	39.8597
1768	39.6081
1752	39.2409
1736	39.1996
1720	38.9879
1704	38.7061
1688	38.6044
1672	38.2115
1656	38.2397
1640	37.7731
1624	37.5576
1608	37.283
1592	36.979
1576	36.9569
1560	36.9162
1544	36.4559
1528	36.1955
1512	36.2772
1496	35.8688
1480	35.4587
1464	35.4059
1448	35.1273
1432	34.8518
1416	34.7087
1400	34.4084
1384	34.115
1368	33.9933
1352	33.76
1336	33.3984
1320	33.2464
1304	33.0135
1288	32.7999
1272	32.487
1256	32.3071
1240	32.0552
1224	31.9742
1208	31.7966
1192	31.467
1176	31.1933
1160	31.0988
1144	30.9414
1128	30.6315
1112	30.4255
1096	29.9169
1080	29.8187
1064	29.7493
1048	29.5686
1032	29.1532
1016	28.9885
1000	28.9063
984	 28.2684
968	 28.0975
952	 27.7046
936	 27.756
920	 27.6115
904	 26.516
888	 27.1463
872	 26.9268
856	 26.0511
840	 25.4627
824	 25.5025
808	 25.2845
792	 24.9078
776	 24.7239
760	 24.4844
744	 24.1034
728	 23.8046
712	 23.0011
696	 23.1391
680	 22.2968
664	 22.0122
648	 21.2605
632	 21.0777
616	 20.5905
600	 20.4203
584	 19.5215
568	 18.7716
552	 18.204
536	 18.0512
520	 16.6565
504	 16.4671
488	 15.5615
472	 14.9986
456	 13.88
440	 14.7012
424	 13.6074
408	 17.3524
392	 20.2345
376	 51.5233
370	 54.7353

File: C-4040-8_t15.asc
PE IR       SPECTRUM    SPECTRUM    ASCII       PEDS        1.60
  -1
C-B92E~1.ASC
17/03/27
15:40:46.00
17/03/27
15:41:13.00
tln
$C-4040-8_t0015$<tbV0>[5.2,-10.4,8.0,0.0,27,1,0]
27.028
64

2002,4.07
MIRTGS : RIGHTBACK : INTERNAL 2
MIR : ON : INTERNAL 2
OPTKBR

0.200000
8
8.000000
FILLER
RATIO
SPECTRUM
UNLOCKED 256

DOUBLE
64
COMBINED
1
0
0

0.002000
RATIO

1
0
TRUE
51149
0
LEFT NOT FITTED RIGHT NOT FITTED 0
NONE
NONE
15600
12
4.427000
51148
TRUE
1 0 8 72 0 0 0 0

15798

#HDR
-1
-1
#GR
µM
%T
2.38419e-05
0.0
2.000000
0.002000
12515
8
79.1662
0.604295
#DATA
2.000000	 63.2925
2.084000	 63.4407
2.168000	 63.4622
2.252000	 66.1534
2.336000	 62.354
2.420000	 62.6945
2.504000	 62.5826
2.588000	 62.0942
2.672000	 62.2407
2.756000	 61.497
2.840000	 60.8337
2.924000	 60.2016
3.008000	 59.9159
3.092000	 59.2734
3.176000	 58.9862
3.260000	 58.5172
3.344000	 57.8499
3.428000	 57.1765
3.512000	 56.7696
3.596000	 56.3643
3.680000	 55.742
3.764000	 55.1484
3.848000	 54.8324
3.932000	 54.3421
4.016000	 53.7683
4.100000	 53.4686
4.184000	 52.9359
4.268000	 52.5277
4.352000	 51.9136
4.436000	 51.615
4.520000	 51.1597
4.604000	 50.5874
4.688000	 50.2823
4.772000	 49.8558
4.856000	 49.4502
4.940000	 49.1048
5.024000	 48.8251
5.108000	 48.2692
5.192000	 48.0476
5.276000	 47.6372
5.359999	 47.3942
5.444000	 46.9374
5.528000	 46.7641
5.612000	 46.4481
5.696000	 46.1527
5.780000	 45.7846
5.864000	 45.5703
5.948000	 45.3172
6.032000	 45.1726
6.116000	 44.7109
6.200000	 44.4478
6.284000	 44.178
6.368000	 43.887
6.452000	 43.7164
6.536000	 43.4859
6.620000	 43.4916
6.704000	 42.8865
6.788000	 42.9436
6.872000	 42.5571
6.956000	 42.398
7.040000	 42.1789
7.124000	 41.9502
7.208000	 41.7633
7.292000	 41.6427
7.376000	 41.2993
7.460000	 41.3715
7.544000	 41.127
7.628000	 40.8089
7.712000	 40.6162
7.796000	 40.4713
7.880000	 40.2215
7.964000	 40.1384
8.048000	 39.9417
8.132000	 39.79
8.216000	 39.7037
8.300000	 39.4153
8.384000	 39.4585
8.468000	 39.2133
8.552000	 39.0789
8.635999	 38.8037
8.719999	 38.8505
8.804000	 38.3525
8.888000	 38.4164
8.972000	 38.4374
9.056000	 38.2772
9.140000	 37.9219
9.224000	 37.9536
9.308000	 37.9088
9.391999	 37.7562
9.475999	 37.6777
9.560000	 37.622
9.644000	 37.3717
9.728000	 37.2876
9.812000	 37.2348
9.896000	 37.0157
9.980000	 36.7851
10.064	36.8209
10.148	36.8788
10.232	36.5416
10.316	36.1903
10.4	35.993
10.484	36.2666
10.568	35.9208
10.652	35.8062
10.736	35.567
10.82	35.4646
10.904	35.6358
10.988	34.7112
11.072	34.3912
11.156	34.8754
11.24	35.0326
11.324	34.9233
11.408	34.674
11.492	34.6918
11.576	34.6853
11.66	34.6926
11.744	34.5292
11.828	34.402
11.912	34.1606
11.996	34.1408
12.08	33.9351
12.164	33.7684
12.248	33.624
12.332	33.3666
12.416	33.2779
12.5	33.5141
12.584	33.5588
12.668	33.4919
12.752	33.2483
12.836	33.0737
12.92	33.0648
13.004	33.1031
13.088	32.8657
13.172	32.726
13.256	32.723
13.34	32.6063
13.424	32.328
13.508	31.9245
13.592	31.5022
13.676	31.4617
13.76	31.7506
13.844	31.8874
13.928	31.7109
14.012	31.495
14.096	31.4149
14.18	31.5043
14.264	31.6458
14.348	31.6907
14.432	31.4302
14.516	31.0008
14.6	30.7972
14.684	30.7971
14.768	30.7885
14.852	30.7856
14.936	30.8336
15.02	30.8546
15.104	30.7524
15.188	30.5291
15.272	30.2944
15.356	30.2017
15.44	30.2857
15.524	30.3583
15.608	30.2325
15.692	29.9765
15.776	29.7609
15.86	29.6273
15.944	29.505
16.028	29.3246
16.112	29.1083
16.196	28.9598
16.28	28.9331
16.364	28.9533
16.448	28.9163
16.532	28.8299
16.616	28.7985
16.7	28.8565
16.784	28.9007
16.868	28.8456
16.952	28.7327
17.036	28.6349
17.12	28.5637
17.204	28.5039
17.288	28.4305
17.372	28.3012
17.456	28.1012
17.54	27.8775
17.624	27.7178
17.708	27.6606
17.792	27.6354
17.876	27.524
17.96	27.2994
18.044	27.0711
18.128	26.983
18.212	27.0477
18.296	27.1281
18.38	27.0927
18.464	26.9527
18.548	26.8234
18.632	26.7802
18.716	26.7956
18.8	26.7874
18.884	26.6803
18.968	26.4471
19.052	26.1417
19.136	25.8712
19.22	25.7101
19.304	25.6383
19.388	25.5691
19.472	25.4351
19.556	25.2333
19.64	25.006
19.724	24.8033
19.808	24.6695
19.892	24.6478
19.976	24.7667
20.06	24.9999
20.144	25.2355
20.228	25.3164
20.312	25.1495
20.396	24.7933
20.48	24.4308
20.564	24.2303
20.648	24.2183
20.732	24.2853
20.816	24.3108
20.9	24.2712
20.984	24.225
21.068	24.2148
21.152	24.2038
21.236	24.1066
21.32	23.88
21.404	23.5544
21.488	23.197
21.572	22.8496
21.656	22.5188
21.74	22.215
21.824	21.977
21.908	21.8547
21.992	21.862
22.076	21.9566
22.16	22.0704
22.244	22.1488
22.328	22.1637
22.412	22.0825
22.496	21.8471
22.58	21.4015
22.664	20.7537
22.748	20.0305
22.832	19.4312
22.916	19.1476
23	19.2494
23.084	19.6622
23.168	20.2217
23.252	20.7815
23.336	21.2542
23.42	21.6775
23.504	22.1015
23.588	22.5143
23.672	22.8388
23.756	22.9817
23.84	22.9075
23.924	22.7212
24.008	22.5809
24.092	22.5967
24.176	22.8559
24.26	23.2987
24.344	23.785
24.428	24.2102
24.512	24.5472
24.596	24.7854
24.68	24.7623
24.764	24.1078
24.848	22.3416
24.932	19.2277
25.016	15.0596
25.1	10.5489
25.184	6.652149
25.268	4.147356
25.352	3.347320
25.436	4.327712
25.52	7.088496
25.604	11.7003
25.688	18.3381
25.772	27.014
25.856	37.2892
25.94	48.1183
26.024	57.9555
26.108	65.221
26.192	68.7992
26.276	68.3102
26.36	64.3707
26.444	58.0864
26.528	50.5531
26.612	42.5658
26.696	34.4392
26.78	26.152
26.864	17.5742
26.948	8.760595
27.028	0.604295

File: C-4040-8_t15_cm-1.asc
PE IR       SPECTRUM    SPECTRUM    ASCII       PEDS        1.60
  -1
C-1AEE~1.ASC
17/03/27
15:40:46.00
17/03/27
15:40:46.00
tln
$C-4040-8_t0015$<tbV0>[5.2,-10.4,8.0,0.0,27,1,0]
370
64

2002,4.07
MIRTGS : RIGHTBACK : INTERNAL 2
MIR : ON : INTERNAL 2
OPTKBR

0.200000
8
8.000000
FILLER
RATIO
SPECTRUM
UNLOCKED 256

DOUBLE
64
COMBINED
1
0
0

1.000000
RATIO

1
0
TRUE
51149
0
LEFT NOT FITTED RIGHT NOT FITTED 0
NONE
NONE
15600
12
4.427000
51148
TRUE
1 0 8 72 0 0 0 0

15798

#HDR
-1
-1
#GR
CM-1
%T
2.38419e-05
0.0
5000
-1.000000
4631
8
79.1623
0.604295
#DATA
5000	63.2925
4984	63.9683
4968	63.3405
4952	63.1285
4936	63.0406
4920	63.0498
4904	64.1953
4888	63.6007
4872	63.6395
4856	63.5294
4840	63.6924
4824	63.2486
4808	63.1354
4792	63.7989
4776	63.2822
4760	63.5199
4744	63.6444
4728	63.2033
4712	63.6021
4696	63.7684
4680	63.0936
4664	63.2702
4648	63.2079
4632	63.3577
4616	63.6036
4600	63.3325
4584	63.2691
4568	62.8829
4552	63.1836
4536	62.7831
4520	62.6807
4504	62.7737
4488	62.3072
4472	62.9254
4456	64.2911
4440	65.6772
4424	61.0958
4408	61.1621
4392	65.5431
4376	64.6789
4360	62.7501
4344	62.3283
4328	61.9948
4312	62.3956
4296	62.4596
4280	62.3084
4264	62.7314
4248	62.5596
4232	62.4235
4216	62.9366
4200	62.6585
4184	62.573
4168	62.3592
4152	62.5696
4136	62.6743
4120	62.4323
4104	62.543
4088	62.8228
4072	62.6086
4056	62.9249
4040	62.6487
4024	62.7329
4008	62.7949
3992	62.5995
3976	61.9489
3960	62.4678
3944	62.4817
3928	62.2207
3912	62.2323
3896	62.2303
3880	61.9549
3864	62.0942
3848	62.2445
3832	62.1424
3816	62.0202
3800	62.0578
3784	61.6616
3768	61.8294
3752	62.3022
3736	62.0346
3720	61.8797
3704	61.6152
3688	61.8684
3672	61.8412
3656	61.6998
3640	61.2836
3624	61.3039
3608	61.159
3592	61.4144
3576	61.216
3560	61.1134
3544	61.0532
3528	60.9294
3512	60.6533
3496	60.4827
3480	60.8405
3464	60.4095
3448	60.576
3432	60.3811
3416	60.262
3400	59.9872
3384	60.1721
3368	60.0921
3352	59.993
3336	60.069
3320	59.8301
3304	59.8198
3288	59.738
3272	59.6053
3256	59.287
3240	59.3029
3224	59.2484
3208	59.3412
3192	58.9842
3176	58.963
3160	59.0523
3144	58.8061
3128	58.6614
3112	58.8554
3096	58.4224
3080	58.5065
3064	58.4639
3048	58.1894
3032	58.1125
3016	58.1893
3000	57.8676
2984	57.8758
2968	57.5433
2952	57.364
2936	57.3049
2920	57.1541
2904	57.0789
2888	57.1278
2872	56.9482
2856	56.8882
2840	56.8142
2824	56.607
2808	56.5079
2792	56.4252
2776	56.2775
2760	56.141
2744	56.1213
2728	55.9157
2712	55.7612
2696	55.8361
2680	55.5159
2664	55.4317
2648	55.1634
2632	55.1826
2616	54.9046
2600	54.8359
2584	54.6301
2568	54.5117
2552	54.4083
2536	54.2203
2520	54.1574
2504	53.903
2488	53.757
2472	53.6652
2456	53.4556
2440	53.4553
2424	53.2486
2408	53.0861
2392	52.9415
2376	52.8925
2360	52.7133
2344	52.5316
2328	52.213
2312	52.0814
2296	51.8693
2280	51.802
2264	51.6551
2248	51.4314
2232	51.2509
2216	51.2046
2200	51.0419
2184	50.7349
2168	50.5519
2152	50.4429
2136	50.3721
2120	50.1526
2104	49.9898
2088	49.7766
2072	49.5886
2056	49.4138
2040	49.2873
2024	49.1024
2008	48.9626
1992	48.8229
1976	48.5135
1960	48.3623
1944	48.2191
1928	48.0766
1912	47.855
1896	47.6384
1880	47.4289
1864	47.3665
1848	47.1971
1832	47.0043
1816	46.8072
1800	46.6321
1784	46.4954
1768	46.3229
1752	46.0647
1736	46.0117
1720	45.6447
1704	45.6321
1688	45.4551
1672	45.3265
1656	45.2503
1640	44.7931
1624	44.5264
1608	44.3938
1592	44.189
1576	44.0133
1560	44.0871
1544	43.8317
1528	43.5345
1512	43.4931
1496	42.9434
1480	42.8273
1464	42.8453
1448	42.4707
1432	42.384
1416	42.0726
1400	41.9722
1384	41.6651
1368	41.576
1352	41.2925
1336	41.2739
1320	41.0415
1304	40.6594
1288	40.5573
1272	40.242
1256	40.1445
1240	39.9148
1224	39.7104
1208	39.4653
1192	39.4516
1176	39.157
1160	38.868
1144	38.8026
1128	38.4269
1112	38.4343
1096	37.9185
1080	37.9825
1064	37.7507
1048	37.6174
1032	37.2705
1016	37.1772
1000	36.768
984	 36.828
968	 36.1277
952	 36.2344
936	 35.8463
920	 35.7177
904	 34.3625
888	 35.0311
872	 34.7017
856	 34.6426
840	 34.1706
824	 33.8011
808	 33.2657
792	 33.5452
776	 33.0403
760	 32.7344
744	 32.2601
728	 31.6617
712	 31.4416
696	 31.6612
680	 30.7991
664	 30.8238
648	 30.2743
632	 29.6797
616	 28.9345
600	 28.8276
584	 28.5612
568	 27.7436
552	 26.9845
536	 26.7821
520	 25.6973
504	 24.6453
488	 24.3904
472	 24.1788
456	 21.845
440	 20.2056
424	 22.5003
408	 24.5395
392	 6.673121
376	 44.1239
370	 0.604295

File: C-4040-8_t16.asc
PE IR       SPECTRUM    SPECTRUM    ASCII       PEDS        1.60
  -1
C-B922~1.ASC
17/03/27
15:45:23.00
17/03/27
15:45:49.00
tln
$C-4040-8_t0016$<tbV0>[2.6,-10.4,8.0,0.0,27,1,0]
27.028
64

2002,4.07
MIRTGS : RIGHTBACK : INTERNAL 2
MIR : ON : INTERNAL 2
OPTKBR

0.200000
8
8.000000
FILLER
RATIO
SPECTRUM
UNLOCKED 256

DOUBLE
64
COMBINED
1
0
0

0.002000
RATIO

1
0
TRUE
51149
0
LEFT NOT FITTED RIGHT NOT FITTED 0
NONE
NONE
15600
12
4.427000
51148
TRUE
1 0 8 72 0 0 0 0

15798

#HDR
-1
-1
#GR
µM
%T
2.38419e-05
0.0
2.000000
0.002000
12515
8
70.0241
6.322476
#DATA
2.000000	 63.7287
2.084000	 63.6263
2.168000	 63.5031
2.252000	 67.3258
2.336000	 63.5015
2.420000	 63.1907
2.504000	 63.1659
2.588000	 62.9181
2.672000	 62.9416
2.756000	 62.4481
2.840000	 61.8661
2.924000	 61.6114
3.008000	 61.2774
3.092000	 60.786
3.176000	 60.609
3.260000	 60.2483
3.344000	 59.7674
3.428000	 59.2787
3.512000	 59.1515
3.596000	 58.7929
3.680000	 58.425
3.764000	 57.9865
3.848000	 57.722
3.932000	 57.236
4.016000	 57.0225
4.100000	 56.6793
4.184000	 56.2734
4.268000	 55.7991
4.352000	 55.5713
4.436000	 55.2866
4.520000	 54.9787
4.604000	 54.7867
4.688000	 54.3391
4.772000	 54.0657
4.856000	 53.7832
4.940000	 53.499
5.024000	 53.3417
5.108000	 52.9246
5.192000	 52.7665
5.276000	 52.5139
5.359999	 52.2282
5.444000	 51.9676
5.528000	 51.76
5.612000	 51.6958
5.696000	 51.4655
5.780000	 51.1917
5.864000	 51.0528
5.948000	 50.9036
6.032000	 50.5689
6.116000	 50.3928
6.200000	 50.0488
6.284000	 49.8352
6.368000	 49.6463
6.452000	 49.5154
6.536000	 49.4278
6.620000	 49.3926
6.704000	 48.9118
6.788000	 48.9793
6.872000	 48.646
6.956000	 48.5289
7.040000	 48.3997
7.124000	 47.9022
7.208000	 47.965
7.292000	 47.7572
7.376000	 47.6695
7.460000	 47.4738
7.544000	 47.4602
7.628000	 47.3274
7.712000	 47.0835
7.796000	 47.0634
7.880000	 46.8314
7.964000	 46.7411
8.048000	 46.5128
8.132000	 46.5147
8.216000	 46.4411
8.300000	 46.2717
8.384000	 46.1639
8.468000	 46.0516
8.552000	 45.9754
8.635999	 45.7344
8.719999	 45.6793
8.804000	 45.4654
8.888000	 45.4528
8.972000	 45.3467
9.056000	 44.9654
9.140000	 44.9929
9.224000	 44.8647
9.308000	 44.8966
9.391999	 44.8029
9.475999	 44.7221
9.560000	 44.6756
9.644000	 44.5347
9.728000	 44.3256
9.812000	 44.162
9.896000	 44.1486
9.980000	 44.1822
10.064	43.9693
10.148	43.8744
10.232	43.9202
10.316	43.652
10.4	43.6844
10.484	43.6302
10.568	43.6081
10.652	43.5557
10.736	43.4099
10.82	42.9902
10.904	42.5198
10.988	42.9247
11.072	42.5266
11.156	42.1598
11.24	42.2363
11.324	42.2853
11.408	42.2119
11.492	42.1549
11.576	41.9663
11.66	42.1229
11.744	42.2911
11.828	42.39
11.912	42.0704
11.996	41.7438
12.08	41.8143
12.164	41.8441
12.248	41.6725
12.332	41.4658
12.416	41.3853
12.5	41.1865
12.584	41.0413
12.668	41.0539
12.752	41.1001
12.836	41.1615
12.92	41.232
13.004	41.1665
13.088	40.9079
13.172	40.715
13.256	40.4737
13.34	40.2663
13.424	40.2963
13.508	40.3685
13.592	40.2848
13.676	40.0487
13.76	39.9292
13.844	39.9161
13.928	39.7784
14.012	39.5562
14.096	39.3706
14.18	39.3955
14.264	39.5515
14.348	39.5183
14.432	39.3647
14.516	39.2918
14.6	39.1598
14.684	38.9486
14.768	38.836
14.852	38.8465
14.936	38.952
15.02	39.1134
15.104	39.0382
15.188	38.6723
15.272	38.399
15.356	38.3863
15.44	38.5209
15.524	38.6065
15.608	38.5224
15.692	38.3772
15.776	38.2453
15.86	38.0661
15.944	37.876
16.028	37.7695
16.112	37.7237
16.196	37.6679
16.28	37.63
16.364	37.7053
16.448	37.8649
16.532	37.8844
16.616	37.6255
16.7	37.2507
16.784	37.0011
16.868	36.9277
16.952	36.9155
17.036	36.8721
17.12	36.8369
17.204	36.8826
17.288	36.9205
17.372	36.7682
17.456	36.4151
17.54	36.0602
17.624	35.8824
17.708	35.8961
17.792	36.0119
17.876	36.1205
17.96	36.118
18.044	35.9533
18.128	35.6805
18.212	35.4059
18.296	35.2052
18.38	35.1131
18.464	35.1172
18.548	35.1388
18.632	35.0855
18.716	34.9542
18.8	34.8287
18.884	34.7603
18.968	34.7127
19.052	34.6233
19.136	34.4667
19.22	34.2423
19.304	33.9754
19.388	33.728
19.472	33.567
19.556	33.4961
19.64	33.4512
19.724	33.396
19.808	33.3941
19.892	33.5465
19.976	33.8508
20.06	34.1485
20.144	34.2235
20.228	33.9734
20.312	33.5016
20.396	33.0547
20.48	32.8579
20.564	32.9823
20.648	33.3301
20.732	33.7223
20.816	34.012
20.9	34.125
20.984	34.0328
21.068	33.732
21.152	33.2547
21.236	32.6928
21.32	32.177
21.404	31.8112
21.488	31.6333
21.572	31.6136
21.656	31.6857
21.74	31.776
21.824	31.8063
21.908	31.7054
21.992	31.448
22.076	31.0886
22.16	30.7659
22.244	30.641
22.328	30.791
22.412	31.1573
22.496	31.5434
22.58	31.7297
22.664	31.5808
22.748	31.1216
22.832	30.5163
22.916	29.9951
23	29.7306
23.084	29.7828
23.168	30.0876
23.252	30.5096
23.336	30.9091
23.42	31.2173
23.504	31.427
23.588	31.566
23.672	31.6443
23.756	31.6188
23.84	31.4362
23.924	31.0408
24.008	30.4329
24.092	29.7147
24.176	29.0594
24.26	28.6548
24.344	28.65
24.428	29.0989
24.512	29.986
24.596	31.1996
24.68	32.5105
24.764	33.6028
24.848	34.2206
24.932	34.2134
25.016	33.5931
25.1	32.5147
25.184	31.1629
25.268	29.6388
25.352	27.9305
25.436	25.8408
25.52	23.1494
25.604	19.8258
25.688	16.2343
25.772	13.0928
25.856	11.1413
25.94	10.6149
26.024	11.0841
26.108	11.6309
26.192	11.3942
26.276	10.0558
26.36	8.139849
26.444	6.623258
26.528	6.432807
26.612	7.851453
26.696	10.6124
26.78	14.0365
26.864	17.4473
26.948	20.4338
27.028	22.7838