Folder: Masteroppgave/Bakgrunnsmateriale/MATLAB/FTIR/ftir_data/subBb/Mapping_121 (part 45)

File: C-4040-8_t104.asc
PE IR       SPECTRUM    SPECTRUM    ASCII       PEDS        1.60
  -1
C-8CC6~1.ASC
17/03/27
23:01:15.00
17/03/27
23:01:41.00
tln
$C-4040-8_t0104$<tbV0>[2.6,10.4,8.0,0.0,27,1,0]
27.028
64

2002,4.07
MIRTGS : RIGHTBACK : INTERNAL 2
MIR : ON : INTERNAL 2
OPTKBR

0.200000
8
8.000000
FILLER
RATIO
SPECTRUM
UNLOCKED 256

DOUBLE
64
COMBINED
1
0
0

0.002000
RATIO

1
0
TRUE
51149
0
LEFT NOT FITTED RIGHT NOT FITTED 0
NONE
NONE
15600
12
4.427000
51148
TRUE
1 0 8 72 0 0 0 0

15798

#HDR
-1
-1
#GR
µM
%T
2.38419e-05
0.0
2.000000
0.002000
12515
8
201.36
53.3775
#DATA
2.000000	 65.2866
2.084000	 65.1871
2.168000	 65.6498
2.252000	 64.4384
2.336000	 64.8769
2.420000	 65.0386
2.504000	 64.9186
2.588000	 65.4156
2.672000	 65.254
2.756000	 65.2929
2.840000	 65.1673
2.924000	 65.2956
3.008000	 65.2009
3.092000	 65.177
3.176000	 65.1631
3.260000	 65.212
3.344000	 65.2986
3.428000	 64.8287
3.512000	 64.8791
3.596000	 65.3572
3.680000	 65.4957
3.764000	 65.3133
3.848000	 65.3208
3.932000	 65.4337
4.016000	 65.3428
4.100000	 65.1364
4.184000	 65.2537
4.268000	 65.248
4.352000	 65.3454
4.436000	 65.3729
4.520000	 65.3578
4.604000	 65.3786
4.688000	 65.4281
4.772000	 65.3373
4.856000	 65.3116
4.940000	 65.2475
5.024000	 65.2859
5.108000	 65.287
5.192000	 65.4374
5.276000	 65.3731
5.359999	 65.2546
5.444000	 65.3538
5.528000	 65.3133
5.612000	 65.3533
5.696000	 64.9926
5.780000	 64.944
5.864000	 65.2341
5.948000	 65.2312
6.032000	 65.2246
6.116000	 65.1985
6.200000	 65.1228
6.284000	 65.146
6.368000	 64.9869
6.452000	 65.1864
6.536000	 65.0997
6.620000	 65.212
6.704000	 65.1446
6.788000	 65.1247
6.872000	 65.2204
6.956000	 65.2732
7.040000	 65.0586
7.124000	 65.1969
7.208000	 64.998
7.292000	 64.9864
7.376000	 65.061
7.460000	 65.0164
7.544000	 65.1984
7.628000	 64.8968
7.712000	 65.1256
7.796000	 64.9121
7.880000	 64.9026
7.964000	 64.973
8.048000	 65.1155
8.132000	 65.0253
8.216000	 64.8887
8.300000	 64.951
8.384000	 65.0377
8.468000	 64.9832
8.552000	 65.0656
8.635999	 64.9884
8.719999	 64.8455
8.804000	 64.7889
8.888000	 64.8158
8.972000	 64.9596
9.056000	 64.8729
9.140000	 64.6278
9.224000	 64.8886
9.308000	 64.7566
9.391999	 64.8091
9.475999	 64.7173
9.560000	 64.9757
9.644000	 64.6883
9.728000	 64.6959
9.812000	 64.5438
9.896000	 64.5144
9.980000	 64.4602
10.064	64.4383
10.148	64.6634
10.232	64.6944
10.316	64.6974
10.4	64.6226
10.484	64.5328
10.568	64.7068
10.652	64.5916
10.736	64.7687
10.82	65.1191
10.904	64.5817
10.988	64.4779
11.072	64.0875
11.156	64.4579
11.24	64.037
11.324	64.4208
11.408	64.4185
11.492	64.2339
11.576	64.5598
11.66	64.5515
11.744	64.3735
11.828	63.9622
11.912	63.7005
11.996	63.94
12.08	64.3546
12.164	64.6802
12.248	64.7582
12.332	64.3505
12.416	63.9983
12.5	63.9422
12.584	63.9919
12.668	63.8488
12.752	63.9331
12.836	64.272
12.92	64.2305
13.004	63.9883
13.088	63.8328
13.172	63.6982
13.256	64.1152
13.34	64.294
13.424	63.8714
13.508	63.405
13.592	63.4463
13.676	63.6961
13.76	63.7009
13.844	63.5628
13.928	63.5474
14.012	63.4172
14.096	63.411
14.18	63.5474
14.264	63.4516
14.348	63.1303
14.432	63.0139
14.516	63.1724
14.6	63.3471
14.684	63.3645
14.768	63.2071
14.852	63.0481
14.936	63.054
15.02	63.244
15.104	63.2924
15.188	63.0772
15.272	63.0473
15.356	63.361
15.44	63.6073
15.524	63.4852
15.608	63.1603
15.692	62.9069
15.776	62.7647
15.86	62.7503
15.944	62.9194
16.028	63.1153
16.112	63.0788
16.196	62.7688
16.28	62.4008
16.364	62.2194
16.448	62.2541
16.532	62.3573
16.616	62.4433
16.7	62.4997
16.784	62.4442
16.868	62.2196
16.952	61.9627
17.036	61.9188
17.12	62.1449
17.204	62.3856
17.288	62.4085
17.372	62.3215
17.456	62.3495
17.54	62.4579
17.624	62.4517
17.708	62.3252
17.792	62.2765
17.876	62.46
17.96	62.8114
18.044	63.1194
18.128	63.1981
18.212	62.9833
18.296	62.5321
18.38	61.9947
18.464	61.5658
18.548	61.3666
18.632	61.3535
18.716	61.386
18.8	61.3609
18.884	61.2448
18.968	61.0522
19.052	60.8752
19.136	60.8543
19.22	61.0268
19.304	61.2207
19.388	61.2101
19.472	60.9755
19.556	60.7477
19.64	60.756
19.724	60.981
19.808	61.1966
19.892	61.2119
19.976	61.023
20.06	60.7533
20.144	60.5247
20.228	60.411
20.312	60.4517
20.396	60.6474
20.48	60.9316
20.564	61.1773
20.648	61.2632
20.732	61.1475
20.816	60.8855
20.9	60.5877
20.984	60.3522
21.068	60.2151
21.152	60.1336
21.236	60.0158
21.32	59.7961
21.404	59.4913
21.488	59.1888
21.572	58.9827
21.656	58.9258
21.74	59.0009
21.824	59.1363
21.908	59.2516
21.992	59.2963
22.076	59.2697
22.16	59.2116
22.244	59.154
22.328	59.0991
22.412	59.0076
22.496	58.8381
22.58	58.6064
22.664	58.3795
22.748	58.2168
22.832	58.0974
22.916	57.9068
23	57.4794
23.084	56.7511
23.168	55.8308
23.252	54.982
23.336	54.5543
23.42	54.7352
23.504	55.5036
23.588	56.6718
23.672	57.9982
23.756	59.2308
23.84	60.1516
23.924	60.5579
24.008	60.3145
24.092	59.4207
24.176	58.0275
24.26	56.4587
24.344	55.201
24.428	54.7117
24.512	55.2354
24.596	56.8782
24.68	59.6539
24.764	63.4362
24.848	68.2618
24.932	73.7616
25.016	78.936
25.1	82.2934
25.184	82.7561
25.268	80.4242
25.352	76.6026
25.436	72.7218
25.52	69.256
25.604	65.4865
25.688	60.9922
25.772	56.5152
25.856	53.812
25.94	53.6653
26.024	55.3018
26.108	56.671
26.192	57.7057
26.276	61.005
26.36	71.9022
26.444	93.8219
26.528	125.788
26.612	161.064
26.696	190.745
26.78	200.919
26.864	200
26.948	200.089
27.028	197.486

File: C-4040-8_t104_cm-1.asc
PE IR       SPECTRUM    SPECTRUM    ASCII       PEDS        1.60
  -1
C-498C~1.ASC
17/03/27
23:01:15.00
17/03/27
23:01:15.00
tln
$C-4040-8_t0104$<tbV0>[2.6,10.4,8.0,0.0,27,1,0]
370
64

2002,4.07
MIRTGS : RIGHTBACK : INTERNAL 2
MIR : ON : INTERNAL 2
OPTKBR

0.200000
8
8.000000
FILLER
RATIO
SPECTRUM
UNLOCKED 256

DOUBLE
64
COMBINED
1
0
0

1.000000
RATIO

1
0
TRUE
51149
0
LEFT NOT FITTED RIGHT NOT FITTED 0
NONE
NONE
15600
12
4.427000
51148
TRUE
1 0 8 72 0 0 0 0

15798

#HDR
-1
-1
#GR
CM-1
%T
2.38419e-05
0.0
5000
-1.000000
4631
8
200
53.3781
#DATA
5000	65.2866
4984	64.7888
4968	65.1111
4952	64.7555
4936	64.773
4920	64.9284
4904	65.1134
4888	64.8037
4872	65.5422
4856	64.9585
4840	64.9114
4824	65.163
4808	65.2471
4792	64.8908
4776	64.9306
4760	65.1833
4744	65.1202
4728	65.4872
4712	65.2349
4696	65.2433
4680	65.0947
4664	65.3445
4648	65.5433
4632	64.8756
4616	65.5314
4600	64.9764
4584	65.3806
4568	65.1836
4552	65.3075
4536	65.1695
4520	65.2611
4504	64.7507
4488	64.9451
4472	64.5657
4456	64.4957
4440	64.4572
4424	65.0651
4408	63.8935
4392	54.7555
4376	63.6023
4360	64.5182
4344	64.7964
4328	64.6562
4312	65.0025
4296	64.5416
4280	64.8432
4264	65.0073
4248	64.5705
4232	64.6229
4216	64.7467
4200	64.7173
4184	64.3605
4168	64.8005
4152	65.3237
4136	65.1677
4120	65.236
4104	65.4845
4088	64.8623
4072	64.7618
4056	65.0896
4040	65.1905
4024	65.3423
4008	65.2575
3992	64.9641
3976	65.0877
3960	65.4998
3944	65.0706
3928	65.0545
3912	65.5077
3896	65.2364
3880	65.1349
3864	65.4157
3848	64.9474
3832	65.0856
3816	65.1518
3800	65.2432
3784	65.3071
3768	65.1938
3752	65.3079
3736	65.2266
3720	65.3886
3704	65.1709
3688	65.341
3672	65.1934
3656	65.0671
3640	65.5597
3624	65.2915
3608	65.0577
3592	65.3205
3576	65.2437
3560	65.4383
3544	65.1476
3528	65.393
3512	65.0902
3496	65.164
3480	64.8476
3464	65.2431
3448	65.1361
3432	65.4599
3416	65.378
3400	65.2464
3384	65.1015
3368	65.1992
3352	65.3583
3336	65.1781
3320	65.0496
3304	65.1097
3288	65.1174
3272	65.232
3256	65.1144
3240	65.2225
3224	65.0792
3208	65.4419
3192	64.9429
3176	65.2189
3160	65.3772
3144	65.274
3128	65.4592
3112	65.2405
3096	65.3098
3080	65.1642
3064	65.172
3048	65.2539
3032	65.2188
3016	65.2114
3000	65.184
2984	65.1904
2968	64.9272
2952	65.1109
2936	65.2606
2920	64.6984
2904	65.1192
2888	65.2066
2872	65.1655
2856	65.3903
2840	64.993
2824	65.2065
2808	65.268
2792	65.5132
2776	65.3617
2760	65.2533
2744	65.2523
2728	65.345
2712	65.4665
2696	65.3121
2680	65.2887
2664	65.4
2648	65.1973
2632	65.1275
2616	65.3685
2600	65.3222
2584	65.2712
2568	65.2984
2552	65.3046
2536	65.3409
2520	65.1818
2504	65.5144
2488	65.2937
2472	65.3558
2456	65.4422
2440	65.1472
2424	64.8081
2408	65.534
2392	65.2846
2376	65.1672
2360	65.3289
2344	65.2245
2328	65.3318
2312	65.3214
2296	65.3709
2280	65.3303
2264	65.2536
2248	65.3422
2232	65.2933
2216	65.3847
2200	65.2483
2184	65.4257
2168	65.3958
2152	65.4827
2136	65.3909
2120	65.2729
2104	65.288
2088	65.2519
2072	65.8546
2056	65.1918
2040	65.334
2024	65.2496
2008	65.3632
1992	65.2709
1976	65.3309
1960	65.3012
1944	65.3574
1928	65.4685
1912	65.2558
1896	65.3625
1880	65.2768
1864	65.2356
1848	65.3195
1832	65.3891
1816	65.3306
1800	65.3625
1784	65.3427
1768	65.3408
1752	65.0717
1736	64.9739
1720	65.0663
1704	65.2529
1688	65.3616
1672	65.3548
1656	65.2082
1640	65.1755
1624	65.1664
1608	65.186
1592	65.1459
1576	65.0549
1560	64.8804
1544	65.2202
1528	65.1051
1512	65.1836
1496	65.1842
1480	65.0555
1464	65.1057
1448	65.3696
1432	65.0626
1416	65.0887
1400	65.1222
1384	65.0056
1368	65.0269
1352	65.0671
1336	64.992
1320	65.1795
1304	65.0095
1288	65.0344
1272	65.0145
1256	64.9738
1240	65.1242
1224	65.0774
1208	64.8795
1192	65.038
1176	64.9863
1160	64.9456
1144	64.8908
1128	64.642
1112	64.8985
1096	64.6343
1080	64.8153
1064	64.8125
1048	64.9571
1032	64.6542
1016	64.4577
1000	64.3753
984	 64.6652
968	 64.7286
952	 64.5887
936	 64.5354
920	 64.7619
904	 64.1284
888	 64.0233
872	 64.2211
856	 64.528
840	 63.7102
824	 64.5712
808	 64.1243
792	 63.9254
776	 64.3186
760	 63.6811
744	 63.754
728	 63.7342
712	 63.3816
696	 63.0709
680	 63.3349
664	 63.309
648	 63.5988
632	 62.7347
616	 62.593
600	 62.4844
584	 62.156
568	 62.4679
552	 63.2048
536	 61.3646
520	 61.0555
504	 61.2314
488	 60.9714
472	 60.0951
456	 59.2712
440	 58.2503
424	 56.6249
408	 55.2076
392	 69.6671
376	 154.465
370	 197.486

File: C-4040-8_t105.asc
PE IR       SPECTRUM    SPECTRUM    ASCII       PEDS        1.60
  -1
C-80D6~1.ASC
17/03/27
23:05:52.00
17/03/27
23:06:18.00
tln
$C-4040-8_t0105$<tbV0>[0.0,10.4,8.0,0.0,27,1,0]
27.028
64

2002,4.07
MIRTGS : RIGHTBACK : INTERNAL 2
MIR : ON : INTERNAL 2
OPTKBR

0.200000
8
8.000000
FILLER
RATIO
SPECTRUM
UNLOCKED 256

DOUBLE
64
COMBINED
1
0
0

0.002000
RATIO

1
0
TRUE
51149
0
LEFT NOT FITTED RIGHT NOT FITTED 0
NONE
NONE
15600
12
4.427000
51148
TRUE
1 0 8 72 0 0 0 0

15798

#HDR
-1
-1
#GR
µM
%T
2.38419e-05
0.0
2.000000
0.002000
12515
8
201.33
41.7127
#DATA
2.000000	 64.6339
2.084000	 65.3553
2.168000	 64.9234
2.252000	 64.1549
2.336000	 63.9198
2.420000	 65.014
2.504000	 65.2314
2.588000	 65.1357
2.672000	 65.3704
2.756000	 65.0483
2.840000	 65.154
2.924000	 65.1975
3.008000	 65.1254
3.092000	 65.1083
3.176000	 65.1549
3.260000	 65.115
3.344000	 65.1745
3.428000	 64.931
3.512000	 64.841
3.596000	 65.232
3.680000	 65.2482
3.764000	 65.3191
3.848000	 65.127
3.932000	 65.2225
4.016000	 65.4994
4.100000	 65.1544
4.184000	 65.2776
4.268000	 65.2978
4.352000	 65.2001
4.436000	 65.2048
4.520000	 65.2575
4.604000	 65.3236
4.688000	 65.3445
4.772000	 65.1843
4.856000	 65.2836
4.940000	 65.2528
5.024000	 65.2009
5.108000	 65.3361
5.192000	 65.3563
5.276000	 65.2085
5.359999	 65.2298
5.444000	 65.416
5.528000	 65.2438
5.612000	 65.1417
5.696000	 65.2031
5.780000	 64.8331
5.864000	 65.2272
5.948000	 65.1675
6.032000	 65.1325
6.116000	 65.285
6.200000	 64.9755
6.284000	 65.1256
6.368000	 64.843
6.452000	 65.1657
6.536000	 65.0464
6.620000	 65.0069
6.704000	 65.0599
6.788000	 65.067
6.872000	 64.939
6.956000	 65.139
7.040000	 65.0636
7.124000	 65.2436
7.208000	 65.0254
7.292000	 65.0797
7.376000	 65.0856
7.460000	 64.955
7.544000	 65.0209
7.628000	 64.7753
7.712000	 65.1732
7.796000	 65.0152
7.880000	 64.87
7.964000	 65.1408
8.048000	 65.1019
8.132000	 64.9532
8.216000	 64.9105
8.300000	 64.9876
8.384000	 64.9558
8.468000	 64.9669
8.552000	 64.9693
8.635999	 64.9218
8.719999	 64.7801
8.804000	 64.6573
8.888000	 64.8385
8.972000	 64.9507
9.056000	 64.6448
9.140000	 64.4649
9.224000	 64.5839
9.308000	 64.7273
9.391999	 64.7863
9.475999	 64.5239
9.560000	 65.0198
9.644000	 64.7284
9.728000	 64.6355
9.812000	 64.582
9.896000	 64.4845
9.980000	 64.6189
10.064	64.5865
10.148	64.6908
10.232	64.6834
10.316	64.7679
10.4	64.6638
10.484	64.7185
10.568	64.7897
10.652	64.6562
10.736	64.6329
10.82	65.011
10.904	64.6846
10.988	64.3363
11.072	64.5678
11.156	64.6572
11.24	64.607
11.324	64.2815
11.408	64.3289
11.492	64.838
11.576	64.4076
11.66	64.2821
11.744	64.488
11.828	64.5024
11.912	64.6194
11.996	64.3027
12.08	64.2374
12.164	64.1197
12.248	64.402
12.332	64.465
12.416	64.117
12.5	64.2314
12.584	64.3974
12.668	64.1355
12.752	63.8673
12.836	63.8503
12.92	64.0636
13.004	64.2252
13.088	63.9881
13.172	63.6951
13.256	63.9396
13.34	63.8804
13.424	63.1999
13.508	62.8823
13.592	63.2789
13.676	63.6926
13.76	63.676
13.844	63.5592
13.928	63.503
14.012	63.3498
14.096	63.3339
14.18	63.3632
14.264	63.1957
14.348	63.1245
14.432	63.2672
14.516	63.2593
14.6	63.3099
14.684	63.5118
14.768	63.4036
14.852	63.0426
14.936	62.8294
15.02	62.9338
15.104	63.1524
15.188	63.2415
15.272	63.2154
15.356	63.1602
15.44	63.072
15.524	62.8831
15.608	62.5582
15.692	62.235
15.776	62.182
15.86	62.4818
15.944	62.9378
16.028	63.1947
16.112	63.0091
16.196	62.5488
16.28	62.2075
16.364	62.1115
16.448	62.0906
16.532	62.0462
16.616	62.0903
16.7	62.298
16.784	62.5133
16.868	62.55
16.952	62.422
17.036	62.2755
17.12	62.1888
17.204	62.1469
17.288	62.189
17.372	62.3566
17.456	62.5298
17.54	62.5347
17.624	62.3982
17.708	62.2738
17.792	62.2069
17.876	62.159
17.96	62.0874
18.044	61.9406
18.128	61.7396
18.212	61.6275
18.296	61.7004
18.38	61.8574
18.464	61.9436
18.548	61.9467
18.632	61.9244
18.716	61.8706
18.8	61.7625
18.884	61.6412
18.968	61.5633
19.052	61.5112
19.136	61.4133
19.22	61.2427
19.304	61.0531
19.388	60.9374
19.472	60.9568
19.556	61.0893
19.64	61.2292
19.724	61.2661
19.808	61.1734
19.892	61.0186
19.976	60.8952
20.06	60.8601
20.144	60.9325
20.228	61.1203
20.312	61.4098
20.396	61.7233
20.48	61.9246
20.564	61.9084
20.648	61.6856
20.732	61.3801
20.816	61.1234
20.9	60.9526
20.984	60.8012
21.068	60.5895
21.152	60.3067
21.236	60.0028
21.32	59.7091
21.404	59.3969
21.488	59.0306
21.572	58.6448
21.656	58.3573
21.74	58.2829
21.824	58.4386
21.908	58.7224
21.992	59.0009
22.076	59.2096
22.16	59.375
22.244	59.5498
22.328	59.737
22.412	59.8838
22.496	59.9358
22.58	59.9015
22.664	59.8374
22.748	59.8003
22.832	59.7947
22.916	59.7482
23	59.5611
23.084	59.193
23.168	58.6744
23.252	58.0985
23.336	57.6081
23.42	57.2663
23.504	57.0719
23.588	56.9963
23.672	57.0118
23.756	57.0807
23.84	57.1807
23.924	57.2505
24.008	57.1675
24.092	56.7435
24.176	55.7576
24.26	54.1118
24.344	51.9785
24.428	49.784
24.512	48.0155
24.596	47.2294
24.68	47.9699
24.764	50.5412
24.848	55.1272
24.932	61.2514
25.016	67.623
25.1	72.4238
25.184	74.217
25.268	72.7515
25.352	68.9842
25.436	64.2439
25.52	59.4359
25.604	54.7359
25.688	50.1077
25.772	45.8478
25.856	42.8258
25.94	41.7135
26.024	42.7435
26.108	45.6474
26.192	50.995
26.276	60.402
26.36	76.2487
26.444	99.8147
26.528	129.923
26.612	162.452
26.696	190.9
26.78	200.899
26.864	200
26.948	200.175
27.028	195.093

File: C-4040-8_t105_cm-1.asc
PE IR       SPECTRUM    SPECTRUM    ASCII       PEDS        1.60
  -1
C-4A8C~1.ASC
17/03/27
23:05:52.00
17/03/27
23:05:52.00
tln
$C-4040-8_t0105$<tbV0>[0.0,10.4,8.0,0.0,27,1,0]
370
64

2002,4.07
MIRTGS : RIGHTBACK : INTERNAL 2
MIR : ON : INTERNAL 2
OPTKBR

0.200000
8
8.000000
FILLER
RATIO
SPECTRUM
UNLOCKED 256

DOUBLE
64
COMBINED
1
0
0

1.000000
RATIO

1
0
TRUE
51149
0
LEFT NOT FITTED RIGHT NOT FITTED 0
NONE
NONE
15600
12
4.427000
51148
TRUE
1 0 8 72 0 0 0 0

15798

#HDR
-1
-1
#GR
CM-1
%T
2.38419e-05
0.0
5000
-1.000000
4631
8
200
41.867
#DATA
5000	64.6339
4984	65.2185
4968	65.0741
4952	65.1119
4936	64.4123
4920	64.9268
4904	64.9877
4888	64.8599
4872	65.1862
4856	64.9214
4840	64.3052
4824	65.0346
4808	65.0458
4792	65.2059
4776	65.0838
4760	65.2758
4744	64.7633
4728	65.082
4712	65.2691
4696	65.4889
4680	65.0539
4664	64.9853
4648	65.3991
4632	65.668
4616	64.9491
4600	64.6898
4584	65.3428
4568	64.8913
4552	65.2708
4536	63.9338
4520	64.914
4504	63.7071
4488	63.9399
4472	64.0839
4456	63.6288
4440	64.1421
4424	63.6635
4408	64.8423
4392	82.3423
4376	66.7493
4360	63.6677
4344	64.1115
4328	64.2514
4312	64.6012
4296	64.2515
4280	63.9608
4264	65.1472
4248	64.272
4232	64.3967
4216	64.8076
4200	64.6776
4184	64.749
4168	64.8291
4152	64.6275
4136	65.244
4120	65.2389
4104	65.0515
4088	65.128
4072	65.0339
4056	65.1839
4040	65.3934
4024	65.1855
4008	65.2309
3992	65.2665
3976	65.0639
3960	65.2777
3944	64.971
3928	65.0023
3912	65.0305
3896	64.8343
3880	65.293
3864	65.1354
3848	64.7794
3832	64.981
3816	65.1554
3800	64.9898
3784	64.9787
3768	65.286
3752	65.2418
3736	65.1118
3720	65.3892
3704	65.3677
3688	65.4263
3672	65.4069
3656	65.3123
3640	65.2513
3624	65.1922
3608	65.2585
3592	65.3557
3576	65.3207
3560	65.2529
3544	65.2515
3528	65.3767
3512	65.3574
3496	65.2239
3480	64.8429
3464	65.3921
3448	65.0084
3432	65.1985
3416	65.223
3400	65.153
3384	64.9212
3368	65.2136
3352	65.0635
3336	65.1162
3320	65.0317
3304	65.1142
3288	65.0576
3272	65.2884
3256	64.9796
3240	65.18
3224	65.1765
3208	65.2747
3192	65.1759
3176	65.2521
3160	65.4584
3144	65.0866
3128	65.7949
3112	65.3936
3096	65.3829
3080	65.0298
3064	65.0605
3048	65.2257
3032	65.1112
3016	65.1231
3000	65.3037
2984	65.0402
2968	65.1122
2952	65.0042
2936	65.0936
2920	64.9187
2904	65.2618
2888	64.9926
2872	65.1798
2856	65.1111
2840	65.1568
2824	65.1943
2808	65.1468
2792	65.3944
2776	65.261
2760	65.1323
2744	65.3217
2728	65.2234
2712	65.2566
2696	65.2296
2680	65.2354
2664	65.3609
2648	65.349
2632	65.1871
2616	65.109
2600	65.1307
2584	65.1817
2568	65.2272
2552	65.216
2536	65.2171
2520	65.237
2504	65.2093
2488	65.4658
2472	65.3128
2456	65.2568
2440	65.1476
2424	65.3271
2408	65.0652
2392	65.2674
2376	65.2453
2360	65.1726
2344	65.2991
2328	65.3575
2312	65.2092
2296	65.2588
2280	65.3539
2264	65.2291
2248	65.2313
2232	65.2448
2216	65.3252
2200	65.1823
2184	65.1694
2168	65.3523
2152	65.3557
2136	65.3335
2120	65.2162
2104	65.2522
2088	65.1667
2072	65.7595
2056	65.2456
2040	65.2819
2024	65.2544
2008	65.2973
1992	65.2177
1976	65.2414
1960	65.3712
1944	65.3296
1928	65.3444
1912	65.13
1896	65.2111
1880	65.2558
1864	65.2736
1848	65.3946
1832	65.3714
1816	65.2982
1800	65.1431
1784	65.1574
1768	65.2972
1752	65.2056
1736	65.0307
1720	65.0031
1704	65.1981
1688	65.2268
1672	65.314
1656	65.1037
1640	65.2848
1624	65.0632
1608	64.9636
1592	65.1263
1576	64.9733
1560	64.893
1544	65.192
1528	65.0636
1512	64.9802
1496	65.1932
1480	65.0248
1464	65.178
1448	65.0637
1432	64.9729
1416	65.1415
1400	65.212
1384	65.1031
1368	65.1303
1352	65.1736
1336	64.9168
1320	64.9432
1304	64.8982
1288	65.0784
1272	64.9655
1256	65.14
1240	65.093
1224	64.8433
1208	64.9619
1192	64.9285
1176	64.9729
1160	64.9468
1144	64.7884
1128	64.7416
1112	64.9708
1096	64.39
1080	64.6028
1064	64.7719
1048	64.8967
1032	64.6403
1016	64.4116
1000	64.5715
984	 64.6965
968	 64.7976
952	 64.8055
936	 64.6324
920	 64.9393
904	 64.5855
888	 64.5651
872	 64.8231
856	 64.3406
840	 64.6272
824	 64.1651
808	 64.2365
792	 64.3146
776	 63.9608
760	 63.707
744	 63.0755
728	 63.7135
712	 63.3172
696	 63.1518
680	 63.5241
664	 63.0445
648	 63.0834
632	 62.3126
616	 62.3631
600	 62.202
584	 62.1864
568	 62.4318
552	 61.7669
536	 61.9137
520	 61.2177
504	 61.1139
488	 61.9367
472	 60.1815
456	 58.7999
440	 59.8051
424	 56.9973
408	 48.0507
392	 59.9909
376	 156.261
370	 195.093

File: C-4040-8_t106.asc
PE IR       SPECTRUM    SPECTRUM    ASCII       PEDS        1.60
  -1
C-84D6~1.ASC
17/03/27
23:10:29.00
17/03/27
23:10:55.00
tln
$C-4040-8_t0106$<tbV0>[-2.6,10.4,8.0,0.0,27,1,0]
27.028
64

2002,4.07
MIRTGS : RIGHTBACK : INTERNAL 2
MIR : ON : INTERNAL 2
OPTKBR

0.200000
8
8.000000
FILLER
RATIO
SPECTRUM
UNLOCKED 256

DOUBLE
64
COMBINED
1
0
0

0.002000
RATIO

1
0
TRUE
51149
0
LEFT NOT FITTED RIGHT NOT FITTED 0
NONE
NONE
15600
12
4.427000
51148
TRUE
1 0 8 72 0 0 0 0

15798

#HDR
-1
-1
#GR
µM
%T
2.38419e-05
0.0
2.000000
0.002000
12515
8
180.946
22.6701
#DATA
2.000000	 65.4725
2.084000	 65.1835
2.168000	 65.1391
2.252000	 64.8568
2.336000	 64.7449
2.420000	 65.185
2.504000	 65.1877
2.588000	 65.4626
2.672000	 65.1743
2.756000	 65.2938
2.840000	 65.4715
2.924000	 65.2626
3.008000	 65.3136
3.092000	 65.175
3.176000	 65.1787
3.260000	 65.2294
3.344000	 65.275
3.428000	 65.0186
3.512000	 65.1275
3.596000	 65.2932
3.680000	 65.4046
3.764000	 65.3386
3.848000	 65.2007
3.932000	 65.2804
4.016000	 65.512
4.100000	 65.263
4.184000	 65.3138
4.268000	 65.3294
4.352000	 65.3671
4.436000	 65.4331
4.520000	 65.375
4.604000	 65.4046
4.688000	 65.3221
4.772000	 65.3441
4.856000	 65.3159
4.940000	 65.3783
5.024000	 65.241
5.108000	 65.2921
5.192000	 65.4117
5.276000	 65.3671
5.359999	 65.3468
5.444000	 65.3903
5.528000	 65.2848
5.612000	 65.3577
5.696000	 65.1811
5.780000	 65.1664
5.864000	 65.2973
5.948000	 65.1063
6.032000	 65.1721
6.116000	 65.2949
6.200000	 65.1784
6.284000	 65.0075
6.368000	 65.0191
6.452000	 65.1053
6.536000	 65.0825
6.620000	 65.1371
6.704000	 65.2976
6.788000	 65.1571
6.872000	 65.0469
6.956000	 65.09
7.040000	 65.0836
7.124000	 65.2261
7.208000	 64.9991
7.292000	 65.0617
7.376000	 65.1214
7.460000	 65.0851
7.544000	 65.0897
7.628000	 64.7679
7.712000	 65.1259
7.796000	 65.15
7.880000	 64.9487
7.964000	 65.1471
8.048000	 64.9658
8.132000	 64.9183
8.216000	 65.0096
8.300000	 64.9774
8.384000	 64.9822
8.468000	 65.0347
8.552000	 64.9473
8.635999	 64.8963
8.719999	 64.8419
8.804000	 64.8156
8.888000	 64.9033
8.972000	 64.8956
9.056000	 64.8141
9.140000	 64.5448
9.224000	 64.8831
9.308000	 64.7954
9.391999	 64.6462
9.475999	 64.6704
9.560000	 64.8564
9.644000	 64.5056
9.728000	 64.7475
9.812000	 64.4795
9.896000	 64.7291
9.980000	 64.8257
10.064	64.4326
10.148	64.6857
10.232	64.8881
10.316	64.626
10.4	64.6175
10.484	64.6439
10.568	64.353
10.652	64.488
10.736	64.5623
10.82	64.8831
10.904	64.8756
10.988	64.7742
11.072	64.732
11.156	64.4964
11.24	64.7456
11.324	64.4976
11.408	65.1142
11.492	64.9944
11.576	64.8432
11.66	64.5013
11.744	64.4167
11.828	64.4768
11.912	64.0388
11.996	64.3552
12.08	64.0898
12.164	64.0062
12.248	64.3288
12.332	64.2358
12.416	63.8083
12.5	63.6648
12.584	63.9271
12.668	63.8942
12.752	63.6546
12.836	63.4981
12.92	63.7033
13.004	63.8305
13.088	63.7345
13.172	63.7576
13.256	63.6491
13.34	63.6192
13.424	63.7684
13.508	63.4977
13.592	63.2355
13.676	63.4033
13.76	63.5733
13.844	63.4174
13.928	63.3854
14.012	63.4456
14.096	63.5487
14.18	63.5033
14.264	63.3133
14.348	63.2961
14.432	63.3517
14.516	63.3611
14.6	63.3967
14.684	63.3297
14.768	63.1734
14.852	63.135
14.936	63.0567
15.02	62.7403
15.104	62.5331
15.188	62.7435
15.272	63.0947
15.356	63.1743
15.44	62.9821
15.524	62.8822
15.608	62.9921
15.692	63.0667
15.776	63.0391
15.86	63.0247
15.944	63.0207
16.028	62.9851
16.112	62.8732
16.196	62.6659
16.28	62.5219
16.364	62.5525
16.448	62.5829
16.532	62.5064
16.616	62.4662
16.7	62.5099
16.784	62.4883
16.868	62.3336
16.952	62.1559
17.036	62.0973
17.12	62.1495
17.204	62.1491
17.288	62.0667
17.372	62.0478
17.456	62.0792
17.54	61.9635
17.624	61.6919
17.708	61.5111
17.792	61.583
17.876	61.8532
17.96	62.164
18.044	62.3443
18.128	62.2818
18.212	62.012
18.296	61.6865
18.38	61.4372
18.464	61.3108
18.548	61.2921
18.632	61.3137
18.716	61.3049
18.8	61.2631
18.884	61.2255
18.968	61.1733
19.052	61.029
19.136	60.7753
19.22	60.5231
19.304	60.424
19.388	60.5382
19.472	60.8017
19.556	61.0763
19.64	61.2226
19.724	61.1708
19.808	60.973
19.892	60.7877
19.976	60.7799
20.06	60.9943
20.144	61.331
20.228	61.6232
20.312	61.7333
20.396	61.6081
20.48	61.2893
20.564	60.8956
20.648	60.5683
20.732	60.4059
20.816	60.4248
20.9	60.5741
20.984	60.7873
21.068	60.9943
21.152	61.092
21.236	60.9515
21.32	60.5023
21.404	59.8187
21.488	59.1096
21.572	58.5954
21.656	58.3949
21.74	58.4881
21.824	58.7587
21.908	59.083
21.992	59.3816
22.076	59.6121
22.16	59.756
22.244	59.8059
22.328	59.7622
22.412	59.6373
22.496	59.4478
22.58	59.2074
22.664	58.9297
22.748	58.6304
22.832	58.3282
22.916	58.0487
23	57.8223
23.084	57.7136
23.168	57.7926
23.252	58.1029
23.336	58.6642
23.42	59.3895
23.504	60.082
23.588	60.5123
23.672	60.5193
23.756	60.0668
23.84	59.2782
23.924	58.406
24.008	57.731
24.092	57.4365
24.176	57.4818
24.26	57.7047
24.344	57.9182
24.428	58.0699
24.512	58.3434
24.596	59.1667
24.68	61.025
24.764	64.1308
24.848	68.4969
24.932	73.4021
25.016	77.4563
25.1	79.166
25.184	77.7594
25.268	73.7787
25.352	68.8565
25.436	64.6432
25.52	61.8862
25.604	60.2378
25.688	58.8105
25.772	56.7903
25.856	53.848
25.94	49.7937
26.024	44.3898
26.108	37.4117
26.192	29.7535
26.276	23.8306
26.36	23.3489
26.444	31.744
26.528	50.5075
26.612	78.0379
26.696	110.028
26.78	140.595
26.864	164.311
26.948	177.885
27.028	180.946