Folder: Masteroppgave/Bakgrunnsmateriale/MATLAB/FTIR/ftir_data/subBb/Mapping_121 (part 12)

File: C-4040-8_t21_cm-1.asc
PE IR       SPECTRUM    SPECTRUM    ASCII       PEDS        1.60
  -1
C-9AE4~1.ASC
17/03/27
16:08:27.00
17/03/27
16:08:27.00
tln
$C-4040-8_t0021$<tbV0>[-10.4,-10.4,8.0,0.0,27,1,0]
370
64

2002,4.07
MIRTGS : RIGHTBACK : INTERNAL 2
MIR : ON : INTERNAL 2
OPTKBR

0.200000
8
8.000000
FILLER
RATIO
SPECTRUM
UNLOCKED 256

DOUBLE
64
COMBINED
1
0
0

1.000000
RATIO

1
0
TRUE
51149
0
LEFT NOT FITTED RIGHT NOT FITTED 0
NONE
NONE
15600
12
4.427000
51148
TRUE
1 0 8 72 0 0 0 0

15798

#HDR
-1
-1
#GR
CM-1
%T
2.38419e-05
0.0
5000
-1.000000
4631
8
75.7084
20.6542
#DATA
5000	63.9439
4984	64.0758
4968	64.0833
4952	63.0115
4936	63.1857
4920	63.6359
4904	64.6801
4888	63.9355
4872	64.158
4856	64.0906
4840	64.2605
4824	63.8967
4808	63.5306
4792	64.074
4776	64.0856
4760	63.8287
4744	64.3768
4728	63.5849
4712	64.3764
4696	64.0055
4680	64.1047
4664	63.9959
4648	63.7422
4632	64.2672
4616	64.2375
4600	63.8948
4584	63.78
4568	63.5245
4552	63.5963
4536	63.5224
4520	63.4423
4504	63.7388
4488	62.6403
4472	63.2741
4456	64.9477
4440	66.7485
4424	61.3716
4408	62.7874
4392	62.6688
4376	68.7808
4360	66.9559
4344	64.0633
4328	62.6696
4312	62.557
4296	63.0543
4280	63.0579
4264	63.1266
4248	62.8396
4232	62.6694
4216	63.033
4200	62.9318
4184	62.0248
4168	63.2014
4152	63.3165
4136	63.4826
4120	63.2478
4104	62.8786
4088	63.53
4072	63.5653
4056	63.2421
4040	63.3884
4024	63.3889
4008	63.4791
3992	63.069
3976	63.0398
3960	63.1714
3944	63.1747
3928	63.0623
3912	63.0432
3896	62.9566
3880	62.6704
3864	62.7975
3848	62.9879
3832	62.5952
3816	62.5493
3800	63.0424
3784	62.7354
3768	62.634
3752	63.0008
3736	62.8838
3720	62.7049
3704	62.4264
3688	62.4036
3672	62.5878
3656	62.2996
3640	62.3853
3624	62.19
3608	61.8927
3592	62.1776
3576	62.0042
3560	62.0101
3544	61.6644
3528	61.7122
3512	61.6167
3496	61.6882
3480	61.566
3464	61.4483
3448	61.3822
3432	61.2431
3416	61.0726
3400	61.1534
3384	61.0725
3368	61.0225
3352	60.8269
3336	60.8224
3320	60.7529
3304	60.7591
3288	60.5399
3272	60.7235
3256	60.4161
3240	60.428
3224	60.3674
3208	60.377
3192	60.1618
3176	60.0417
3160	60.1364
3144	59.9839
3128	59.7518
3112	59.9302
3096	59.5245
3080	59.5461
3064	59.6447
3048	59.4851
3032	59.3163
3016	59.2846
3000	58.8876
2984	58.9933
2968	58.8317
2952	58.5852
2936	58.713
2920	58.3351
2904	58.3292
2888	58.2654
2872	58.2101
2856	57.9311
2840	58.1632
2824	58.0271
2808	57.9429
2792	57.7385
2776	57.6127
2760	57.6391
2744	57.5874
2728	57.4215
2712	57.2135
2696	57.2249
2680	57.1092
2664	56.7995
2648	56.7448
2632	56.613
2616	56.4725
2600	56.3183
2584	56.1018
2568	56.1165
2552	55.9448
2536	55.7776
2520	55.731
2504	55.7064
2488	55.36
2472	55.3848
2456	55.2679
2440	55.1128
2424	54.8103
2408	54.7509
2392	54.6835
2376	54.4597
2360	54.4577
2344	54.1919
2328	54.159
2312	53.7455
2296	53.8195
2280	53.5614
2264	53.5041
2248	53.2955
2232	53.1223
2216	52.9985
2200	52.9167
2184	52.7256
2168	52.4765
2152	52.4696
2136	52.1718
2120	52.0921
2104	51.8949
2088	51.9083
2072	51.5104
2056	51.4069
2040	51.3729
2024	51.1222
2008	51.0503
1992	50.941
1976	50.6736
1960	50.5844
1944	50.4073
1928	50.238
1912	50.087
1896	49.9287
1880	49.8969
1864	49.5368
1848	49.4009
1832	49.2659
1816	49.1191
1800	49.0266
1784	48.9087
1768	48.717
1752	48.5027
1736	48.4344
1720	48.3107
1704	48.2246
1688	47.8644
1672	47.6983
1656	47.8173
1640	47.5295
1624	47.1637
1608	46.7516
1592	46.6902
1576	46.7181
1560	46.7159
1544	46.4134
1528	46.0114
1512	46.111
1496	45.7607
1480	45.4893
1464	45.4497
1448	45.2326
1432	45.0447
1416	44.8204
1400	44.585
1384	44.4755
1368	44.2466
1352	44.191
1336	43.7813
1320	43.8273
1304	43.4639
1288	43.369
1272	43.1235
1256	43.0617
1240	42.7935
1224	42.509
1208	42.3749
1192	42.2984
1176	41.972
1160	41.8885
1144	41.6864
1128	41.534
1112	41.4763
1096	41.1318
1080	40.7156
1064	40.6719
1048	40.3476
1032	40.3585
1016	40.4896
1000	40.0194
984	 39.6559
968	 39.7906
952	 39.223
936	 39.0599
920	 38.9165
904	 38.3349
888	 38.404
872	 38.1372
856	 37.7788
840	 37.4438
824	 37.3684
808	 37.1607
792	 36.5703
776	 36.3955
760	 36.2708
744	 36.1149
728	 35.3733
712	 34.8436
696	 34.4666
680	 33.9458
664	 34.1607
648	 33.8274
632	 33.1039
616	 32.2031
600	 32.5208
584	 31.9093
568	 30.7973
552	 30.7144
536	 30.0956
520	 29.6309
504	 29.2128
488	 28.0306
472	 28.1775
456	 26.2398
440	 25.64
424	 27.1817
408	 25.2208
392	 38.6848
376	 43.6108
370	 31.8628

File: C-4040-8_t22.asc
PE IR       SPECTRUM    SPECTRUM    ASCII       PEDS        1.60
  -1
C-AD22~1.ASC
17/03/27
16:13:04.00
17/03/27
16:13:30.00
tln
$C-4040-8_t0022$<tbV0>[-13.0,-10.4,8.0,0.0,27,1,0]
27.028
64

2002,4.07
MIRTGS : RIGHTBACK : INTERNAL 2
MIR : ON : INTERNAL 2
OPTKBR

0.200000
8
8.000000
FILLER
RATIO
SPECTRUM
UNLOCKED 256

DOUBLE
64
COMBINED
1
0
0

0.002000
RATIO

1
0
TRUE
51149
0
LEFT NOT FITTED RIGHT NOT FITTED 0
NONE
NONE
15600
12
4.427000
51148
TRUE
1 0 8 72 0 0 0 0

15798

#HDR
-1
-1
#GR
µM
%T
2.38419e-05
0.0
2.000000
0.002000
12515
8
100.757
44.6678
#DATA
2.000000	 64.3334
2.084000	 64.5627
2.168000	 65.2919
2.252000	 69.0148
2.336000	 64.8301
2.420000	 64.9179
2.504000	 65.2219
2.588000	 65.2897
2.672000	 65.774
2.756000	 65.5334
2.840000	 65.1138
2.924000	 64.9171
3.008000	 65.1988
3.092000	 65.38
3.176000	 65.2167
3.260000	 65.326
3.344000	 65.3821
3.428000	 65.032
3.512000	 65.1783
3.596000	 65.3659
3.680000	 65.3073
3.764000	 65.1782
3.848000	 65.2915
3.932000	 65.3524
4.016000	 65.3689
4.100000	 65.4452
4.184000	 65.3947
4.268000	 65.3828
4.352000	 65.4427
4.436000	 65.3933
4.520000	 65.3205
4.604000	 65.4532
4.688000	 65.4064
4.772000	 65.3247
4.856000	 65.4033
4.940000	 65.3448
5.024000	 65.5567
5.108000	 65.3126
5.192000	 65.3759
5.276000	 65.3587
5.359999	 65.4018
5.444000	 65.3507
5.528000	 65.452
5.612000	 65.4502
5.696000	 65.4644
5.780000	 65.4857
5.864000	 65.5305
5.948000	 65.7317
6.032000	 65.7227
6.116000	 65.5462
6.200000	 65.412
6.284000	 65.2414
6.368000	 65.3446
6.452000	 65.4171
6.536000	 65.5202
6.620000	 65.7177
6.704000	 65.4798
6.788000	 65.4664
6.872000	 65.4005
6.956000	 65.4481
7.040000	 65.3222
7.124000	 65.1274
7.208000	 65.2388
7.292000	 65.1514
7.376000	 65.1154
7.460000	 65.1411
7.544000	 65.2091
7.628000	 65.0523
7.712000	 65.1972
7.796000	 65.0227
7.880000	 65.0629
7.964000	 65.1098
8.048000	 65.0193
8.132000	 65.0977
8.216000	 65.1004
8.300000	 65.1253
8.384000	 65.0491
8.468000	 65.0237
8.552000	 65.0838
8.635999	 65.028
8.719999	 65.097
8.804000	 64.9541
8.888000	 65.0843
8.972000	 65.0666
9.056000	 65.1412
9.140000	 65.097
9.224000	 64.951
9.308000	 64.8434
9.391999	 64.8569
9.475999	 64.5562
9.560000	 64.8932
9.644000	 65.318
9.728000	 65.3766
9.812000	 65.2768
9.896000	 64.8422
9.980000	 65.0795
10.064	64.8419
10.148	65.0934
10.232	65.0955
10.316	64.7645
10.4	64.6682
10.484	64.6281
10.568	64.7625
10.652	64.6867
10.736	64.7666
10.82	64.7514
10.904	64.8044
10.988	64.7322
11.072	64.5079
11.156	64.6657
11.24	64.6909
11.324	64.4416
11.408	64.5727
11.492	64.7362
11.576	64.5347
11.66	64.5788
11.744	64.6039
11.828	64.6817
11.912	64.6162
11.996	64.2557
12.08	64.0734
12.164	64.2964
12.248	64.488
12.332	64.3355
12.416	64.3249
12.5	64.3955
12.584	64.3593
12.668	64.3605
12.752	64.3517
12.836	64.3116
12.92	64.3608
13.004	64.2558
13.088	64.3609
13.172	64.6003
13.256	64.3549
13.34	64.0923
13.424	64.3052
13.508	63.9811
13.592	63.5419
13.676	63.7588
13.76	63.8448
13.844	63.79
13.928	63.9152
14.012	63.8562
14.096	63.5394
14.18	63.3315
14.264	63.4265
14.348	63.6514
14.432	63.744
14.516	63.7325
14.6	63.6291
14.684	63.449
14.768	63.3527
14.852	63.3521
14.936	63.3013
15.02	63.3088
15.104	63.5229
15.188	63.7393
15.272	63.7316
15.356	63.5825
15.44	63.5707
15.524	63.6927
15.608	63.6938
15.692	63.5794
15.776	63.4377
15.86	63.2651
15.944	63.1685
16.028	63.1431
16.112	63.0938
16.196	63.1309
16.28	63.2569
16.364	63.2241
16.448	63.0034
16.532	62.866
16.616	62.9479
16.7	63.1396
16.784	63.2929
16.868	63.3032
16.952	63.1739
17.036	63.0254
17.12	62.9343
17.204	62.8422
17.288	62.6776
17.372	62.5284
17.456	62.5467
17.54	62.6757
17.624	62.7193
17.708	62.6507
17.792	62.6104
17.876	62.6494
17.96	62.6614
18.044	62.5912
18.128	62.5363
18.212	62.6094
18.296	62.7835
18.38	62.8956
18.464	62.7913
18.548	62.4565
18.632	62.0291
18.716	61.7178
18.8	61.6647
18.884	61.8159
18.968	61.9589
19.052	61.9239
19.136	61.7541
19.22	61.6328
19.304	61.67
19.388	61.8099
19.472	61.9314
19.556	61.9582
19.64	61.8758
19.724	61.7127
19.808	61.5638
19.892	61.5796
19.976	61.8434
20.06	62.2444
20.144	62.5309
20.228	62.5301
20.312	62.2823
20.396	61.9844
20.48	61.824
20.564	61.8784
20.648	62.1216
20.732	62.4656
20.816	62.791
20.9	62.9495
20.984	62.8016
21.068	62.2956
21.152	61.5121
21.236	60.6583
21.32	60.0014
21.404	59.7482
21.488	59.9556
21.572	60.5062
21.656	61.1712
21.74	61.7057
21.824	61.9229
21.908	61.746
21.992	61.2269
22.076	60.5382
22.16	59.9441
22.244	59.6998
22.328	59.9213
22.412	60.5052
22.496	61.1267
22.58	61.4342
22.664	61.2267
22.748	60.567
22.832	59.7207
22.916	59.0177
23	58.6555
23.084	58.6553
23.168	58.8902
23.252	59.1952
23.336	59.457
23.42	59.7184
23.504	60.0701
23.588	60.5736
23.672	61.2014
23.756	61.7986
23.84	62.12
23.924	61.9488
24.008	61.2035
24.092	60.0086
24.176	58.7254
24.26	57.7631
24.344	57.4553
24.428	57.9656
24.512	59.3774
24.596	61.6559
24.68	64.402
24.764	66.7467
24.848	67.6534
24.932	66.3208
25.016	62.7025
25.1	57.6382
25.184	52.4088
25.268	48.1442
25.352	45.4491
25.436	44.6851
25.52	46.0488
25.604	49.6236
25.688	55.2728
25.772	62.3652
25.856	69.7316
25.94	75.931
26.024	79.6079
26.108	80.0121
26.192	77.3757
26.276	72.8226
26.36	68.0797
26.444	64.793
26.528	64.0356
26.612	66.0034
26.696	70.3701
26.78	76.6211
26.864	84.3041
26.948	92.8608
27.028	100.757

File: C-4040-8_t22_cm-1.asc
PE IR       SPECTRUM    SPECTRUM    ASCII       PEDS        1.60
  -1
C-9A64~1.ASC
17/03/27
16:13:04.00
17/03/27
16:13:04.00
tln
$C-4040-8_t0022$<tbV0>[-13.0,-10.4,8.0,0.0,27,1,0]
370
64

2002,4.07
MIRTGS : RIGHTBACK : INTERNAL 2
MIR : ON : INTERNAL 2
OPTKBR

0.200000
8
8.000000
FILLER
RATIO
SPECTRUM
UNLOCKED 256

DOUBLE
64
COMBINED
1
0
0

1.000000
RATIO

1
0
TRUE
51149
0
LEFT NOT FITTED RIGHT NOT FITTED 0
NONE
NONE
15600
12
4.427000
51148
TRUE
1 0 8 72 0 0 0 0

15798

#HDR
-1
-1
#GR
CM-1
%T
2.38419e-05
0.0
5000
-1.000000
4631
8
100.757
44.7296
#DATA
5000	64.3334
4984	65.8259
4968	64.7513
4952	64.4849
4936	64.6617
4920	64.5087
4904	65.6918
4888	65.489
4872	64.7717
4856	65.0486
4840	65.7924
4824	64.7726
4808	64.8093
4792	64.832
4776	65.1216
4760	64.5867
4744	65.4101
4728	64.7533
4712	64.8677
4696	64.8281
4680	65.0437
4664	64.7529
4648	64.8142
4632	65.1657
4616	65.3992
4600	65.1213
4584	64.7261
4568	64.8363
4552	64.7305
4536	64.5786
4520	65.5986
4504	65.2553
4488	64.5741
4472	65.4768
4456	67.069
4440	68.5175
4424	63.959
4408	64.5276
4392	62.5267
4376	62.7638
4360	68.2275
4344	65.5824
4328	65.4454
4312	64.7939
4296	64.9544
4280	64.8397
4264	64.5441
4248	65.0391
4232	65.2822
4216	65.2184
4200	65.0442
4184	64.2618
4168	64.7981
4152	64.7897
4136	64.8491
4120	65.218
4104	64.8428
4088	65.1915
4072	65.0424
4056	65.2153
4040	65.2419
4024	65.5432
4008	65.3251
3992	65.218
3976	64.5937
3960	65.3193
3944	65.1542
3928	65.1503
3912	65.246
3896	65.3804
3880	65.1547
3864	65.2896
3848	65.5161
3832	65.2124
3816	65.3111
3800	65.5336
3784	65.195
3768	65.3674
3752	65.7363
3736	65.8241
3720	65.3186
3704	65.4588
3688	65.5025
3672	65.7569
3656	65.3072
3640	65.1903
3624	65.3899
3608	65.2529
3592	65.4354
3576	65.271
3560	65.1716
3544	65.2304
3528	65.3885
3512	65.1216
3496	65.2292
3480	65.4667
3464	65.5202
3448	65.3739
3432	65.2127
3416	65.1655
3400	65.2282
3384	65.3249
3368	65.2147
3352	65.2751
3336	65.2736
3320	65.1652
3304	65.1719
3288	65.2632
3272	65.3166
3256	65.0108
3240	65.2803
3224	65.1946
3208	65.1992
3192	65.0671
3176	65.2553
3160	65.1636
3144	65.2018
3128	65.1432
3112	65.421
3096	65.0827
3080	65.3705
3064	65.3042
3048	65.2746
3032	65.3432
3016	65.366
3000	65.292
2984	65.1795
2968	65.0834
2952	65.0986
2936	65.2332
2920	65.0085
2904	65.0118
2888	65.2522
2872	65.1238
2856	65.1209
2840	65.399
2824	65.2841
2808	65.4657
2792	65.2046
2776	65.2916
2760	65.3149
2744	65.3662
2728	65.5277
2712	65.2138
2696	65.4135
2680	65.2798
2664	65.2808
2648	65.3792
2632	65.2569
2616	65.2584
2600	65.2952
2584	65.238
2568	65.3013
2552	65.409
2536	65.2034
2520	65.4149
2504	65.1348
2488	65.3437
2472	65.2773
2456	65.285
2440	65.4374
2424	65.4004
2408	65.0913
2392	65.406
2376	65.382
2360	65.5072
2344	65.384
2328	65.4751
2312	65.467
2296	65.3925
2280	65.3868
2264	65.4225
2248	65.4296
2232	65.3864
2216	65.3592
2200	65.3574
2184	65.4008
2168	65.4051
2152	65.362
2136	65.4807
2120	65.5236
2104	65.3455
2088	65.4299
2072	65.2027
2056	65.3543
2040	65.3371
2024	65.3396
2008	65.4677
1992	65.5851
1976	65.3389
1960	65.3485
1944	65.3636
1928	65.3445
1912	65.4183
1896	65.3444
1880	65.3537
1864	65.4334
1848	65.4003
1832	65.4683
1816	65.4673
1800	65.3435
1784	65.4659
1768	65.6156
1752	65.4403
1736	65.5099
1720	65.4065
1704	65.6023
1688	65.626
1672	65.6048
1656	65.8885
1640	65.4999
1624	65.4509
1608	65.3355
1592	65.241
1576	65.4695
1560	65.7848
1544	65.6809
1528	65.5645
1512	65.6518
1496	65.5233
1480	65.2714
1464	65.3067
1448	65.3022
1432	65.4082
1416	65.2421
1400	65.1995
1384	65.1821
1368	65.1721
1352	65.1403
1336	65.1896
1320	65.2222
1304	65.1345
1288	65.127
1272	65.0569
1256	65.106
1240	65.0055
1224	65.0799
1208	65.0892
1192	65.0529
1176	64.9579
1160	65.0975
1144	65.0345
1128	65.0329
1112	65.0246
1096	65.1637
1080	64.8776
1064	64.8463
1048	64.7986
1032	65.3821
1016	65.1785
1000	65.1098
984	 65.0527
968	 64.6775
952	 64.5973
936	 64.6412
920	 64.7155
904	 64.5145
888	 64.6201
872	 64.7182
856	 64.6088
840	 64.6405
824	 64.1879
808	 64.2926
792	 64.3502
776	 64.3513
760	 64.584
744	 64.3095
728	 63.8582
712	 63.7437
696	 63.6881
680	 63.4103
664	 63.3913
648	 63.5626
632	 63.3406
616	 63.1897
600	 63.0607
584	 62.9313
568	 62.7228
552	 62.5378
536	 61.9161
520	 61.6283
504	 61.5422
488	 61.8183
472	 61.1549
456	 61.6395
440	 60.7598
424	 60.5525
408	 59.3291
392	 45.7754
376	 65.4256
370	 100.757

File: C-4040-8_t23.asc
PE IR       SPECTRUM    SPECTRUM    ASCII       PEDS        1.60
  -1
C-AD26~1.ASC
17/03/27
16:24:49.00
17/03/27
16:25:15.00
tln
$C-4040-8_t0023$<tbV0>[13.0,-7.8,8.0,0.0,27,1,0]
27.028
64

2002,4.07
MIRTGS : RIGHTBACK : INTERNAL 2
MIR : ON : INTERNAL 2
OPTKBR

0.200000
8
8.000000
FILLER
RATIO
SPECTRUM
UNLOCKED 256

DOUBLE
64
COMBINED
1
0
0

0.002000
RATIO

1
0
TRUE
51149
0
LEFT NOT FITTED RIGHT NOT FITTED 0
NONE
NONE
15600
12
4.427000
51148
TRUE
1 0 8 72 0 0 0 0

15798

#HDR
-1
-1
#GR
µM
%T
2.38419e-05
0.0
2.000000
0.002000
12515
8
86.7836
39.1683
#DATA
2.000000	 64.341
2.084000	 64.7404
2.168000	 65.0187
2.252000	 63.5687
2.336000	 64.4077
2.420000	 64.8209
2.504000	 64.7761
2.588000	 64.9753
2.672000	 64.836
2.756000	 65.314
2.840000	 65.1028
2.924000	 64.8478
3.008000	 64.9883
3.092000	 65.2051
3.176000	 65.0059
3.260000	 65.1604
3.344000	 64.9047
3.428000	 64.6753
3.512000	 64.9077
3.596000	 65.108
3.680000	 65.0697
3.764000	 64.9665
3.848000	 65.0241
3.932000	 65.1856
4.016000	 65.2345
4.100000	 65.0855
4.184000	 65.123
4.268000	 65.238
4.352000	 65.2494
4.436000	 65.1715
4.520000	 65.0913
4.604000	 65.2314
4.688000	 65.2737
4.772000	 65.1458
4.856000	 65.4448
4.940000	 65.1554
5.024000	 65.1899
5.108000	 65.2485
5.192000	 65.2997
5.276000	 65.0837
5.359999	 65.152
5.444000	 65.1322
5.528000	 65.1742
5.612000	 65.1784
5.696000	 65.1748
5.780000	 64.9835
5.864000	 65.1263
5.948000	 65.0953
6.032000	 65.065
6.116000	 65.0199
6.200000	 64.9882
6.284000	 65.1078
6.368000	 64.9103
6.452000	 64.8802
6.536000	 65.0428
6.620000	 65.0307
6.704000	 65.0373
6.788000	 65.0472
6.872000	 64.965
6.956000	 64.9339
7.040000	 64.8989
7.124000	 65.0094
7.208000	 65.0671
7.292000	 64.9049
7.376000	 65.0067
7.460000	 64.8663
7.544000	 64.963
7.628000	 64.8105
7.712000	 64.8993
7.796000	 64.8666
7.880000	 64.8954
7.964000	 64.8926
8.048000	 64.9199
8.132000	 64.7994
8.216000	 64.9813
8.300000	 64.6879
8.384000	 64.7132
8.468000	 64.7472
8.552000	 64.8267
8.635999	 64.8274
8.719999	 64.8038
8.804000	 64.8156
8.888000	 64.635
8.972000	 64.6845
9.056000	 64.9032
9.140000	 64.7987
9.224000	 64.8883
9.308000	 64.3214
9.391999	 64.5938
9.475999	 64.7474
9.560000	 64.8138
9.644000	 64.3695
9.728000	 64.6392
9.812000	 65.0623
9.896000	 65.4277
9.980000	 64.4764
10.064	64.3598
10.148	65.1134
10.232	64.6552
10.316	64.541
10.4	64.2937
10.484	64.7004
10.568	64.5687
10.652	64.4409
10.736	64.6025
10.82	64.3485
10.904	64.5773
10.988	64.4329
11.072	64.4091
11.156	64.5301
11.24	64.4845
11.324	64.4661
11.408	64.5313
11.492	64.3127
11.576	64.5054
11.66	64.4371
11.744	64.373
11.828	64.4058
11.912	64.1634
11.996	64.2145
12.08	64.135
12.164	64.0583
12.248	63.9265
12.332	63.7456
12.416	63.7408
12.5	63.7981
12.584	63.8599
12.668	63.8013
12.752	63.8305
12.836	63.9631
12.92	63.9001
13.004	63.8147
13.088	63.9655
13.172	64.1261
13.256	63.8638
13.34	63.5881
13.424	63.5049
13.508	63.4528
13.592	63.3658
13.676	63.3249
13.76	63.3125
13.844	63.3608
13.928	63.4365
14.012	63.4273
14.096	63.3927
14.18	63.4057
14.264	63.428
14.348	63.2309
14.432	62.879
14.516	62.8034
14.6	62.9258
14.684	62.8331
14.768	62.6108
14.852	62.6177
14.936	62.9255
15.02	63.1852
15.104	63.1203
15.188	62.9174
15.272	62.7142
15.356	62.4734
15.44	62.3557
15.524	62.4248
15.608	62.5377
15.692	62.6689
15.776	62.8316
15.86	62.9522
15.944	62.9642
16.028	62.8452
16.112	62.5903
16.196	62.2734
16.28	62.0641
16.364	62.0138
16.448	61.9815
16.532	61.9517
16.616	62.064
16.7	62.2903
16.784	62.4477
16.868	62.4509
16.952	62.358
17.036	62.2674
17.12	62.2505
17.204	62.3055
17.288	62.3692
17.372	62.3551
17.456	62.2172
17.54	62.0199
17.624	61.8872
17.708	61.8798
17.792	61.9826
17.876	62.1484
17.96	62.2945
18.044	62.3235
18.128	62.2208
18.212	62.0748
18.296	61.9466
18.38	61.7741
18.464	61.4895
18.548	61.1576
18.632	60.9102
18.716	60.8042
18.8	60.797
18.884	60.8258
18.968	60.873
19.052	60.9654
19.136	61.1124
19.22	61.2506
19.304	61.2738
19.388	61.1516
19.472	60.9954
19.556	60.9562
19.64	61.0579
19.724	61.1779
19.808	61.1897
19.892	61.0764
19.976	60.9055
20.06	60.7255
20.144	60.525
20.228	60.2881
20.312	60.0634
20.396	59.9492
20.48	60.0208
20.564	60.2556
20.648	60.5431
20.732	60.7465
20.816	60.7766
20.9	60.6344
20.984	60.3993
21.068	60.1767
21.152	60.0203
21.236	59.9153
21.32	59.812
21.404	59.6805
21.488	59.5041
21.572	59.2592
21.656	58.9138
21.74	58.4551
21.824	57.9245
21.908	57.4139
21.992	57.0287
22.076	56.8531
22.16	56.922
22.244	57.2329
22.328	57.7385
22.412	58.3641
22.496	59.0127
22.58	59.6025
22.664	60.0954
22.748	60.5004
22.832	60.8351
22.916	61.0877
23	61.1997
23.084	61.0747
23.168	60.6504
23.252	59.9592
23.336	59.1033
23.42	58.1975
23.504	57.3291
23.588	56.5164
23.672	55.7444
23.756	55.0277
23.84	54.3532
23.924	53.7622
24.008	53.339
24.092	53.1591
24.176	53.2538
24.26	53.5927
24.344	54.0261
24.428	54.2699
24.512	53.9029
24.596	52.5388
24.68	50.0633
24.764	46.8156
24.848	43.4551
24.932	40.7658
25.016	39.337
25.1	39.3965
25.184	41.014
25.268	44.2498
25.352	49.2763
25.436	55.9918
25.52	63.8924
25.604	72.1722
25.688	79.5888
25.772	84.7824
25.856	86.7749
25.94	85.4122
26.024	81.5567
26.108	76.8634
26.192	72.7125
26.276	69.6492
26.36	66.9744
26.444	64.0144
26.528	60.6674
26.612	58.0312
26.696	56.9852
26.78	57.2733
26.864	57.2189
26.948	55.2882
27.028	52.574

File: C-4040-8_t23_cm-1.asc
PE IR       SPECTRUM    SPECTRUM    ASCII       PEDS        1.60
  -1
C-9AE1~1.ASC
17/03/27
16:24:49.00
17/03/27
16:24:49.00
tln
$C-4040-8_t0023$<tbV0>[13.0,-7.8,8.0,0.0,27,1,0]
370
64

2002,4.07
MIRTGS : RIGHTBACK : INTERNAL 2
MIR : ON : INTERNAL 2
OPTKBR

0.200000
8
8.000000
FILLER
RATIO
SPECTRUM
UNLOCKED 256

DOUBLE
64
COMBINED
1
0
0

1.000000
RATIO

1
0
TRUE
51149
0
LEFT NOT FITTED RIGHT NOT FITTED 0
NONE
NONE
15600
12
4.427000
51148
TRUE
1 0 8 72 0 0 0 0

15798

#HDR
-1
-1
#GR
CM-1
%T
2.38419e-05
0.0
5000
-1.000000
4631
8
86.6609
39.1752
#DATA
5000	64.341
4984	64.2367
4968	64.8719
4952	65.0957
4936	64.4994
4920	64.1482
4904	64.8216
4888	65.3621
4872	64.0009
4856	65.2509
4840	64.6986
4824	64.8334
4808	64.4606
4792	65.045
4776	64.6345
4760	64.6914
4744	64.8717
4728	64.8326
4712	64.9841
4696	64.8484
4680	64.9036
4664	64.7839
4648	64.6751
4632	64.739
4616	64.7678
4600	64.9297
4584	64.5011
4568	64.3806
4552	64.8475
4536	64.411
4520	64.5658
4504	64.3107
4488	64.8657
4472	63.9351
4456	64.3101
4440	63.6363
4424	63.5068
4408	63.4385
4392	65.7315
4376	81.7018
4360	68.7919
4344	65.0313
4328	63.8589
4312	64.0331
4296	64.2808
4280	64.4619
4264	64.2357
4248	64.2607
4232	64.4883
4216	64.4759
4200	64.3667
4184	63.6153
4168	65.3237
4152	64.7164
4136	64.9786
4120	64.882
4104	64.617
4088	65.0222
4072	64.9776
4056	65.1554
4040	65.2956
4024	64.8104
4008	64.91
3992	64.8126
3976	64.9068
3960	64.9099
3944	64.763
3928	64.8937
3912	64.6177
3896	64.7838
3880	65.0613
3864	64.9755
3848	65.0838
3832	64.7015
3816	64.6664
3800	64.8508
3784	64.7316
3768	64.8743
3752	64.8334
3736	64.8809
3720	65.0075
3704	64.9807
3688	65.0323
3672	65.0209
3656	64.9448
3640	64.9971
3624	65.214
3608	65.0465
3592	65.1056
3576	65.1708
3560	65.1618
3544	65.0375
3528	65.0684
3512	65.1438
3496	64.9191
3480	65.0799
3464	64.9967
3448	65.0687
3432	65.1591
3416	64.8203
3400	64.9085
3384	64.8833
3368	65.0341
3352	65.1423
3336	64.8886
3320	65.2867
3304	65.0586
3288	64.9121
3272	65.1471
3256	65.0346
3240	65.1497
3224	65.0581
3208	64.9845
3192	65.1005
3176	65.0147
3160	65.053
3144	64.9183
3128	64.9126
3112	65.1738
3096	65.0697
3080	65.1962
3064	65.131
3048	64.9772
3032	65.1014
3016	65.0705
3000	65.0084
2984	64.8676
2968	65.0376
2952	64.9963
2936	64.8142
2920	64.6423
2904	64.992
2888	64.8496
2872	65.012
2856	64.708
2840	65.1115
2824	65.0141
2808	65.1133
2792	65.1288
2776	65.0571
2760	65.1811
2744	65.1252
2728	64.9057
2712	64.9963
2696	65.2047
2680	65.1422
2664	65.1394
2648	65.0519
2632	65.2692
2616	65.0223
2600	65.0374
2584	64.9236
2568	65.1115
2552	65.1155
2536	65.1525
2520	65.0603
2504	65.1419
2488	65.2406
2472	65.0911
2456	64.9778
2440	65.1085
2424	65.3994
2408	64.9443
2392	65.099
2376	65.1666
2360	65.2984
2344	65.2552
2328	65.1734
2312	65.1958
2296	65.2569
2280	65.1889
2264	65.1398
2248	65.1174
2232	65.1378
2216	65.0749
2200	65.1703
2184	65.2654
2168	65.2577
2152	64.9872
2136	65.2378
2120	65.301
2104	65.1797
2088	65.1386
2072	65.0362
2056	65.3237
2040	65.08
2024	65.153
2008	65.2335
1992	65.2456
1976	65.2568
1960	65.2395
1944	65.2494
1928	65.3084
1912	65.1287
1896	65.0799
1880	65.2818
1864	65.1671
1848	65.2454
1832	65.1519
1816	65.2291
1800	65.1008
1784	65.2121
1768	65.0951
1752	65.108
1736	64.9363
1720	65.065
1704	65.1325
1688	65.2204
1672	65.1178
1656	65.032
1640	65.0001
1624	65.0685
1608	65.0187
1592	65.1002
1576	65.0124
1560	64.9895
1544	64.9021
1528	65.0155
1512	65.0054
1496	65.0512
1480	65.1512
1464	64.8089
1448	65.1494
1432	64.9442
1416	64.9644
1400	65.0034
1384	65.0643
1368	64.8974
1352	64.9453
1336	64.8877
1320	64.9494
1304	64.9838
1288	64.9203
1272	64.905
1256	64.8921
1240	64.9221
1224	64.8466
1208	64.7468
1192	64.7092
1176	64.8238
1160	64.7792
1144	64.7553
1128	64.6468
1112	64.6584
1096	64.8324
1080	64.6389
1064	64.6291
1048	64.8859
1032	64.5041
1016	65.4295
1000	64.4356
984	 65.1717
968	 64.5057
952	 64.7504
936	 64.4906
920	 64.4585
904	 64.3986
888	 64.4336
872	 64.3535
856	 64.3673
840	 64.1749
824	 64.0622
808	 63.7353
792	 63.8364
776	 63.9482
760	 64.1268
744	 63.4966
728	 63.3136
712	 63.4117
696	 63.1462
680	 62.7727
664	 63.1914
648	 62.3573
632	 62.9096
616	 62.157
600	 62.1986
584	 62.2515
568	 61.9062
552	 62.2407
536	 60.8648
520	 61.2618
504	 61.1567
488	 60.0456
472	 59.9737
456	 57.2976
440	 60.4075
424	 56.5457
408	 53.9245
392	 62.937
376	 58.4136
370	 52.574