Folder: Masteroppgave/Bakgrunnsmateriale/MATLAB/FTIR/ftir_data/subBb/Mapping_36 (part 3)

File: C-4040-8_t02_cm-1.asc
PE IR       SPECTRUM    SPECTRUM    ASCII       PEDS        1.60
  -1
C-9964~1.ASC
17/05/02
10:59:27.00
17/05/02
10:59:27.00
tln
$C-4040-8_t0002$<tbV0>[7.5,-13.0,8.0,0.0,22,1,0]
370
64

2002,4.07
MIRTGS : RIGHTBACK : INTERNAL 2
MIR : ON : INTERNAL 2
OPTKBR

0.200000
8
8.000000
FILLER
RATIO
SPECTRUM
UNLOCKED 256

DOUBLE
64
COMBINED
1
0
0

1.000000
RATIO

1
0
TRUE
51149
0
LEFT NOT FITTED RIGHT NOT FITTED 0
NONE
NONE
15600
12
4.427000
51148
TRUE
1 0 8 72 0 0 0 0

15798

#HDR
-1
-1
#GR
CM-1

2.38419e-05
0.0
7800
-1.000000
7431
8
71.0796
12.3695
#DATA
7800	64.4936
7775	61.2447
7750	66.2862
7725	58.0177
7700	68.5508
7675	64.6153
7650	62.667
7625	59.9964
7600	63.6097
7575	65.4066
7550	65.7459
7525	59.042
7500	59.7596
7475	63.3963
7450	64.0152
7425	61.5324
7400	66.6135
7375	59.2186
7350	61.0804
7325	64.7956
7300	61.4738
7275	65.5546
7250	64.3266
7225	63.716
7200	63.1388
7175	62.3848
7150	60.8978
7125	61.1041
7100	62.9385
7075	61.299
7050	62.8453
7025	63.3363
7000	64.6175
6975	62.1675
6950	63.9403
6925	64.7878
6900	62.7341
6875	64.6548
6850	63.236
6825	63.185
6800	63.7142
6775	61.7801
6750	61.2832
6725	64.4488
6700	65.079
6675	63.2511
6650	63.7785
6625	64.1244
6600	63.1348
6575	62.7056
6550	62.5123
6525	64.2583
6500	63.9775
6475	64.1994
6450	64.201
6425	62.5978
6400	63.7375
6375	64.5305
6350	64.219
6325	62.5138
6300	61.0466
6275	63.2762
6250	63.9029
6225	63.6641
6200	62.9622
6175	63.208
6150	63.2427
6125	63.244
6100	64.1789
6075	63.4425
6050	63.971
6025	63.6104
6000	63.0439
5975	64.3605
5950	63.011
5925	62.3528
5900	63.438
5875	63.688
5850	63.547
5825	63.4093
5800	64.0402
5775	64.0077
5750	62.8359
5725	63.1254
5700	63.2153
5675	63.0159
5650	63.7059
5625	63.4031
5600	63.7449
5575	63.2594
5550	63.9692
5525	63.3563
5500	64.2891
5475	63.3396
5450	63.8508
5425	63.1635
5400	62.7832
5375	63.8219
5350	63.0002
5325	63.8277
5300	62.1802
5275	63.135
5250	60.9626
5225	63.0344
5200	62.5302
5175	63.757
5150	62.5083
5125	63.4151
5100	63.051
5075	63.2479
5050	63.268
5025	63.3639
5000	63.7048
4975	63.4536
4950	63.3786
4925	63.0531
4900	63.1952
4875	62.8748
4850	62.9915
4825	63.2511
4800	63.2972
4775	63.2774
4750	63.0098
4725	62.7041
4700	63.5512
4675	63.1064
4650	62.8401
4625	63.1604
4600	62.8363
4575	62.7712
4550	62.986
4525	62.6976
4500	63.0234
4475	62.4976
4450	63.1738
4425	62.826
4400	63.2082
4375	64.0552
4350	62.9871
4325	62.2128
4300	61.868
4275	62.3437
4250	62.5996
4225	62.1087
4200	62.0638
4175	62.0147
4150	62.1146
4125	62.2249
4100	62.1128
4075	62.049
4050	61.8259
4025	61.8392
4000	61.8059
3975	61.8855
3950	61.7263
3925	61.3101
3900	61.3492
3875	61.5315
3850	61.1742
3825	60.849
3800	61.116
3775	60.9123
3750	60.9455
3725	60.7378
3700	60.5339
3675	60.6437
3650	60.4367
3625	60.13
3600	60.2794
3575	60.1042
3550	60.0276
3525	59.6886
3500	59.6197
3475	59.3906
3450	59.1259
3425	59.2496
3400	58.8763
3375	58.7061
3350	58.7525
3325	58.23
3300	58.0134
3275	57.9749
3250	57.937
3225	57.5945
3200	57.4847
3175	57.2577
3150	57.2509
3125	56.877
3100	56.5713
3075	56.5544
3050	56.2943
3025	56.0398
3000	55.9403
2975	55.6023
2950	55.2755
2925	54.9535
2900	54.7397
2875	54.6219
2850	54.4102
2825	54.2922
2800	54.1806
2775	53.8107
2750	53.5411
2725	53.2249
2700	52.9829
2675	52.6549
2650	52.3364
2625	52.15
2600	51.9182
2575	51.605
2550	51.3496
2525	51.0321
2500	50.7256
2475	50.5754
2450	50.136
2425	49.8984
2400	49.5901
2375	49.259
2350	48.9425
2325	48.7628
2300	48.4084
2275	47.9554
2250	47.767
2225	47.4654
2200	47.1105
2175	46.778
2150	46.618
2125	46.0753
2100	45.8608
2075	45.477
2050	45.1852
2025	44.7753
2000	44.5414
1975	44.1322
1950	43.8653
1925	43.543
1900	43.0752
1875	42.8746
1850	42.5049
1825	42.2978
1800	41.9653
1775	41.5692
1750	41.0791
1725	40.7304
1700	40.622
1675	40.2001
1650	39.935
1625	39.4626
1600	39.1419
1575	38.7099
1550	38.4882
1525	38.1004
1500	37.8348
1475	37.45
1450	37.054
1425	36.7079
1400	36.3485
1375	36.1049
1350	35.8281
1325	35.4683
1300	35.1264
1275	34.7924
1250	34.5075
1225	33.967
1200	33.7729
1175	33.4695
1150	33.1817
1125	32.7834
1100	32.4225
1075	32.2252
1050	31.775
1025	31.2797
1000	31.0449
975	 30.7623
950	 29.9436
925	 29.8157
900	 29.1497
875	 29.1366
850	 28.4323
825	 27.8747
800	 27.9108
775	 26.9501
750	 26.4857
725	 25.7486
700	 25.1165
675	 24.4163
650	 23.8314
625	 23.0868
600	 22.5177
575	 21.3808
550	 20.4419
525	 19.4504
500	 18.1101
475	 16.1836
450	 17.5441
425	 14.9775
400	 17.3997
375	 30.8066
370	 40.1771

File: C-4040-8_t03.asc
PE IR       SPECTRUM    SPECTRUM    ASCII       PEDS        1.60
  -1
C-A526~1.ASC
17/05/02
11:04:08.00
17/05/02
11:04:34.00
tln
$C-4040-8_t0003$<tbV0>[2.5,-13.0,8.0,0.0,22,1,0]
27.028
64

2002,4.07
MIRTGS : RIGHTBACK : INTERNAL 2
MIR : ON : INTERNAL 2
OPTKBR

0.200000
8
8.000000
FILLER
RATIO
SPECTRUM
UNLOCKED 256

DOUBLE
64
COMBINED
1
0
0

0.002000
RATIO

1
0
TRUE
51149
0
LEFT NOT FITTED RIGHT NOT FITTED 0
NONE
NONE
15600
12
4.427000
51148
TRUE
1 0 8 72 0 0 0 0

15798

#HDR
-1
-1
#GR
µM
%T
2.38419e-05
0.0
1.282000
0.002000
12874
8
70.6359
25.5916
#DATA
1.282000	 70.6359
1.368000	 63.6325
1.454000	 62.3417
1.540000	 65.3072
1.626000	 63.3316
1.712000	 64.0613
1.798000	 64.2957
1.884000	 63.739
1.970000	 63.5995
2.056000	 63.7095
2.142000	 63.7852
2.228000	 63.6013
2.314000	 63.3806
2.400000	 63.649
2.486000	 63.437
2.572000	 63.219
2.658000	 63.0716
2.744000	 62.623
2.830000	 62.337
2.916000	 62.1194
3.002000	 61.8753
3.088000	 61.3729
3.174000	 61.0148
3.260000	 60.8729
3.346000	 60.4381
3.432000	 60.0015
3.518000	 59.6853
3.604000	 59.5606
3.690000	 59.0588
3.776000	 58.6516
3.862000	 58.3081
3.948000	 58.0633
4.034000	 57.729
4.120000	 57.4343
4.206000	 57.1129
4.292000	 56.8225
4.378000	 56.5055
4.464000	 56.2648
4.550000	 55.9281
4.636000	 55.564
4.722000	 55.3495
4.808000	 55.0838
4.894000	 54.8435
4.980000	 54.6463
5.066000	 54.3392
5.152000	 54.0662
5.238000	 53.9186
5.324000	 53.6158
5.410000	 53.3986
5.496000	 53.2388
5.582000	 53.0152
5.668000	 52.8358
5.754000	 52.4045
5.840000	 52.4756
5.926000	 52.1507
6.012000	 51.9791
6.098000	 51.8499
6.184000	 51.5557
6.270000	 51.345
6.356000	 51.1429
6.442000	 51.0537
6.528000	 50.9559
6.614000	 50.7324
6.700000	 50.4863
6.786000	 50.4052
6.872000	 50.2877
6.958000	 50.0185
7.044000	 50.0534
7.130000	 49.7578
7.216000	 49.7147
7.302000	 49.5711
7.388000	 49.516
7.474000	 49.4873
7.560000	 49.1678
7.646000	 49.0385
7.732000	 48.9915
7.818000	 48.6912
7.904000	 48.7375
7.990000	 48.5109
8.076000	 48.517
8.161999	 48.3409
8.248000	 48.3705
8.334000	 48.1024
8.420000	 47.936
8.506000	 47.9034
8.592000	 47.8518
8.678000	 47.6553
8.763999	 47.5419
8.850000	 47.38
8.936000	 47.302
9.022000	 47.2073
9.108000	 47.1433
9.193999	 46.949
9.280000	 46.8259
9.366000	 46.7697
9.452000	 46.88
9.538000	 46.7882
9.624000	 46.713
9.710000	 46.7008
9.795999	 46.5715
9.882000	 46.3121
9.968000	 46.2048
10.054	46.3293
10.14	46.0419
10.226	45.874
10.312	45.6777
10.398	45.6709
10.484	45.5974
10.57	45.3734
10.656	45.6407
10.742	45.681
10.828	45.323
10.914	45.4214
11	45.498
11.086	45.5289
11.172	45.2218
11.258	44.9775
11.344	45.1384
11.43	44.9233
11.516	44.3967
11.602	44.113
11.688	44.2111
11.774	44.3455
11.86	43.8207
11.946	44.1129
12.032	44.1657
12.118	44.0207
12.204	44.117
12.29	44.0238
12.376	43.9397
12.462	43.8798
12.548	43.6397
12.634	43.2706
12.72	43.3403
12.806	43.5049
12.892	43.4313
12.978	43.2432
13.064	43.3193
13.15	43.2761
13.236	42.9946
13.322	42.9392
13.408	42.9419
13.494	42.8596
13.58	42.7693
13.666	42.6462
13.752	42.5429
13.838	42.5455
13.924	42.5555
14.01	42.4411
14.096	42.1798
14.182	41.8819
14.268	41.8264
14.354	41.8227
14.44	41.6291
14.526	41.4533
14.612	41.3835
14.698	41.3455
14.784	41.3545
14.87	41.3733
14.956	41.2622
15.042	41.05
15.128	40.8479
15.214	40.7348
15.3	40.7599
15.386	40.7806
15.472	40.7325
15.558	40.7151
15.644	40.7914
15.73	40.9191
15.816	40.8972
15.902	40.6734
15.988	40.4398
16.074	40.2642
16.16	40.1199
16.246	40.0583
16.332	40.094
16.418	40.1894
16.504	40.2485
16.59	40.1272
16.676	39.889
16.762	39.7613
16.848	39.7581
16.934	39.6994
17.02	39.5246
17.106	39.2982
17.192	39.0897
17.278	39.0052
17.364	39.086
17.45	39.1478
17.536	38.9987
17.622	38.7542
17.708	38.6653
17.794	38.7484
17.88	38.8075
17.966	38.7412
18.052	38.6208
18.138	38.5177
18.224	38.4035
18.31	38.2302
18.396	38.011
18.482	37.7972
18.568	37.634
18.654	37.5597
18.74	37.6022
18.826	37.7391
18.912	37.878
18.998	37.9084
19.084	37.7753
19.17	37.5098
19.256	37.2094
19.342	36.9858
19.428	36.8931
19.514	36.8785
19.6	36.8139
19.686	36.6208
19.772	36.3576
19.858	36.1609
19.944	36.1072
20.03	36.1539
20.116	36.1997
20.202	36.1717
20.288	36.05
20.374	35.8448
20.46	35.5895
20.546	35.3368
20.632	35.1354
20.718	34.9973
20.804	34.902
20.89	34.8341
20.976	34.7943
21.062	34.7777
21.148	34.7587
21.234	34.7168
21.32	34.682
21.406	34.7278
21.492	34.8974
21.578	35.1231
21.664	35.2375
21.75	35.0831
21.836	34.6446
21.922	34.0916
22.008	33.6818
22.094	33.5883
22.18	33.8049
22.266	34.1654
22.352	34.4479
22.438	34.5094
22.524	34.3266
22.61	33.981
22.696	33.5939
22.782	33.2524
22.868	32.98
22.954	32.7376
23.04	32.4703
23.126	32.1448
23.212	31.7817
23.298	31.4456
23.384	31.2209
23.47	31.1479
23.556	31.1912
23.642	31.2514
23.728	31.2142
23.814	30.9965
23.9	30.5947
23.986	30.1035
24.072	29.6497
24.158	29.329
24.244	29.1509
24.33	29.0411
24.416	28.9055
24.502	28.6882
24.588	28.4454
24.674	28.302
24.76	28.3465
24.846	28.5792
24.932	28.8284
25.018	28.8129
25.104	28.3458
25.19	27.4209
25.276	26.3266
25.362	25.6396
25.448	25.8139
25.534	26.9791
25.62	28.9232
25.706	31.1692
25.792	33.0827
25.878	34.1085
25.964	34.0927
26.05	33.3407
26.136	32.4455
26.222	32.0946
26.308	32.7719
26.394	34.6247
26.48	37.645
26.566	41.678
26.652	46.5068
26.738	51.5723
26.824	56.4065
26.91	60.723
26.996	65.614
27.028	67.1411

File: C-4040-8_t03_cm-1.asc
PE IR       SPECTRUM    SPECTRUM    ASCII       PEDS        1.60
  -1
C-99E1~1.ASC
17/05/02
11:04:08.00
17/05/02
11:04:08.00
tln
$C-4040-8_t0003$<tbV0>[2.5,-13.0,8.0,0.0,22,1,0]
370
64

2002,4.07
MIRTGS : RIGHTBACK : INTERNAL 2
MIR : ON : INTERNAL 2
OPTKBR

0.200000
8
8.000000
FILLER
RATIO
SPECTRUM
UNLOCKED 256

DOUBLE
64
COMBINED
1
0
0

1.000000
RATIO

1
0
TRUE
51149
0
LEFT NOT FITTED RIGHT NOT FITTED 0
NONE
NONE
15600
12
4.427000
51148
TRUE
1 0 8 72 0 0 0 0

15798

#HDR
-1
-1
#GR
CM-1
%T
2.38419e-05
0.0
7800
-1.000000
7431
8
73.852
25.5955
#DATA
7800	70.6359
7775	67.1017
7750	61.8
7725	58.4965
7700	68.4544
7675	73.4901
7650	66.082
7625	61.3874
7600	63.4419
7575	58.9238
7550	66.0361
7525	63.8541
7500	59.3792
7475	60.8512
7450	67.0504
7425	63.3588
7400	66.7316
7375	62.7255
7350	63.0626
7325	66.8302
7300	61.2245
7275	64.6738
7250	63.0513
7225	66.8206
7200	63.8049
7175	67.434
7150	62.2804
7125	63.9346
7100	65.1506
7075	63.1456
7050	62.7391
7025	65.8491
7000	62.7847
6975	65.6886
6950	63.2663
6925	62.9407
6900	63.3167
6875	62.5765
6850	64.7954
6825	63.2856
6800	61.3071
6775	63.7211
6750	63.188
6725	63.2362
6700	64.0648
6675	62.4555
6650	63.8808
6625	63.735
6600	62.8171
6575	62.3211
6550	64.3737
6525	63.7421
6500	63.7573
6475	62.6064
6450	63.2395
6425	64.268
6400	62.5062
6375	63.4888
6350	62.1916
6325	63.4806
6300	63.7912
6275	65.522
6250	63.8674
6225	63.5935
6200	62.8379
6175	63.4382
6150	63.3324
6125	63.1548
6100	64.1307
6075	63.3095
6050	62.9955
6025	64.3569
6000	63.165
5975	64.1016
5950	62.803
5925	62.8151
5900	63.0814
5875	63.3841
5850	63.7217
5825	63.5345
5800	64.6743
5775	63.0569
5750	63.9365
5725	63.4911
5700	62.8955
5675	63.8184
5650	64.1098
5625	64.5731
5600	64.4766
5575	64.1117
5550	64.0532
5525	63.6693
5500	64.3598
5475	64.2801
5450	63.8326
5425	63.3181
5400	63.8787
5375	63.6945
5350	64.4384
5325	64.178
5300	63.1732
5275	62.4046
5250	65.1709
5225	62.0859
5200	65.3673
5175	64.8175
5150	62.4953
5125	63.901
5100	63.3611
5075	63.5719
5050	64.0806
5025	64.1244
5000	64.0761
4975	63.3314
4950	63.7145
4925	63.9622
4900	63.6444
4875	63.8066
4850	63.6361
4825	63.8149
4800	63.7233
4775	63.9907
4750	63.7783
4725	63.9487
4700	64.2552
4675	63.7873
4650	63.7252
4625	63.9073
4600	63.9202
4575	63.8032
4550	63.7151
4525	63.5798
4500	63.7397
4475	63.7445
4450	64.0208
4425	64.384
4400	62.352
4375	64.409
4350	63.6556
4325	63.2595
4300	63.5619
4275	63.5837
4250	63.7227
4225	63.5788
4200	63.4169
4175	63.7062
4150	63.3118
4125	63.3943
4100	63.5049
4075	63.6563
4050	63.4052
4025	63.3877
4000	63.3953
3975	63.3419
3950	63.1795
3925	63.1399
3900	63.2066
3875	63.2375
3850	63.1093
3825	63.0343
3800	63.1515
3775	62.9187
3750	62.9487
3725	62.9365
3700	62.8861
3675	62.84
3650	62.6197
3625	62.6842
3600	62.5616
3575	62.4565
3550	62.3422
3525	62.3121
3500	62.0373
3475	62.2558
3450	62.2113
3425	62.0965
3400	62.0365
3375	61.7857
3350	61.7398
3325	61.5512
3300	61.5838
3275	61.3652
3250	61.411
3225	61.0857
3200	61.2441
3175	61.2489
3150	60.9955
3125	61.0383
3100	60.856
3075	60.8911
3050	60.8021
3025	60.662
3000	60.3939
2975	60.2255
2950	60.1792
2925	59.9105
2900	59.9536
2875	59.8512
2850	59.7028
2825	59.6699
2800	59.524
2775	59.5642
2750	59.2227
2725	59.2568
2700	59.0834
2675	58.8901
2650	58.6637
2625	58.4815
2600	58.4973
2575	58.2789
2550	58.0893
2525	58.0514
2500	57.9532
2475	57.717
2450	57.5647
2425	57.4388
2400	57.3099
2375	57.1328
2350	56.91
2325	56.8188
2300	56.7021
2275	56.4707
2250	56.2994
2225	56.0127
2200	55.8702
2175	55.87
2150	55.6886
2125	55.3527
2100	55.3193
2075	55.2353
2050	54.8196
2025	54.6645
2000	54.6193
1975	54.3411
1950	54.145
1925	53.9383
1900	53.8818
1875	53.6056
1850	53.4226
1825	53.2495
1800	53.0302
1775	52.923
1750	52.5499
1725	52.3459
1700	52.2166
1675	52.0233
1650	51.8172
1625	51.6757
1600	51.3584
1575	51.1735
1550	51.0079
1525	50.8076
1500	50.6954
1475	50.4263
1450	50.1339
1425	49.9537
1400	49.7468
1375	49.5668
1350	49.4971
1325	49.1603
1300	49.0472
1275	48.6971
1250	48.5098
1225	48.339
1200	48.1045
1175	47.9057
1150	47.6452
1125	47.3749
1100	47.1464
1075	46.8108
1050	46.8018
1025	46.7085
1000	46.2704
975	 45.8194
950	 45.4426
925	 45.3531
900	 45.3963
875	 44.932
850	 44.3675
825	 44.0231
800	 43.8164
775	 43.4018
750	 42.9469
725	 42.5294
700	 41.8361
675	 41.3677
650	 40.781
625	 40.4129
600	 39.9127
575	 39.1207
550	 38.465
525	 37.8515
500	 36.1323
475	 34.7791
450	 33.9782
425	 31.1704
400	 28.8512
375	 47.3678
370	 67.1411

File: C-4040-8_t04.asc
PE IR       SPECTRUM    SPECTRUM    ASCII       PEDS        1.60
  -1
C-B52A~1.ASC
17/05/02
11:08:49.00
17/05/02
11:09:15.00
tln
$C-4040-8_t0004$<tbV0>[-2.5,-13.0,8.0,0.0,22,1,0]
27.028
64

2002,4.07
MIRTGS : RIGHTBACK : INTERNAL 2
MIR : ON : INTERNAL 2
OPTKBR

0.200000
8
8.000000
FILLER
RATIO
SPECTRUM
UNLOCKED 256

DOUBLE
64
COMBINED
1
0
0

0.002000
RATIO

1
0
TRUE
51149
0
LEFT NOT FITTED RIGHT NOT FITTED 0
NONE
NONE
15600
12
4.427000
51148
TRUE
1 0 8 72 0 0 0 0

15798

#HDR
-1
-1
#GR
µM
%T
2.38419e-05
0.0
1.282000
0.002000
12874
8
85.3717
37.1178
#DATA
1.282000	 69.6496
1.368000	 63.0731
1.454000	 65.1893
1.540000	 64.2943
1.626000	 63.309
1.712000	 64.3667
1.798000	 64.0109
1.884000	 64.8599
1.970000	 63.9385
2.056000	 64.3349
2.142000	 64.1909
2.228000	 64.6167
2.314000	 64.0602
2.400000	 63.946
2.486000	 63.8993
2.572000	 63.9864
2.658000	 63.8328
2.744000	 63.5188
2.830000	 63.1903
2.916000	 63.1943
3.002000	 62.7605
3.088000	 62.5241
3.174000	 62.5803
3.260000	 62.3478
3.346000	 61.9436
3.432000	 61.3162
3.518000	 61.4459
3.604000	 61.3199
3.690000	 61.1856
3.776000	 60.873
3.862000	 60.6535
3.948000	 60.4847
4.034000	 60.2873
4.120000	 60.1285
4.206000	 59.8959
4.292000	 59.5928
4.378000	 59.3687
4.464000	 59.1675
4.550000	 58.9863
4.636000	 58.8091
4.722000	 58.6849
4.808000	 58.2171
4.894000	 58.2909
4.980000	 58.1783
5.066000	 57.8103
5.152000	 57.7443
5.238000	 57.5861
5.324000	 57.4512
5.410000	 57.2375
5.496000	 57.1293
5.582000	 57.0049
5.668000	 56.8333
5.754000	 56.4383
5.840000	 56.4766
5.926000	 56.4389
6.012000	 56.3559
6.098000	 56.1737
6.184000	 56.1542
6.270000	 55.934
6.356000	 55.6217
6.442000	 55.5637
6.528000	 55.4718
6.614000	 55.425
6.700000	 55.3497
6.786000	 55.161
6.872000	 55.1006
6.958000	 54.9373
7.044000	 55.0292
7.130000	 54.6634
7.216000	 54.6201
7.302000	 54.4759
7.388000	 54.5758
7.474000	 54.4851
7.560000	 54.2926
7.646000	 54.0998
7.732000	 54.1693
7.818000	 53.9348
7.904000	 53.975
7.990000	 53.9298
8.076000	 53.7679
8.161999	 53.6621
8.248000	 53.6285
8.334000	 53.5234
8.420000	 53.4354
8.506000	 53.3689
8.592000	 53.3188
8.678000	 53.218
8.763999	 53.1277
8.850000	 53.0822
8.936000	 52.9709
9.022000	 52.7993
9.108000	 52.9544
9.193999	 53.0354
9.280000	 52.8116
9.366000	 52.7473
9.452000	 52.6206
9.538000	 52.6067
9.624000	 52.5842
9.710000	 52.4216
9.795999	 52.1733
9.882000	 52.1135
9.968000	 52.0071
10.054	51.9957
10.14	51.9362
10.226	51.8455
10.312	52.0552
10.398	51.981
10.484	51.7952
10.57	51.5766
10.656	51.6746
10.742	51.9543
10.828	51.7954
10.914	51.901
11	51.6967
11.086	51.2194
11.172	51.1325
11.258	51.5699
11.344	51.4714
11.43	50.8005
11.516	50.7312
11.602	50.5918
11.688	50.4232
11.774	50.5706
11.86	50.0626
11.946	50.5512
12.032	50.3952
12.118	50.2167
12.204	50.7306
12.29	50.9125
12.376	50.52
12.462	50.436
12.548	50.4921
12.634	50.4417
12.72	50.0793
12.806	50.021
12.892	50.1481
12.978	50.2566
13.064	50.1191
13.15	49.8618
13.236	49.6053
13.322	49.5129
13.408	49.8075
13.494	49.8568
13.58	49.6489
13.666	49.5363
13.752	49.3592
13.838	49.1683
13.924	49.0599
14.01	49.1307
14.096	49.2473
14.182	49.1003
14.268	48.9229
14.354	48.8989
14.44	48.9011
14.526	48.8209
14.612	48.7215
14.698	48.6792
14.784	48.6831
14.87	48.7394
14.956	48.8464
15.042	48.8874
15.128	48.7114
15.214	48.4271
15.3	48.2183
15.386	48.1383
15.472	48.1696
15.558	48.1259
15.644	47.9673
15.73	47.8696
15.816	47.7643
15.902	47.5583
15.988	47.422
16.074	47.4725
16.16	47.5974
16.246	47.596
16.332	47.4099
16.418	47.2812
16.504	47.4266
16.59	47.6557
16.676	47.6558
16.762	47.4302
16.848	47.1812
16.934	47.0071
17.02	46.8966
17.106	46.8494
17.192	46.9025
17.278	47.0733
17.364	47.2447
17.45	47.1955
17.536	46.8947
17.622	46.6063
17.708	46.5488
17.794	46.6324
17.88	46.6425
17.966	46.5308
18.052	46.3802
18.138	46.2217
18.224	46.017
18.31	45.7891
18.396	45.6499
18.482	45.6652
18.568	45.7602
18.654	45.8092
18.74	45.7734
18.826	45.7283
18.912	45.7719
18.998	45.9269
19.084	46.1272
19.17	46.2663
19.256	46.248
19.342	46.0316
19.428	45.6741
19.514	45.3173
19.6	45.0965
19.686	45.0346
19.772	45.0465
19.858	45.0502
19.944	45.042
20.03	45.0437
20.116	45.0257
20.202	44.9345
20.288	44.7658
20.374	44.5736
20.46	44.4084
20.546	44.2669
20.632	44.1142
20.718	43.9405
20.804	43.782
20.89	43.6888
20.976	43.6707
21.062	43.684
21.148	43.6618
21.234	43.5633
21.32	43.4074
21.406	43.2689
21.492	43.2343
21.578	43.3345
21.664	43.5062
21.75	43.6144
21.836	43.5419
21.922	43.2802
22.008	42.9596
22.094	42.7637
22.18	42.8102
22.266	43.0866
22.352	43.4558
22.438	43.7667
22.524	43.9449
22.61	44.0056
22.696	44.0067
22.782	43.978
22.868	43.8952
22.954	43.7094
23.04	43.4072
23.126	43.032
23.212	42.6627
23.298	42.356
23.384	42.0677
23.47	41.6772
23.556	41.0767
23.642	40.2482
23.728	39.341
23.814	38.6131
23.9	38.2982
23.986	38.4972
24.072	39.1022
24.158	39.8493
24.244	40.4415
24.33	40.645
24.416	40.375
24.502	39.6966
24.588	38.7811
24.674	37.8622
24.76	37.2339
24.846	37.2005
24.932	38.0429
25.018	39.9136
25.104	42.8131
25.19	46.4972
25.276	50.5416
25.362	54.4591
25.448	57.8225
25.534	60.4298
25.62	62.3253
25.706	63.7635
25.792	65.006
25.878	66.1913
25.964	67.345
26.05	68.3647
26.136	69.0574
26.222	69.159
26.308	68.4776
26.394	67.0873
26.48	65.4033
26.566	64.2185
26.652	64.4917
26.738	66.7871
26.824	71.0994
26.91	76.8054
26.996	83.461
27.028	85.3717

File: C-4040-8_t04_cm-1.asc
PE IR       SPECTRUM    SPECTRUM    ASCII       PEDS        1.60
  -1
C-996F~1.ASC
17/05/02
11:08:49.00
17/05/02
11:08:49.00
tln
$C-4040-8_t0004$<tbV0>[-2.5,-13.0,8.0,0.0,22,1,0]
370
64

2002,4.07
MIRTGS : RIGHTBACK : INTERNAL 2
MIR : ON : INTERNAL 2
OPTKBR

0.200000
8
8.000000
FILLER
RATIO
SPECTRUM
UNLOCKED 256

DOUBLE
64
COMBINED
1
0
0

1.000000
RATIO

1
0
TRUE
51149
0
LEFT NOT FITTED RIGHT NOT FITTED 0
NONE
NONE
15600
12
4.427000
51148
TRUE
1 0 8 72 0 0 0 0

15798

#HDR
-1
-1
#GR
CM-1
%T
2.38419e-05
0.0
7800
-1.000000
7431
8
85.3717
37.1209
#DATA
7800	69.6496
7775	58.0377
7750	70.4563
7725	64.5789
7700	64.2724
7675	71.8871
7650	76.2876
7625	64.4274
7600	65.5551
7575	69.5731
7550	67.4155
7525	61.6669
7500	64.7562
7475	64.776
7450	65.0407
7425	62.4712
7400	69.6793
7375	62.598
7350	60.9679
7325	67.9698
7300	60.4372
7275	64.5939
7250	62.5098
7225	65.2632
7200	64.2124
7175	67.0806
7150	61.9798
7125	63.2828
7100	63.7324
7075	63.7289
7050	64.1781
7025	64.0256
7000	62.7848
6975	64.1007
6950	61.4245
6925	63.9192
6900	63.7522
6875	64.4513
6850	64.3425
6825	60.0174
6800	64.0465
6775	62.43
6750	63.359
6725	63.5723
6700	64.7824
6675	63.0383
6650	61.7555
6625	63.1023
6600	63.7525
6575	64.6105
6550	64.835
6525	63.8346
6500	65.3015
6475	64.6448
6450	66.5585
6425	65.802
6400	63.4157
6375	63.1484
6350	64.3885
6325	65.458
6300	63.0486
6275	64.5925
6250	63.9375
6225	64.2599
6200	63.222
6175	64.455
6150	63.3063
6125	63.9289
6100	63.9538
6075	63.7512
6050	64.1472
6025	64.096
6000	64.8238
5975	64.5586
5950	63.4053
5925	62.8247
5900	64.4088
5875	64.4129
5850	64.274
5825	64.2695
5800	65.1384
5775	63.5945
5750	63.3423
5725	63.5316
5700	64.518
5675	64.5538
5650	64.4269
5625	63.4463
5600	63.8661
5575	64.7823
5550	63.8812
5525	63.914
5500	64.5594
5475	64.3601
5450	64.0726
5425	63.7445
5400	63.638
5375	64.258
5350	64.5523
5325	62.6924
5300	65.1676
5275	64.8939
5250	63.6535
5225	62.5639
5200	64.985
5175	65.2189
5150	63.7033
5125	64.5706
5100	63.7955
5075	63.8862
5050	64.1806
5025	63.3679
5000	64.7324
4975	64.3796
4950	64.5789
4925	64.6154
4900	64.4342
4875	63.9683
4850	64.0415
4825	64.0332
4800	63.8847
4775	64.221
4750	63.8835
4725	64.0669
4700	64.339
4675	64.136
4650	64.1139
4625	63.9436
4600	63.945
4575	64.5739
4550	64.2872
4525	64.1309
4500	64.2811
4475	64.1825
4450	64.5934
4425	64.872
4400	65.5197
4375	62.3892
4350	64.5585
4325	63.8913
4300	63.9532
4275	64.0441
4250	64.1275
4225	64.1241
4200	64.2239
4175	63.7828
4150	63.8644
4125	64.0476
4100	63.7542
4075	64.1469
4050	63.8977
4025	64.0178
4000	63.8097
3975	63.7029
3950	63.7538
3925	63.7426
3900	63.586
3875	63.8466
3850	63.8214
3825	63.7526
3800	63.6406
3775	63.6162
3750	63.9127
3725	63.5077
3700	63.549
3675	63.5198
3650	63.5712
3625	63.3103
3600	63.3566
3575	63.3621
3550	63.1229
3525	63.1347
3500	63.4109
3475	63.2256
3450	63.0778
3425	63.2589
3400	62.9414
3375	62.9722
3350	62.9596
3325	62.6802
3300	62.6984
3275	62.6995
3250	62.7336
3225	62.5222
3200	62.6065
3175	62.4256
3150	62.5793
3125	62.5592
3100	62.2278
3075	62.2802
3050	62.0136
3025	62.07
3000	62.0351
2975	61.9504
2950	61.6883
2925	61.4719
2900	61.4861
2875	61.4997
2850	61.4496
2825	61.5125
2800	61.3885
2775	61.3196
2750	61.1078
2725	61.3367
2700	61.1416
2675	61.0502
2650	60.8743
2625	60.6971
2600	60.7327
2575	60.6806
2550	60.6351
2525	60.538
2500	60.3416
2475	60.3098
2450	60.0768
2425	60.1211
2400	59.7608
2375	59.8883
2350	59.6576
2325	59.6429
2300	59.5823
2275	59.2581
2250	59.2825
2225	59.0984
2200	59.004
2175	58.8514
2150	58.6765
2125	58.6754
2100	58.5963
2075	58.1826
2050	58.233
2025	58.0513
2000	58.1195
1975	57.8127
1950	57.7912
1925	57.7876
1900	57.6863
1875	57.4999
1850	57.2318
1825	57.16
1800	57.0777
1775	56.9297
1750	56.5976
1725	56.5109
1700	56.6116
1675	56.3799
1650	56.2504
1625	55.9476
1600	56.0287
1575	55.6526
1550	55.5423
1525	55.5202
1500	55.4377
1475	55.1816
1450	55.1114
1425	54.893
1400	54.685
1375	54.5186
1350	54.5072
1325	54.328
1300	54.1431
1275	53.9117
1250	53.8997
1225	53.6619
1200	53.5242
1175	53.36
1150	53.2468
1125	53.0305
1100	52.9137
1075	52.7994
1050	52.5504
1025	52.3465
1000	52.0405
975	 51.9182
950	 51.659
925	 51.84
900	 51.1657
875	 50.8025
850	 50.6053
825	 50.2281
800	 50.4644
775	 50.1632
750	 49.5381
725	 49.259
700	 48.9072
675	 48.6963
650	 48.1385
625	 47.4182
600	 47.6698
575	 47.2612
550	 46.1246
525	 46.0435
500	 45.0425
475	 43.6832
450	 42.9238
425	 41.2895
400	 39.4337
375	 64.7336
370	 85.3717