Folder: Masteroppgave/Bakgrunnsmateriale/MATLAB/FTIR/ftir_data/subBb/Mapping_121 (part 8)

File: C-4040-8_t11_cm-1.asc
PE IR       SPECTRUM    SPECTRUM    ASCII       PEDS        1.60
  -1
C-1AE4~1.ASC
17/03/27
15:21:42.00
17/03/27
15:21:42.00
tln
$C-4040-8_t0011$<tbV0>[-13.0,-13.0,8.0,0.0,27,1,0]
370
64

2002,4.07
MIRTGS : RIGHTBACK : INTERNAL 2
MIR : ON : INTERNAL 2
OPTKBR

0.200000
8
8.000000
FILLER
RATIO
SPECTRUM
UNLOCKED 256

DOUBLE
64
COMBINED
1
0
0

1.000000
RATIO

1
0
TRUE
51149
0
LEFT NOT FITTED RIGHT NOT FITTED 0
NONE
NONE
15600
12
4.427000
51148
TRUE
1 0 8 72 0 0 0 0

15798

#HDR
-1
-1
#GR
CM-1
%T
2.38419e-05
0.0
5000
-1.000000
4631
8
86.5051
40.4225
#DATA
5000	64.5423
4984	65.2213
4968	64.7858
4952	64.3985
4936	63.8041
4920	64.5119
4904	65.5018
4888	64.8229
4872	65.0423
4856	64.8542
4840	65.1241
4824	64.5893
4808	64.6842
4792	64.7288
4776	65.0768
4760	64.707
4744	65.2048
4728	64.6624
4712	64.9612
4696	64.5631
4680	64.8766
4664	64.9741
4648	64.7995
4632	65.1554
4616	65.2645
4600	64.9508
4584	64.6863
4568	64.7829
4552	64.5698
4536	64.5063
4520	64.7575
4504	64.7836
4488	64.205
4472	64.3021
4456	65.7953
4440	67.124
4424	63.1052
4408	61.9244
4392	63.418
4376	65.2128
4360	66.005
4344	64.9308
4328	64.6213
4312	64.3192
4296	64.4791
4280	64.7002
4264	64.5384
4248	64.4597
4232	64.7617
4216	64.4996
4200	64.4266
4184	64.3057
4168	64.9774
4152	64.788
4136	65.0786
4120	65.1564
4104	65.0153
4088	65.0496
4072	64.9341
4056	65.2868
4040	65.0653
4024	65.1192
4008	65.327
3992	65.1602
3976	64.8711
3960	64.9915
3944	65.0465
3928	65.0718
3912	65.1553
3896	65.135
3880	64.9953
3864	65.1112
3848	65.15
3832	65.2318
3816	65.0404
3800	65.2415
3784	64.7132
3768	65.3942
3752	65.4256
3736	65.188
3720	65.3011
3704	65.1881
3688	65.2452
3672	65.4134
3656	65.2535
3640	64.9659
3624	65.0969
3608	65.0056
3592	65.2204
3576	64.9289
3560	65.1416
3544	64.8929
3528	64.9174
3512	64.6641
3496	64.7521
3480	64.911
3464	65.1025
3448	65.0057
3432	64.9093
3416	64.8222
3400	64.8891
3384	64.8643
3368	64.788
3352	64.6851
3336	64.8875
3320	64.6505
3304	64.8117
3288	64.8097
3272	64.9613
3256	64.7447
3240	64.5822
3224	64.802
3208	64.623
3192	64.7387
3176	64.6629
3160	64.8959
3144	64.7382
3128	65.0276
3112	64.8428
3096	64.8986
3080	64.7176
3064	64.8071
3048	64.8453
3032	64.6212
3016	64.9576
3000	64.8435
2984	64.8036
2968	64.6296
2952	64.4813
2936	64.6784
2920	64.4686
2904	64.5729
2888	64.5252
2872	64.4703
2856	64.4017
2840	64.9995
2824	64.7835
2808	64.6762
2792	64.6319
2776	64.6818
2760	64.6913
2744	64.7116
2728	64.6923
2712	64.6952
2696	64.7488
2680	64.665
2664	64.7373
2648	64.5894
2632	64.6133
2616	64.4625
2600	64.4819
2584	64.5047
2568	64.6121
2552	64.5395
2536	64.5093
2520	64.4876
2504	64.5227
2488	64.4847
2472	64.5028
2456	64.5676
2440	64.4927
2424	64.5936
2408	64.3252
2392	64.5264
2376	64.5494
2360	64.5282
2344	64.4003
2328	64.4874
2312	64.4508
2296	64.4163
2280	64.3692
2264	64.3582
2248	64.355
2232	64.3272
2216	64.3494
2200	64.3618
2184	64.1848
2168	64.3341
2152	64.2611
2136	64.3197
2120	64.2346
2104	64.2193
2088	64.1485
2072	64.2349
2056	64.2139
2040	64.2182
2024	64.0972
2008	64.0993
1992	64.1689
1976	64.1149
1960	63.9962
1944	64.0676
1928	64.079
1912	64.1724
1896	64.1069
1880	64.1403
1864	64.0827
1848	64.1209
1832	64.0432
1816	64.0457
1800	63.8703
1784	64.0148
1768	64.018
1752	63.9103
1736	63.8842
1720	64.0144
1704	64.0975
1688	64.0291
1672	64.1076
1656	64.2749
1640	64.0043
1624	63.8776
1608	63.7151
1592	63.6736
1576	63.8559
1560	64.1041
1544	63.9945
1528	63.8597
1512	63.8918
1496	63.6564
1480	63.6236
1464	63.7449
1448	63.5943
1432	63.6396
1416	63.5557
1400	63.5537
1384	63.4379
1368	63.4924
1352	63.4184
1336	63.3409
1320	63.4191
1304	63.2503
1288	63.2187
1272	63.0292
1256	63.0923
1240	63.0393
1224	63.2092
1208	63.0646
1192	63.095
1176	63.072
1160	63.1119
1144	62.9586
1128	62.8744
1112	62.8106
1096	62.8107
1080	62.8165
1064	62.8808
1048	62.7911
1032	62.7105
1016	62.8198
1000	62.7999
984	 62.7397
968	 62.614
952	 62.5623
936	 62.4292
920	 62.2773
904	 62.6697
888	 62.3166
872	 62.3339
856	 62.2856
840	 62.0786
824	 61.9637
808	 61.9706
792	 61.8564
776	 61.9726
760	 61.7382
744	 61.9141
728	 61.2575
712	 61.2925
696	 61.3272
680	 60.947
664	 60.868
648	 60.8842
632	 60.9816
616	 60.8068
600	 60.5784
584	 60.7128
568	 60.5514
552	 60.0552
536	 59.43
520	 58.9457
504	 59.106
488	 59.2367
472	 58.6666
456	 57.233
440	 57.2508
424	 57.4143
408	 53.4901
392	 64.9058
376	 41.4889
370	 85.3617

File: C-4040-8_t12.asc
PE IR       SPECTRUM    SPECTRUM    ASCII       PEDS        1.60
  -1
C-A922~1.ASC
17/03/27
15:26:56.00
17/03/27
15:27:23.00
tln
$C-4040-8_t0012$<tbV0>[13.0,-10.4,8.0,0.0,27,1,0]
27.028
64

2002,4.07
MIRTGS : RIGHTBACK : INTERNAL 2
MIR : ON : INTERNAL 2
OPTKBR

0.200000
8
8.000000
FILLER
RATIO
SPECTRUM
UNLOCKED 256

DOUBLE
64
COMBINED
1
0
0

0.002000
RATIO

1
0
TRUE
51149
0
LEFT NOT FITTED RIGHT NOT FITTED 0
NONE
NONE
15600
12
4.427000
51148
TRUE
1 0 8 72 0 0 0 0

15798

#HDR
-1
-1
#GR
µM
%T
2.38419e-05
0.0
2.000000
0.002000
12515
8
125.763
43.4785
#DATA
2.000000	 64.4721
2.084000	 64.9421
2.168000	 64.827
2.252000	 67.676
2.336000	 64.5703
2.420000	 65.0651
2.504000	 65.1881
2.588000	 65.1266
2.672000	 65.4117
2.756000	 65.3908
2.840000	 65.1152
2.924000	 65.0023
3.008000	 65.0835
3.092000	 65.1106
3.176000	 65.1959
3.260000	 65.3254
3.344000	 65.2803
3.428000	 65.1042
3.512000	 65.2034
3.596000	 65.1876
3.680000	 65.2178
3.764000	 65.2425
3.848000	 65.2998
3.932000	 65.3357
4.016000	 65.2915
4.100000	 65.4718
4.184000	 65.2593
4.268000	 65.2995
4.352000	 65.3214
4.436000	 65.2551
4.520000	 65.2952
4.604000	 65.2052
4.688000	 65.3877
4.772000	 65.3642
4.856000	 65.2291
4.940000	 65.1696
5.024000	 65.3535
5.108000	 65.3067
5.192000	 65.3286
5.276000	 65.4442
5.359999	 65.3527
5.444000	 65.2541
5.528000	 65.52
5.612000	 65.4685
5.696000	 65.4222
5.780000	 65.3304
5.864000	 65.61
5.948000	 65.6373
6.032000	 65.5454
6.116000	 65.4363
6.200000	 65.3246
6.284000	 65.2634
6.368000	 65.3695
6.452000	 65.3497
6.536000	 65.4396
6.620000	 65.6422
6.704000	 65.2582
6.788000	 65.4913
6.872000	 65.6347
6.956000	 65.1348
7.040000	 65.4291
7.124000	 65.2554
7.208000	 65.2017
7.292000	 65.0963
7.376000	 65.0065
7.460000	 65.2714
7.544000	 65.2058
7.628000	 64.9948
7.712000	 65.159
7.796000	 65.0816
7.880000	 65.01
7.964000	 65.057
8.048000	 64.9983
8.132000	 65.1372
8.216000	 65.075
8.300000	 64.9774
8.384000	 64.9916
8.468000	 64.9458
8.552000	 64.9802
8.635999	 64.9588
8.719999	 64.9592
8.804000	 64.964
8.888000	 64.9561
8.972000	 64.937
9.056000	 64.9912
9.140000	 64.8573
9.224000	 64.8811
9.308000	 64.7211
9.391999	 64.8162
9.475999	 64.9363
9.560000	 65.0282
9.644000	 64.9338
9.728000	 64.9449
9.812000	 64.5321
9.896000	 64.5411
9.980000	 64.6512
10.064	64.7537
10.148	65.0944
10.232	65.0554
10.316	64.5919
10.4	64.6061
10.484	64.5275
10.568	64.5511
10.652	64.546
10.736	64.6296
10.82	64.5482
10.904	64.8781
10.988	64.707
11.072	64.4846
11.156	64.0052
11.24	64.3122
11.324	64.4473
11.408	64.3001
11.492	64.3999
11.576	64.3187
11.66	64.493
11.744	64.5844
11.828	64.4309
11.912	64.2876
11.996	64.2201
12.08	64.2473
12.164	64.3403
12.248	64.5028
12.332	64.3241
12.416	64.2766
12.5	64.2137
12.584	64.0306
12.668	64.1175
12.752	64.2748
12.836	64.2271
12.92	64.1128
13.004	63.9354
13.088	63.8229
13.172	64.0165
13.256	64.3727
13.34	64.3955
13.424	64.3419
13.508	64.0504
13.592	63.6049
13.676	63.4813
13.76	63.4314
13.844	63.3005
13.928	63.2478
14.012	63.232
14.096	63.113
14.18	62.9178
14.264	62.9395
14.348	63.2527
14.432	63.3735
14.516	63.2708
14.6	63.2586
14.684	63.1813
14.768	62.966
14.852	62.8939
14.936	62.9567
15.02	62.9365
15.104	62.9276
15.188	63.0569
15.272	63.1949
15.356	63.2804
15.44	63.3838
15.524	63.4303
15.608	63.3307
15.692	63.2317
15.776	63.251
15.86	63.2444
15.944	63.1135
16.028	62.9541
16.112	62.8603
16.196	62.86
16.28	62.8913
16.364	62.8278
16.448	62.6717
16.532	62.5054
16.616	62.3334
16.7	62.2081
16.784	62.2738
16.868	62.5158
16.952	62.7133
17.036	62.7194
17.12	62.6277
17.204	62.6367
17.288	62.7971
17.372	63.0137
17.456	63.1893
17.54	63.2445
17.624	63.1543
17.708	62.9782
17.792	62.7687
17.876	62.5148
17.96	62.2228
18.044	61.9784
18.128	61.8731
18.212	61.8989
18.296	61.958
18.38	61.9548
18.464	61.8616
18.548	61.7175
18.632	61.5889
18.716	61.5405
18.8	61.6038
18.884	61.7222
18.968	61.7533
19.052	61.5697
19.136	61.2099
19.22	60.8691
19.304	60.7242
19.388	60.7912
19.472	60.961
19.556	61.1039
19.64	61.1356
19.724	61.0495
19.808	60.9465
19.892	60.9969
19.976	61.2813
20.06	61.6491
20.144	61.8105
20.228	61.6095
20.312	61.1657
20.396	60.7533
20.48	60.5649
20.564	60.6045
20.648	60.7583
20.732	60.9283
20.816	61.0886
20.9	61.2248
20.984	61.2643
21.068	61.1013
21.152	60.6828
21.236	60.0877
21.32	59.5084
21.404	59.138
21.488	59.0648
21.572	59.2388
21.656	59.5451
21.74	59.8722
21.824	60.1407
21.908	60.2947
21.992	60.2969
22.076	60.1614
22.16	59.9834
22.244	59.9048
22.328	60.0345
22.412	60.3648
22.496	60.7418
22.58	60.9664
22.664	60.8887
22.748	60.4834
22.832	59.842
22.916	59.0718
23	58.238
23.084	57.3546
23.168	56.4349
23.252	55.5596
23.336	54.9061
23.42	54.6877
23.504	55.0741
23.588	56.0542
23.672	57.4252
23.756	58.8594
23.84	59.9509
23.924	60.4032
24.008	60.0403
24.092	58.7667
24.176	56.6606
24.26	53.9318
24.344	50.8774
24.428	47.8426
24.512	45.3342
24.596	43.8123
24.68	43.5218
24.764	44.3638
24.848	45.8887
24.932	47.6447
25.016	49.4766
25.1	51.5589
25.184	54.1862
25.268	57.5656
25.352	61.7184
25.436	66.9524
25.52	73.8449
25.604	82.909
25.688	94.0447
25.772	106.063
25.856	116.845
25.94	123.99
26.024	125.597
26.108	121.158
26.192	111.702
26.276	99.3286
26.36	86.6719
26.444	75.8281
26.528	67.8369
26.612	62.7651
26.696	60.0747
26.78	59.1167
26.864	59.4373
26.948	60.7135
27.028	62.2865

File: C-4040-8_t12_cm-1.asc
PE IR       SPECTRUM    SPECTRUM    ASCII       PEDS        1.60
  -1
C-1A64~1.ASC
17/03/27
15:26:56.00
17/03/27
15:26:56.00
tln
$C-4040-8_t0012$<tbV0>[13.0,-10.4,8.0,0.0,27,1,0]
370
64

2002,4.07
MIRTGS : RIGHTBACK : INTERNAL 2
MIR : ON : INTERNAL 2
OPTKBR

0.200000
8
8.000000
FILLER
RATIO
SPECTRUM
UNLOCKED 256

DOUBLE
64
COMBINED
1
0
0

1.000000
RATIO

1
0
TRUE
51149
0
LEFT NOT FITTED RIGHT NOT FITTED 0
NONE
NONE
15600
12
4.427000
51148
TRUE
1 0 8 72 0 0 0 0

15798

#HDR
-1
-1
#GR
CM-1
%T
2.38419e-05
0.0
5000
-1.000000
4631
8
125.381
43.5405
#DATA
5000	64.4721
4984	65.2446
4968	65.0278
4952	63.9293
4936	64.0665
4920	63.9616
4904	65.5231
4888	65.1208
4872	63.7468
4856	65.1836
4840	65.6622
4824	64.6131
4808	64.6492
4792	65.3059
4776	64.8019
4760	64.3814
4744	64.9966
4728	65.0778
4712	64.8258
4696	65.0255
4680	64.7719
4664	65.0412
4648	65.0173
4632	65.2775
4616	65.0172
4600	65.2522
4584	64.7169
4568	64.6845
4552	64.527
4536	64.4272
4520	64.5318
4504	64.9296
4488	64.0306
4472	64.4135
4456	65.9544
4440	67.2001
4424	62.6634
4408	62.2859
4392	63.4759
4376	72.2287
4360	65.7161
4344	64.9958
4328	64.7017
4312	64.1733
4296	64.2855
4280	64.5963
4264	64.841
4248	64.7112
4232	64.4661
4216	64.8905
4200	64.7305
4184	64.3925
4168	64.4071
4152	64.9623
4136	64.7936
4120	65.0362
4104	65.3286
4088	65.2624
4072	65.0576
4056	65.3355
4040	65.1665
4024	65.4146
4008	65.5089
3992	65.1847
3976	64.9772
3960	65.2288
3944	65.2114
3928	65.2176
3912	65.1726
3896	65.2213
3880	64.9649
3864	65.1266
3848	65.5241
3832	65.3901
3816	65.0434
3800	65.3972
3784	65.1664
3768	65.3114
3752	65.5812
3736	65.3838
3720	65.3488
3704	65.2792
3688	65.4136
3672	65.5715
3656	65.4367
3640	65.2312
3624	65.2393
3608	65.2218
3592	65.4265
3576	65.2699
3560	65.1541
3544	65.1705
3528	65.3299
3512	65.1407
3496	65.1698
3480	65.4819
3464	65.3299
3448	65.1248
3432	64.7812
3416	65.1399
3400	65.1137
3384	65.1685
3368	65.3028
3352	65.0728
3336	65.1901
3320	65.0765
3304	65.3037
3288	65.3057
3272	65.276
3256	65.136
3240	65.1989
3224	65.2909
3208	65.4346
3192	64.9717
3176	65.1748
3160	65.059
3144	65.2363
3128	65.1536
3112	65.1337
3096	65.2726
3080	65.0995
3064	65.3067
3048	65.298
3032	65.2772
3016	65.2945
3000	65.2579
2984	65.2518
2968	65.1655
2952	65.0342
2936	65.2059
2920	65.0476
2904	65.0397
2888	65.1655
2872	65.1343
2856	64.7233
2840	65.5212
2824	65.2789
2808	65.2839
2792	65.1697
2776	65.2002
2760	65.345
2744	65.3746
2728	65.223
2712	65.2281
2696	65.4097
2680	65.1799
2664	65.3009
2648	65.1506
2632	65.4293
2616	65.2135
2600	65.2864
2584	65.3369
2568	65.3191
2552	65.2393
2536	65.3174
2520	65.3429
2504	65.2833
2488	65.2298
2472	65.3169
2456	65.1341
2440	65.4808
2424	64.9194
2408	65.2653
2392	65.2643
2376	65.2735
2360	65.4563
2344	65.3152
2328	65.2975
2312	65.3762
2296	65.3111
2280	65.4304
2264	65.3805
2248	65.339
2232	65.312
2216	65.3327
2200	65.2861
2184	65.2501
2168	65.302
2152	65.1424
2136	65.4521
2120	65.2406
2104	65.2962
2088	65.6093
2072	65.2663
2056	65.3884
2040	65.3484
2024	65.1595
2008	65.3188
1992	65.3688
1976	65.2779
1960	65.3488
1944	65.3949
1928	65.2959
1912	65.4814
1896	65.4446
1880	65.2506
1864	65.3641
1848	65.3636
1832	65.3341
1816	65.3938
1800	65.547
1784	65.51
1768	65.4304
1752	65.3779
1736	65.3969
1720	65.4857
1704	65.6908
1688	65.6261
1672	65.426
1656	65.6873
1640	65.4014
1624	65.3159
1608	65.2854
1592	65.2516
1576	65.476
1560	65.8415
1544	65.7334
1528	65.4642
1512	65.6047
1496	65.2876
1480	65.2817
1464	65.4769
1448	65.4822
1432	65.0594
1416	65.3527
1400	65.3184
1384	65.1278
1368	65.0718
1352	65.0484
1336	65.172
1320	65.2251
1304	65.0299
1288	65.1036
1272	64.9839
1256	65.0535
1240	64.9879
1224	65.0507
1208	64.9904
1192	64.9902
1176	64.9478
1160	64.9971
1144	64.9791
1128	64.9827
1112	64.9859
1096	64.8005
1080	64.7236
1064	64.8208
1048	64.9567
1032	64.8194
1016	64.3805
1000	64.6797
984	 65.1438
968	 64.5901
952	 64.4878
936	 64.5901
920	 64.7197
904	 64.5271
888	 64.4119
872	 64.4067
856	 64.5366
840	 64.298
824	 64.2752
808	 64.2632
792	 64.0344
776	 64.1693
760	 63.9558
744	 64.3162
728	 63.4569
712	 63.2011
696	 63.3145
680	 63.1291
664	 62.9166
648	 63.3741
632	 63.2624
616	 62.8783
600	 62.2425
584	 62.6252
568	 63.1842
552	 61.8787
536	 61.5638
520	 60.8376
504	 60.9391
488	 60.5583
472	 60.4505
456	 60.3109
440	 60.6099
424	 56.0102
408	 45.3882
392	 72.9322
376	 63.5467
370	 62.2865

File: C-4040-8_t13.asc
PE IR       SPECTRUM    SPECTRUM    ASCII       PEDS        1.60
  -1
C-A926~1.ASC
17/03/27
15:31:33.00
17/03/27
15:31:59.00
tln
$C-4040-8_t0013$<tbV0>[10.4,-10.4,8.0,0.0,27,1,0]
27.028
64

2002,4.07
MIRTGS : RIGHTBACK : INTERNAL 2
MIR : ON : INTERNAL 2
OPTKBR

0.200000
8
8.000000
FILLER
RATIO
SPECTRUM
UNLOCKED 256

DOUBLE
64
COMBINED
1
0
0

0.002000
RATIO

1
0
TRUE
51149
0
LEFT NOT FITTED RIGHT NOT FITTED 0
NONE
NONE
15600
12
4.427000
51148
TRUE
1 0 8 72 0 0 0 0

15798

#HDR
-1
-1
#GR
µM
%T
2.38419e-05
0.0
2.000000
0.002000
12515
8
77.2942
31.798
#DATA
2.000000	 63.8203
2.084000	 63.841
2.168000	 64.0031
2.252000	 66.3885
2.336000	 63.1577
2.420000	 63.5861
2.504000	 63.8071
2.588000	 63.4322
2.672000	 63.5977
2.756000	 63.2808
2.840000	 62.8638
2.924000	 62.3992
3.008000	 62.3695
3.092000	 62.25
3.176000	 61.8627
3.260000	 61.9012
3.344000	 61.5194
3.428000	 61.0289
3.512000	 61.0462
3.596000	 60.9611
3.680000	 60.651
3.764000	 60.3416
3.848000	 60.0495
3.932000	 59.9304
4.016000	 59.6143
4.100000	 59.5791
4.184000	 59.2307
4.268000	 59.0096
4.352000	 58.9391
4.436000	 58.7571
4.520000	 58.462
4.604000	 58.3028
4.688000	 57.8947
4.772000	 57.9065
4.856000	 57.7582
4.940000	 57.4507
5.024000	 57.4143
5.108000	 57.3213
5.192000	 57.1131
5.276000	 56.9746
5.359999	 56.684
5.444000	 56.5908
5.528000	 56.6202
5.612000	 56.534
5.696000	 56.3627
5.780000	 56.2
5.864000	 56.1401
5.948000	 55.8889
6.032000	 55.9689
6.116000	 55.7227
6.200000	 55.5137
6.284000	 55.3437
6.368000	 55.2825
6.452000	 55.336
6.536000	 55.1688
6.620000	 55.297
6.704000	 55.052
6.788000	 54.9261
6.872000	 54.8093
6.956000	 54.7194
7.040000	 54.4937
7.124000	 54.4395
7.208000	 54.266
7.292000	 54.1816
7.376000	 54.129
7.460000	 54.0508
7.544000	 53.925
7.628000	 53.8419
7.712000	 53.7991
7.796000	 53.7639
7.880000	 53.6297
7.964000	 53.7876
8.048000	 53.5871
8.132000	 53.5137
8.216000	 53.4539
8.300000	 53.3764
8.384000	 53.3181
8.468000	 53.1335
8.552000	 53.051
8.635999	 53.0782
8.719999	 53.0464
8.804000	 53.0207
8.888000	 52.9724
8.972000	 52.9993
9.056000	 52.8485
9.140000	 52.6315
9.224000	 52.7265
9.308000	 52.4267
9.391999	 52.522
9.475999	 52.7175
9.560000	 52.6567
9.644000	 52.7046
9.728000	 52.6458
9.812000	 52.4838
9.896000	 52.5679
9.980000	 52.3661
10.064	52.3933
10.148	52.3492
10.232	52.2665
10.316	52.3753
10.4	52.0961
10.484	51.8503
10.568	51.8254
10.652	51.8006
10.736	51.7635
10.82	51.5436
10.904	51.5797
10.988	52.1197
11.072	50.9359
11.156	50.9556
11.24	51.5518
11.324	51.3454
11.408	51.5882
11.492	51.3844
11.576	51.3526
11.66	51.2839
11.744	51.2045
11.828	51.1939
11.912	51.1829
11.996	51.1939
12.08	51.15
12.164	51.3458
12.248	51.3585
12.332	51.2106
12.416	51.1387
12.5	51.1046
12.584	51.0665
12.668	51.222
12.752	51.2931
12.836	51.2091
12.92	51.018
13.004	50.8435
13.088	50.7468
13.172	50.5398
13.256	50.6257
13.34	50.812
13.424	50.603
13.508	50.2668
13.592	50.2476
13.676	50.2988
13.76	50.1945
13.844	50.2904
13.928	50.4305
14.012	50.35
14.096	50.241
14.18	50.1647
14.264	50.1634
14.348	50.2411
14.432	50.1507
14.516	49.9107
14.6	49.6843
14.684	49.4646
14.768	49.2286
14.852	49.0846
14.936	49.2079
15.02	49.4425
15.104	49.5397
15.188	49.6106
15.272	49.6817
15.356	49.6248
15.44	49.5487
15.524	49.4997
15.608	49.3867
15.692	49.3098
15.776	49.3302
15.86	49.3313
15.944	49.2308
16.028	49.0573
16.112	48.9826
16.196	49.1472
16.28	49.3156
16.364	49.1338
16.448	48.7232
16.532	48.5506
16.616	48.6944
16.7	48.8036
16.784	48.7314
16.868	48.6332
16.952	48.6305
17.036	48.7228
17.12	48.8446
17.204	48.8619
17.288	48.6801
17.372	48.3886
17.456	48.1571
17.54	48.0176
17.624	47.9122
17.708	47.8681
17.792	47.9459
17.876	48.0832
17.96	48.1356
18.044	48.0674
18.128	47.9922
18.212	47.9902
18.296	48.008
18.38	47.9655
18.464	47.8577
18.548	47.7226
18.632	47.5952
18.716	47.5197
18.8	47.522
18.884	47.5228
18.968	47.3813
19.052	47.0662
19.136	46.7335
19.22	46.5672
19.304	46.5885
19.388	46.6762
19.472	46.7338
19.556	46.7557
19.64	46.7704
19.724	46.8131
19.808	46.9654
19.892	47.3402
19.976	47.9417
20.06	48.5666
20.144	48.9061
20.228	48.7917
20.312	48.3208
20.396	47.7688
20.48	47.4064
20.564	47.3676
20.648	47.6145
20.732	47.9808
20.816	48.2635
20.9	48.2969
20.984	47.9902
21.068	47.3576
21.152	46.5141
21.236	45.6495
21.32	44.9588
21.404	44.5449
21.488	44.3804
21.572	44.3432
21.656	44.3161
21.74	44.2581
21.824	44.1876
21.908	44.1222
21.992	44.0579
22.076	44.0056
22.16	44.0377
22.244	44.2816
22.328	44.8203
22.412	45.5935
22.496	46.3693
22.58	46.853
22.664	46.8328
22.748	46.3133
22.832	45.5091
22.916	44.7384
23	44.2695
23.084	44.2099
23.168	44.4826
23.252	44.8987
23.336	45.2459
23.42	45.3919
23.504	45.319
23.588	45.1287
23.672	44.9802
23.756	45.0347
23.84	45.3731
23.924	45.9706
24.008	46.6865
24.092	47.2839
24.176	47.5164
24.26	47.2623
24.344	46.5392
24.428	45.4844
24.512	44.3446
24.596	43.372
24.68	42.7513
24.764	42.5491
24.848	42.6995
24.932	43.1004
25.016	43.6828
25.1	44.4118
25.184	45.2227
25.268	46.025
25.352	46.7436
25.436	47.4962
25.52	48.5755
25.604	50.2609
25.688	52.487
25.772	54.6614
25.856	55.8531
25.94	55.2336
26.024	52.5047
26.108	48.1766
26.192	43.2628
26.276	38.8558
26.36	35.7248
26.444	34.0975
26.528	33.6792
26.612	33.9376
26.696	34.2758
26.78	34.2369
26.864	33.6714
26.948	32.7375
27.028	31.798

File: C-4040-8_t13_cm-1.asc
PE IR       SPECTRUM    SPECTRUM    ASCII       PEDS        1.60
  -1
C-1AE1~1.ASC
17/03/27
15:31:33.00
17/03/27
15:31:33.00
tln
$C-4040-8_t0013$<tbV0>[10.4,-10.4,8.0,0.0,27,1,0]
370
64

2002,4.07
MIRTGS : RIGHTBACK : INTERNAL 2
MIR : ON : INTERNAL 2
OPTKBR

0.200000
8
8.000000
FILLER
RATIO
SPECTRUM
UNLOCKED 256

DOUBLE
64
COMBINED
1
0
0

1.000000
RATIO

1
0
TRUE
51149
0
LEFT NOT FITTED RIGHT NOT FITTED 0
NONE
NONE
15600
12
4.427000
51148
TRUE
1 0 8 72 0 0 0 0

15798

#HDR
-1
-1
#GR
CM-1
%T
2.38419e-05
0.0
5000
-1.000000
4631
8
77.6714
31.798
#DATA
5000	63.8203
4984	64.3723
4968	64.058
4952	63.2979
4936	63.4448
4920	63.2882
4904	64.4379
4888	64.6827
4872	64.3625
4856	63.9336
4840	64.429
4824	64.0466
4808	64.0421
4792	63.8349
4776	64.1006
4760	63.8762
4744	64.3279
4728	63.9601
4712	64.1207
4696	64.0391
4680	64.0246
4664	64.1029
4648	64.1331
4632	64.1057
4616	64.0194
4600	63.7007
4584	63.766
4568	63.774
4552	63.6811
4536	63.4224
4520	63.5472
4504	63.6493
4488	62.8415
4472	63.57
4456	65.1295
4440	65.9388
4424	62.367
4408	61.2558
4392	64.4296
4376	68.0918
4360	64.6902
4344	62.798
4328	63.0184
4312	63.1715
4296	63.2595
4280	63.1918
4264	63.2252
4248	63.167
4232	63.5348
4216	63.4859
4200	63.0985
4184	63.1191
4168	63.3961
4152	63.411
4136	63.2471
4120	63.7913
4104	63.5171
4088	63.8666
4072	63.8323
4056	63.8372
4040	63.6132
4024	63.9853
4008	63.98
3992	63.7974
3976	63.3925
3960	63.5262
3944	63.6579
3928	63.403
3912	63.4894
3896	63.5286
3880	63.5057
3864	63.4323
3848	63.4972
3832	63.6366
3816	63.4273
3800	63.6892
3784	63.2685
3768	63.5416
3752	63.7618
3736	63.6239
3720	63.466
3704	63.451
3688	63.4746
3672	63.5079
3656	63.255
3640	62.9864
3624	63.0177
3608	63.2035
3592	63.2105
3576	63.0174
3560	63.1623
3544	63.064
3528	63.0131
3512	62.9609
3496	62.9032
3480	62.9687
3464	62.7485
3448	62.7096
3432	62.6767
3416	62.4126
3400	62.6187
3384	62.3373
3368	62.4624
3352	62.3963
3336	62.6452
3320	62.1858
3304	62.3005
3288	62.3781
3272	62.3041
3256	62.122
3240	62.2239
3224	62.2224
3208	62.0732
3192	62.0796
3176	61.9777
3160	62.0749
3144	61.7895
3128	61.7599
3112	61.884
3096	61.8839
3080	61.8558
3064	61.9797
3048	61.7484
3032	61.6592
3016	61.7255
3000	61.4765
2984	61.385
2968	61.2602
2952	61.2271
2936	61.3537
2920	61.0944
2904	61.0353
2888	61.029
2872	61.123
2856	61.0634
2840	61.1115
2824	60.947
2808	60.9215
2792	60.8566
2776	60.8629
2760	60.7668
2744	60.8313
2728	60.7085
2712	60.6072
2696	60.6378
2680	60.5129
2664	60.3735
2648	60.3014
2632	60.281
2616	60.0865
2600	60.0496
2584	60.1184
2568	60.0254
2552	59.9033
2536	59.8244
2520	59.8247
2504	59.7968
2488	59.6033
2472	59.7656
2456	59.5425
2440	59.5852
2424	59.3098
2408	59.0857
2392	59.2296
2376	59.1843
2360	59.2314
2344	59.0044
2328	58.9852
2312	58.8245
2296	58.9041
2280	58.8665
2264	58.8506
2248	58.7181
2232	58.6334
2216	58.4867
2200	58.354
2184	58.3157
2168	58.2723
2152	58.2148
2136	58.0272
2120	57.9952
2104	57.8245
2088	57.9313
2072	57.8601
2056	57.6537
2040	57.6466
2024	57.4429
2008	57.5882
1992	57.4082
1976	57.3135
1960	57.3395
1944	57.221
1928	57.1217
1912	57.032
1896	56.9676
1880	56.8357
1864	56.6967
1848	56.6639
1832	56.5953
1816	56.5935
1800	56.504
1784	56.5778
1768	56.5726
1752	56.3486
1736	56.3125
1720	56.1311
1704	56.1749
1688	55.9869
1672	55.9481
1656	56.0663
1640	55.7116
1624	55.4308
1608	55.4515
1592	55.3394
1576	55.4566
1560	55.5997
1544	55.4936
1528	55.1976
1512	55.2436
1496	55.0551
1480	54.8382
1464	54.7987
1448	54.7102
1432	54.5938
1416	54.3989
1400	54.4807
1384	54.2091
1368	54.1789
1352	54.0955
1336	53.9835
1320	54.0137
1304	53.8628
1288	53.7687
1272	53.6038
1256	53.7852
1240	53.5283
1224	53.4558
1208	53.4399
1192	53.3039
1176	53.0917
1160	53.0931
1144	53.0025
1128	53.0005
1112	52.9988
1096	52.6054
1080	52.6123
1064	52.5356
1048	52.6632
1032	52.6384
1016	52.5022
1000	52.3568
984	 52.3301
968	 52.3623
952	 51.8331
936	 51.7344
920	 51.3643
904	 51.1004
888	 51.4888
872	 51.4663
856	 51.262
840	 51.1819
824	 51.2634
808	 51.1647
792	 51.1252
776	 51.1091
760	 50.5667
744	 50.5272
728	 50.2173
712	 50.3004
696	 50.2417
680	 49.4039
664	 49.5059
648	 49.5532
632	 49.3411
616	 49.2486
600	 48.7837
584	 48.8481
568	 47.9329
552	 47.9988
536	 47.5653
520	 46.561
504	 47.0828
488	 47.3804
472	 46.1496
456	 44.1059
440	 46.4792
424	 45.1356
408	 44.3729
392	 48.4198
376	 33.8693
370	 31.798