Folder: Masteroppgave/Bakgrunnsmateriale/MATLAB/FTIR/ftir_data/subBb/Mapping_121 (part 19)

File: C-4040-8_t39.asc
PE IR       SPECTRUM    SPECTRUM    ASCII       PEDS        1.60
  -1
C-C13E~1.ASC
17/03/27
17:39:17.00
17/03/27
17:39:43.00
tln
$C-4040-8_t0039$<tbV0>[0.0,-5.2,8.0,0.0,27,1,0]
27.028
64

2002,4.07
MIRTGS : RIGHTBACK : INTERNAL 2
MIR : ON : INTERNAL 2
OPTKBR

0.200000
8
8.000000
FILLER
RATIO
SPECTRUM
UNLOCKED 256

DOUBLE
64
COMBINED
1
0
0

0.002000
RATIO

1
0
TRUE
51149
0
LEFT NOT FITTED RIGHT NOT FITTED 0
NONE
NONE
15600
12
4.427000
51148
TRUE
1 0 8 72 0 0 0 0

15798

#HDR
-1
-1
#GR
µM
%T
2.38419e-05
0.0
2.000000
0.002000
12515
8
70.5129
9.921579
#DATA
2.000000	 63.7665
2.084000	 63.199
2.168000	 63.4209
2.252000	 62.6509
2.336000	 62.5597
2.420000	 62.5588
2.504000	 62.2187
2.588000	 61.6938
2.672000	 61.5462
2.756000	 61.0251
2.840000	 60.5419
2.924000	 59.9217
3.008000	 59.2698
3.092000	 58.7598
3.176000	 58.232
3.260000	 57.6408
3.344000	 57.0888
3.428000	 55.9808
3.512000	 55.6849
3.596000	 55.3629
3.680000	 54.6867
3.764000	 54.1773
3.848000	 53.6029
3.932000	 53.1715
4.016000	 52.3246
4.100000	 51.9043
4.184000	 51.5426
4.268000	 50.8889
4.352000	 50.2297
4.436000	 49.7651
4.520000	 49.4624
4.604000	 48.9851
4.688000	 48.6089
4.772000	 47.9385
4.856000	 47.4334
4.940000	 47.1813
5.024000	 46.781
5.108000	 46.3739
5.192000	 45.9767
5.276000	 45.4983
5.359999	 45.2828
5.444000	 45.0226
5.528000	 44.4879
5.612000	 44.1626
5.696000	 43.7959
5.780000	 43.2783
5.864000	 43.2524
5.948000	 42.8122
6.032000	 42.5789
6.116000	 42.3682
6.200000	 41.9367
6.284000	 41.6218
6.368000	 41.3355
6.452000	 41.1339
6.536000	 40.8819
6.620000	 40.6602
6.704000	 40.4905
6.788000	 40.0184
6.872000	 40.1231
6.956000	 39.7574
7.040000	 39.5115
7.124000	 39.2379
7.208000	 39.0621
7.292000	 38.7116
7.376000	 38.7526
7.460000	 38.446
7.544000	 38.387
7.628000	 38.0111
7.712000	 37.8305
7.796000	 37.7227
7.880000	 37.5951
7.964000	 37.3638
8.048000	 37.1771
8.132000	 37.1026
8.216000	 36.8252
8.300000	 36.4371
8.384000	 36.6732
8.468000	 36.3728
8.552000	 36.2135
8.635999	 36.0158
8.719999	 35.7913
8.804000	 35.6438
8.888000	 35.8577
8.972000	 35.1691
9.056000	 35.7996
9.140000	 35.2488
9.224000	 35.1466
9.308000	 34.6331
9.391999	 34.5435
9.475999	 34.6402
9.560000	 34.4179
9.644000	 34.4042
9.728000	 34.3298
9.812000	 34.3858
9.896000	 33.614
9.980000	 33.5082
10.064	33.7118
10.148	33.6424
10.232	33.5429
10.316	33.4348
10.4	33.0946
10.484	33.032
10.568	33.1065
10.652	32.8358
10.736	32.8273
10.82	32.795
10.904	32.4506
10.988	32.357
11.072	32.3619
11.156	32.1663
11.24	32.089
11.324	32.0383
11.408	31.8922
11.492	31.6043
11.576	31.7311
11.66	31.6719
11.744	31.4008
11.828	31.1768
11.912	31.0139
11.996	31.1138
12.08	30.9749
12.164	30.6584
12.248	30.736
12.332	30.6774
12.416	30.6549
12.5	30.4325
12.584	30.3617
12.668	30.2496
12.752	30.1911
12.836	30.0162
12.92	29.7862
13.004	29.6425
13.088	29.6209
13.172	29.6157
13.256	29.4194
13.34	29.322
13.424	29.437
13.508	29.2783
13.592	28.9737
13.676	28.7898
13.76	28.5425
13.844	28.4453
13.928	28.3796
14.012	28.235
14.096	28.1376
14.18	28.2546
14.264	28.2943
14.348	27.9583
14.432	27.6072
14.516	27.5
14.6	27.444
14.684	27.2888
14.768	27.1195
14.852	27.0944
14.936	27.1238
15.02	27.0567
15.104	26.9433
15.188	26.7515
15.272	26.5297
15.356	26.4478
15.44	26.4364
15.524	26.3722
15.608	26.3163
15.692	26.3611
15.776	26.3824
15.86	26.2474
15.944	26.1509
16.028	26.2037
16.112	26.1407
16.196	25.83
16.28	25.4919
16.364	25.3507
16.448	25.4468
16.532	25.6521
16.616	25.7801
16.7	25.7136
16.784	25.4389
16.868	25.0926
16.952	24.9092
17.036	24.9543
17.12	25.0513
17.204	25.0524
17.288	24.9558
17.372	24.7818
17.456	24.5457
17.54	24.3086
17.624	24.1209
17.708	23.9794
17.792	23.903
17.876	23.9437
17.96	24.0769
18.044	24.1667
18.128	24.0863
18.212	23.8432
18.296	23.5565
18.38	23.3387
18.464	23.2366
18.548	23.2329
18.632	23.247
18.716	23.1643
18.8	22.9132
18.884	22.5349
18.968	22.1666
19.052	21.9454
19.136	21.9129
19.22	21.9993
19.304	22.0821
19.388	22.082
19.472	22.0034
19.556	21.9053
19.64	21.8361
19.724	21.8031
19.808	21.7816
19.892	21.736
19.976	21.6423
20.06	21.5141
20.144	21.4151
20.228	21.4299
20.312	21.5905
20.396	21.821
20.48	21.9609
20.564	21.8664
20.648	21.5223
20.732	21.0541
20.816	20.6374
20.9	20.3814
20.984	20.2773
21.068	20.2364
21.152	20.1637
21.236	20.01
21.32	19.7845
21.404	19.5336
21.488	19.3164
21.572	19.1719
21.656	19.0947
21.74	19.0343
21.824	18.9276
21.908	18.7435
21.992	18.5103
22.076	18.302
22.16	18.1923
22.244	18.2067
22.328	18.3194
22.412	18.4729
22.496	18.5996
22.58	18.6411
22.664	18.5502
22.748	18.3046
22.832	17.931
22.916	17.5123
23	17.146
23.084	16.897
23.168	16.7481
23.252	16.6112
23.336	16.3919
23.42	16.0636
23.504	15.6966
23.588	15.4293
23.672	15.3686
23.756	15.5029
23.84	15.7168
23.924	15.8292
24.008	15.6983
24.092	15.312
24.176	14.8105
24.26	14.404
24.344	14.285
24.428	14.5389
24.512	15.139
24.596	16.0359
24.68	17.1393
24.764	18.2899
24.848	19.3578
24.932	20.2651
25.016	20.9792
25.1	21.4754
25.184	21.6049
25.268	21.0985
25.352	19.6565
25.436	17.3131
25.52	14.5198
25.604	11.9343
25.688	10.2766
25.772	9.979323
25.856	11.0133
25.94	12.8036
26.024	14.6311
26.108	16.1377
26.192	17.5035
26.276	19.3409
26.36	22.3672
26.444	27.0298
26.528	33.2026
26.612	40.2822
26.696	47.1901
26.78	52.6701
26.864	55.6207
26.948	55.3973
27.028	52.3703

File: C-4040-8_t39_cm-1.asc
PE IR       SPECTRUM    SPECTRUM    ASCII       PEDS        1.60
  -1
C-1BE0~1.ASC
17/03/27
17:39:17.00
17/03/27
17:39:17.00
tln
$C-4040-8_t0039$<tbV0>[0.0,-5.2,8.0,0.0,27,1,0]
370
64

2002,4.07
MIRTGS : RIGHTBACK : INTERNAL 2
MIR : ON : INTERNAL 2
OPTKBR

0.200000
8
8.000000
FILLER
RATIO
SPECTRUM
UNLOCKED 256

DOUBLE
64
COMBINED
1
0
0

1.000000
RATIO

1
0
TRUE
51149
0
LEFT NOT FITTED RIGHT NOT FITTED 0
NONE
NONE
15600
12
4.427000
51148
TRUE
1 0 8 72 0 0 0 0

15798

#HDR
-1
-1
#GR
CM-1
%T
2.38419e-05
0.0
5000
-1.000000
4631
8
70.5494
9.985065
#DATA
5000	63.7665
4984	63.376
4968	63.7217
4952	63.7314
4936	63.4383
4920	63.671
4904	63.3686
4888	63.6363
4872	63.3581
4856	63.6707
4840	63.5345
4824	63.6703
4808	63.2995
4792	63.4655
4776	63.4981
4760	63.4632
4744	63.7788
4728	63.2367
4712	63.32
4696	63.4581
4680	63.2982
4664	63.6181
4648	63.3502
4632	63.7648
4616	63.5163
4600	63.3526
4584	63.2405
4568	63.5357
4552	63.1779
4536	63.2576
4520	63.3945
4504	63.103
4488	62.7463
4472	62.8446
4456	62.9688
4440	62.6908
4424	63.4134
4408	62.4703
4392	63.1521
4376	64.5502
4360	63.5535
4344	67.0096
4328	62.9308
4312	63.0754
4296	62.7025
4280	62.5545
4264	62.9518
4248	62.9005
4232	62.7759
4216	62.486
4200	62.5339
4184	61.9443
4168	63.0719
4152	62.6199
4136	62.5441
4120	62.3329
4104	62.4751
4088	62.2942
4072	62.5621
4056	62.2273
4040	62.4094
4024	62.3126
4008	62.1286
3992	62.2431
3976	62.4063
3960	62.1216
3944	62.1451
3928	61.8239
3912	62.0382
3896	61.849
3880	62.2896
3864	61.6933
3848	61.7013
3832	61.5572
3816	61.6127
3800	61.6751
3784	61.3341
3768	61.5178
3752	61.5948
3736	61.5568
3720	61.4149
3704	61.439
3688	61.0894
3672	61.0895
3656	61.0625
3640	61.1387
3624	61.0747
3608	60.9735
3592	60.8079
3576	60.8366
3560	60.5824
3544	60.5953
3528	60.6472
3512	60.5964
3496	60.5681
3480	60.1747
3464	60.306
3448	60.333
3432	60.1565
3416	59.9246
3400	59.9432
3384	59.7909
3368	59.7238
3352	59.7679
3336	59.4429
3320	59.3511
3304	59.5164
3288	59.172
3272	59.1764
3256	59.063
3240	58.699
3224	58.6504
3208	58.6668
3192	58.6758
3176	58.4745
3160	58.3484
3144	58.1256
3128	57.8707
3112	58.4584
3096	58.0633
3080	57.7409
3064	57.6434
3048	57.5231
3032	57.3827
3016	57.2694
3000	57.0703
2984	57.1028
2968	56.9581
2952	56.6614
2936	56.4733
2920	56.0253
2904	56.0906
2888	56.1362
2872	56.0845
2856	55.7569
2840	55.8416
2824	55.6577
2808	55.5702
2792	55.3699
2776	55.3083
2760	55.1741
2744	55.0175
2728	54.8129
2712	54.6922
2696	54.5696
2680	54.4163
2664	54.342
2648	54.0789
2632	54.0241
2616	53.7294
2600	53.6031
2584	53.4373
2568	53.2813
2552	53.1744
2536	53.017
2520	53.0171
2504	52.5065
2488	52.3713
2472	52.2587
2456	51.9974
2440	51.9458
2424	51.5367
2408	51.5516
2392	51.6301
2376	51.2787
2360	51.1891
2344	50.9055
2328	50.7087
2312	50.5489
2296	50.2143
2280	50.1184
2264	49.8498
2248	49.835
2232	49.5862
2216	49.4801
2200	49.2497
2184	49.1222
2168	48.9465
2152	48.8888
2136	48.6382
2120	48.2677
2104	48.1537
2088	48.0389
2072	47.8312
2056	47.4107
2040	47.3108
2024	47.1801
2008	47.0065
1992	46.8229
1976	46.5322
1960	46.3433
1944	46.1535
1928	45.9958
1912	45.6923
1896	45.5018
1880	45.3861
1864	45.258
1848	44.9959
1832	44.9312
1816	44.5251
1800	44.4006
1784	44.2303
1768	43.9589
1752	43.7183
1736	43.4194
1720	43.3058
1704	43.2337
1688	42.9597
1672	42.7336
1656	42.5498
1640	42.4098
1624	42.1161
1608	41.9946
1592	41.6191
1576	41.4357
1560	41.3058
1544	41.0302
1528	40.8714
1512	40.6484
1496	40.4917
1480	40.2533
1464	39.9222
1448	39.8305
1432	39.6633
1416	39.4784
1400	39.1875
1384	38.9882
1368	38.6386
1352	38.6359
1336	38.4288
1320	38.1427
1304	37.9509
1288	37.8288
1272	37.6343
1256	37.3726
1240	37.1891
1224	37.0203
1208	36.4817
1192	36.6722
1176	36.2902
1160	36.028
1144	35.7581
1128	35.7467
1112	35.1326
1096	35.3001
1080	34.9339
1064	34.5679
1048	34.4616
1032	34.4339
1016	34.1726
1000	33.5731
984	 33.6453
968	 33.396
952	 33.0948
936	 32.7836
920	 32.6043
904	 32.3807
888	 32.0662
872	 31.651
856	 31.5991
840	 31.0194
824	 30.7051
808	 30.6816
792	 30.3091
776	 29.8706
760	 29.6299
744	 29.4404
728	 28.6055
712	 28.1784
696	 27.8579
680	 27.2384
664	 27.0064
648	 26.439
632	 26.3205
616	 25.6642
600	 25.7668
584	 25.0535
568	 24.1577
552	 24.1097
536	 23.2378
520	 22.0124
504	 21.7684
488	 21.9638
472	 20.1112
456	 18.6853
440	 18.3794
424	 15.4357
408	 15.1195
392	 14.8445
376	 38.8985
370	 52.3703

File: C-4040-8_t40.asc
PE IR       SPECTRUM    SPECTRUM    ASCII       PEDS        1.60
  -1
C-A53A~1.ASC
17/03/27
17:43:54.00
17/03/27
17:44:20.00
tln
$C-4040-8_t0040$<tbV0>[-2.6,-5.2,8.0,0.0,27,1,0]
27.028
64

2002,4.07
MIRTGS : RIGHTBACK : INTERNAL 2
MIR : ON : INTERNAL 2
OPTKBR

0.200000
8
8.000000
FILLER
RATIO
SPECTRUM
UNLOCKED 256

DOUBLE
64
COMBINED
1
0
0

0.002000
RATIO

1
0
TRUE
51149
0
LEFT NOT FITTED RIGHT NOT FITTED 0
NONE
NONE
15600
12
4.427000
51148
TRUE
1 0 8 72 0 0 0 0

15798

#HDR
-1
-1
#GR
µM
%T
2.38419e-05
0.0
2.000000
0.002000
12515
8
66.6639
0.586539
#DATA
2.000000	 63.4793
2.084000	 63.595
2.168000	 63.6746
2.252000	 63.5387
2.336000	 62.9468
2.420000	 62.7995
2.504000	 62.5166
2.588000	 62.1631
2.672000	 61.7188
2.756000	 61.2561
2.840000	 60.6612
2.924000	 60.2834
3.008000	 59.9266
3.092000	 59.3189
3.176000	 58.7272
3.260000	 58.2823
3.344000	 57.7406
3.428000	 56.775
3.512000	 56.5542
3.596000	 56.054
3.680000	 55.3952
3.764000	 54.9235
3.848000	 54.4546
3.932000	 54.0042
4.016000	 53.398
4.100000	 52.7779
4.184000	 52.3142
4.268000	 51.8619
4.352000	 51.4283
4.436000	 50.9302
4.520000	 50.477
4.604000	 50.0714
4.688000	 49.7074
4.772000	 49.2246
4.856000	 48.7733
4.940000	 48.3452
5.024000	 48.0095
5.108000	 47.5945
5.192000	 47.217
5.276000	 46.8351
5.359999	 46.4852
5.444000	 46.2368
5.528000	 45.8406
5.612000	 45.6106
5.696000	 45.2637
5.780000	 44.744
5.864000	 44.6688
5.948000	 44.3117
6.032000	 44.0543
6.116000	 43.7214
6.200000	 43.3898
6.284000	 43.211
6.368000	 42.9782
6.452000	 42.5689
6.536000	 42.352
6.620000	 42.1388
6.704000	 41.9616
6.788000	 41.653
6.872000	 41.6204
6.956000	 41.1461
7.040000	 41.1076
7.124000	 40.841
7.208000	 40.6504
7.292000	 40.4098
7.376000	 40.2382
7.460000	 39.8828
7.544000	 39.8657
7.628000	 39.7639
7.712000	 39.6409
7.796000	 39.3251
7.880000	 39.2159
7.964000	 39.1158
8.048000	 38.9035
8.132000	 38.7116
8.216000	 38.5032
8.300000	 38.3537
8.384000	 38.4176
8.468000	 37.9739
8.552000	 37.9721
8.635999	 37.4715
8.719999	 37.5262
8.804000	 37.1463
8.888000	 37.239
8.972000	 37.4106
9.056000	 37.0176
9.140000	 37.0882
9.224000	 37.1883
9.308000	 36.462
9.391999	 36.2233
9.475999	 36.3274
9.560000	 36.2954
9.644000	 36.1048
9.728000	 35.9888
9.812000	 36.0365
9.896000	 35.6631
9.980000	 35.3534
10.064	35.4251
10.148	35.5263
10.232	35.2831
10.316	35.1016
10.4	34.9804
10.484	35.0594
10.568	34.8593
10.652	34.6298
10.736	34.6201
10.82	34.4654
10.904	34.4035
10.988	34.3015
11.072	34.3386
11.156	34.2497
11.24	33.9759
11.324	33.7604
11.408	33.8042
11.492	33.6224
11.576	33.4336
11.66	33.3788
11.744	33.2805
11.828	33.1416
11.912	33.0788
11.996	33.0078
12.08	32.6997
12.164	32.6344
12.248	32.8846
12.332	32.7675
12.416	32.5722
12.5	32.2548
12.584	32.0786
12.668	31.9845
12.752	32.0614
12.836	32.0813
12.92	31.8619
13.004	31.6297
13.088	31.5959
13.172	31.5904
13.256	31.4626
13.34	31.2658
13.424	31.1357
13.508	31.239
13.592	31.3089
13.676	31.0869
13.76	30.8676
13.844	30.8517
13.928	30.8685
14.012	30.6602
14.096	30.3539
14.18	30.0831
14.264	29.827
14.348	29.7697
14.432	29.7986
14.516	29.6592
14.6	29.6172
14.684	29.6755
14.768	29.4825
14.852	29.1401
14.936	29.0371
15.02	29.1059
15.104	29.0401
15.188	28.8544
15.272	28.6829
15.356	28.5955
15.44	28.5416
15.524	28.4095
15.608	28.3061
15.692	28.3627
15.776	28.4053
15.86	28.3472
15.944	28.3401
16.028	28.3291
16.112	28.1695
16.196	27.9825
16.28	27.9102
16.364	27.8832
16.448	27.8069
16.532	27.7135
16.616	27.617
16.7	27.4521
16.784	27.2259
16.868	27.0196
16.952	26.8526
17.036	26.7082
17.12	26.6054
17.204	26.5636
17.288	26.5988
17.372	26.6846
17.456	26.694
17.54	26.528
17.624	26.2639
17.708	26.0463
17.792	25.9058
17.876	25.7963
17.96	25.731
18.044	25.7686
18.128	25.8988
18.212	25.9935
18.296	25.9089
18.38	25.6367
18.464	25.317
18.548	25.0827
18.632	24.9371
18.716	24.8141
18.8	24.7039
18.884	24.6561
18.968	24.6965
19.052	24.8094
19.136	24.9661
19.22	25.1196
19.304	25.1863
19.388	25.093
19.472	24.8562
19.556	24.5683
19.64	24.3053
19.724	24.0728
19.808	23.8406
19.892	23.5926
19.976	23.3424
20.06	23.1198
20.144	22.9466
20.228	22.8281
20.312	22.7615
20.396	22.7491
20.48	22.8051
20.564	22.9305
20.648	23.0843
20.732	23.1787
20.816	23.135
20.9	22.9419
20.984	22.6632
21.068	22.395
21.152	22.2143
21.236	22.1505
21.32	22.1877
21.404	22.2908
21.488	22.4128
21.572	22.5037
21.656	22.5068
21.74	22.3678
21.824	22.0536
21.908	21.5753
21.992	21.0042
22.076	20.456
22.16	20.0348
22.244	19.7725
22.328	19.615
22.412	19.4888
22.496	19.3669
22.58	19.304
22.664	19.3935
22.748	19.7013
22.832	20.2145
22.916	20.8356
23	21.406
23.084	21.785
23.168	21.8779
23.252	21.6697
23.336	21.2245
23.42	20.6246
23.504	19.97
23.588	19.3308
23.672	18.7303
23.756	18.1681
23.84	17.6411
23.924	17.107
24.008	16.5277
24.092	15.918
24.176	15.3196
24.26	14.7891
24.344	14.4168
24.428	14.3145
24.512	14.5841
24.596	15.3141
24.68	16.5217
24.764	18.104
24.848	19.9049
24.932	21.8275
25.016	23.8747
25.1	26.0982
25.184	28.4246
25.268	30.5357
25.352	31.9054
25.436	31.7695
25.52	29.4828
25.604	24.8783
25.688	18.4104
25.772	11.2863
25.856	5.161781
25.94	1.394690
26.024	0.716910
26.108	3.043024
26.192	7.832270
26.276	14.3799
26.36	22.1506
26.444	30.3282
26.528	37.8025
26.612	43.1379
26.696	45.2924
26.78	44.104
26.864	40.6208
26.948	36.5774
27.028	33.5709

File: C-4040-8_t40_cm-1.asc
PE IR       SPECTRUM    SPECTRUM    ASCII       PEDS        1.60
  -1
C-9B61~1.ASC
17/03/27
17:43:54.00
17/03/27
17:43:54.00
tln
$C-4040-8_t0040$<tbV0>[-2.6,-5.2,8.0,0.0,27,1,0]
370
64

2002,4.07
MIRTGS : RIGHTBACK : INTERNAL 2
MIR : ON : INTERNAL 2
OPTKBR

0.200000
8
8.000000
FILLER
RATIO
SPECTRUM
UNLOCKED 256

DOUBLE
64
COMBINED
1
0
0

1.000000
RATIO

1
0
TRUE
51149
0
LEFT NOT FITTED RIGHT NOT FITTED 0
NONE
NONE
15600
12
4.427000
51148
TRUE
1 0 8 72 0 0 0 0

15798

#HDR
-1
-1
#GR
CM-1
%T
2.38419e-05
0.0
5000
-1.000000
4631
8
67.031
0.731563
#DATA
5000	63.4793
4984	63.4781
4968	63.3488
4952	63.7884
4936	63.2123
4920	63.5003
4904	63.6137
4888	63.4654
4872	63.4205
4856	63.9723
4840	63.6317
4824	63.7797
4808	63.5578
4792	63.842
4776	63.3587
4760	63.8661
4744	63.6772
4728	63.6281
4712	63.6021
4696	63.5825
4680	63.4906
4664	63.8934
4648	63.1832
4632	63.6269
4616	63.7312
4600	63.6564
4584	63.2522
4568	63.203
4552	63.4619
4536	63.2319
4520	63.4692
4504	63.4838
4488	63.3845
4472	62.9317
4456	63.5606
4440	63.5524
4424	63.2508
4408	62.6905
4392	63.666
4376	65.2874
4360	63.2701
4344	64.7534
4328	64.1658
4312	63.4342
4296	63.2663
4280	62.956
4264	63.1612
4248	63.0074
4232	63.245
4216	63.0177
4200	62.6849
4184	62.9424
4168	62.6122
4152	62.8679
4136	63.0249
4120	62.5514
4104	62.5392
4088	62.6063
4072	62.5927
4056	62.326
4040	62.4703
4024	62.4703
4008	62.3593
3992	62.5497
3976	62.4152
3960	62.3131
3944	62.2185
3928	62.1959
3912	61.9063
3896	62.1886
3880	62.3763
3864	62.1629
3848	61.7041
3832	61.9419
3816	62.122
3800	61.9019
3784	61.7387
3768	61.9755
3752	61.8858
3736	61.7249
3720	61.5799
3704	61.5946
3688	61.6054
3672	61.4362
3656	61.1979
3640	61.3063
3624	61.2529
3608	61.198
3592	61.211
3576	60.991
3560	60.8911
3544	60.9644
3528	60.8517
3512	60.7379
3496	60.8619
3480	60.4136
3464	60.6247
3448	60.5067
3432	60.4072
3416	60.3209
3400	60.2468
3384	59.8683
3368	59.7987
3352	59.9758
3336	59.9173
3320	59.9032
3304	59.6912
3288	59.3606
3272	59.5488
3256	59.6891
3240	59.2529
3224	59.0821
3208	59.0105
3192	58.9371
3176	58.8714
3160	58.9515
3144	58.6766
3128	58.7647
3112	58.6137
3096	58.4788
3080	58.3129
3064	58.1901
3048	58.0123
3032	57.9707
3016	57.8916
3000	57.6708
2984	57.7297
2968	57.6003
2952	57.2919
2936	56.986
2920	56.8688
2904	56.9128
2888	56.8367
2872	56.5889
2856	56.356
2840	56.6259
2824	56.414
2808	56.2739
2792	56.1698
2776	55.9685
2760	55.8413
2744	55.759
2728	55.4888
2712	55.36
2696	55.3759
2680	55.0788
2664	54.9763
2648	54.792
2632	54.7184
2616	54.4011
2600	54.4416
2584	54.2388
2568	54.0975
2552	54.1105
2536	53.9001
2520	53.7694
2504	53.431
2488	53.4451
2472	53.1958
2456	52.9973
2440	52.8144
2424	52.6847
2408	52.5301
2392	52.3159
2376	52.206
2360	52.0355
2344	51.8791
2328	51.7074
2312	51.4909
2296	51.4287
2280	51.2506
2264	50.9894
2248	50.8001
2232	50.6908
2216	50.5323
2200	50.3706
2184	50.2215
2168	50.0338
2152	49.773
2136	49.731
2120	49.3938
2104	49.2227
2088	49.2243
2072	48.9969
2056	48.708
2040	48.4844
2024	48.3457
2008	48.3015
1992	48.0524
1976	47.823
1960	47.5813
1944	47.3365
1928	47.2419
1912	47.14
1896	46.8394
1880	46.6784
1864	46.4782
1848	46.2011
1832	46.0963
1816	45.9247
1800	45.6492
1784	45.6698
1768	45.2685
1752	45.2104
1736	44.8107
1720	44.6903
1704	44.6406
1688	44.3744
1672	44.1979
1656	44.0098
1640	43.806
1624	43.591
1608	43.3218
1592	43.2083
1576	42.9461
1560	42.7473
1544	42.554
1528	42.3574
1512	42.1379
1496	41.993
1480	41.8115
1464	41.4515
1448	41.4237
1432	41.1837
1416	41.0866
1400	40.7257
1384	40.6893
1368	40.3002
1352	40.1715
1336	39.9497
1320	39.749
1304	39.6643
1288	39.4411
1272	39.1975
1256	39.1239
1240	38.86
1224	38.5614
1208	38.4147
1192	38.3987
1176	38.0766
1160	37.5158
1144	37.4722
1128	37.2473
1112	37.3225
1096	37.1054
1080	36.9225
1064	36.2227
1048	36.3447
1032	36.029
1016	35.9405
1000	35.3686
984	 35.4968
968	 35.0687
952	 35.0491
936	 34.5928
920	 34.406
904	 34.3327
888	 33.8875
872	 33.7117
856	 33.3577
840	 33.0826
824	 32.5781
808	 32.6708
792	 32.0271
776	 31.9656
760	 31.5994
744	 31.137
728	 30.9112
712	 30.5372
696	 29.7847
680	 29.6569
664	 29.0978
648	 28.5492
632	 28.3758
616	 27.9358
600	 27.5283
584	 26.6026
568	 26.3217
552	 25.8784
536	 24.9009
520	 25.1349
504	 23.7442
488	 22.8188
472	 22.1741
456	 21.4315
440	 19.6041
424	 19.3537
408	 14.5714
392	 29.8716
376	 42.3441
370	 33.5709

File: C-4040-8_t41.asc
PE IR       SPECTRUM    SPECTRUM    ASCII       PEDS        1.60
  -1
C-A53E~1.ASC
17/03/27
17:48:30.00
17/03/27
17:48:56.00
tln
$C-4040-8_t0041$<tbV0>[-5.2,-5.2,8.0,0.0,27,1,0]
27.028
64

2002,4.07
MIRTGS : RIGHTBACK : INTERNAL 2
MIR : ON : INTERNAL 2
OPTKBR

0.200000
8
8.000000
FILLER
RATIO
SPECTRUM
UNLOCKED 256

DOUBLE
64
COMBINED
1
0
0

0.002000
RATIO

1
0
TRUE
51149
0
LEFT NOT FITTED RIGHT NOT FITTED 0
NONE
NONE
15600
12
4.427000
51148
TRUE
1 0 8 72 0 0 0 0

15798

#HDR
-1
-1
#GR
µM
%T
2.38419e-05
0.0
2.000000
0.002000
12515
8
78.0812
16.2821
#DATA
2.000000	 63.6328
2.084000	 63.3825
2.168000	 63.6782
2.252000	 62.7813
2.336000	 62.2624
2.420000	 62.7865
2.504000	 62.7082
2.588000	 61.9371
2.672000	 61.7497
2.756000	 61.4179
2.840000	 61.0624
2.924000	 60.3774
3.008000	 59.93
3.092000	 59.469
3.176000	 58.8123
3.260000	 58.4701
3.344000	 57.7918
3.428000	 57.1179
3.512000	 56.6432
3.596000	 56.3128
3.680000	 55.8667
3.764000	 55.3022
3.848000	 54.7503
3.932000	 54.3084
4.016000	 53.7323
4.100000	 53.2003
4.184000	 52.8038
4.268000	 52.3448
4.352000	 51.7824
4.436000	 51.4251
4.520000	 50.8978
4.604000	 50.5575
4.688000	 50.106
4.772000	 49.6388
4.856000	 49.4459
4.940000	 48.9338
5.024000	 48.6454
5.108000	 48.2165
5.192000	 47.8613
5.276000	 47.3478
5.359999	 47.0378
5.444000	 46.7206
5.528000	 46.4764
5.612000	 46.1696
5.696000	 45.8003
5.780000	 45.3513
5.864000	 45.3595
5.948000	 44.9658
6.032000	 44.5472
6.116000	 44.3029
6.200000	 44.172
6.284000	 43.8714
6.368000	 43.4775
6.452000	 43.4712
6.536000	 43.0937
6.620000	 42.9199
6.704000	 42.7127
6.788000	 42.54
6.872000	 42.2016
6.956000	 42.0087
7.040000	 41.8767
7.124000	 41.6734
7.208000	 41.4013
7.292000	 41.176
7.376000	 41.0644
7.460000	 40.8478
7.544000	 40.6266
7.628000	 40.4836
7.712000	 40.3651
7.796000	 40.1216
7.880000	 39.9546
7.964000	 39.8177
8.048000	 39.628
8.132000	 39.4985
8.216000	 39.3362
8.300000	 39.1277
8.384000	 39.1353
8.468000	 38.8513
8.552000	 38.8515
8.635999	 38.6977
8.719999	 38.4929
8.804000	 38.7477
8.888000	 37.8398
8.972000	 37.9389
9.056000	 37.943
9.140000	 38.062
9.224000	 37.793
9.308000	 37.4994
9.391999	 37.2878
9.475999	 37.182
9.560000	 37.3014
9.644000	 37.2583
9.728000	 36.9946
9.812000	 37.1172
9.896000	 36.6823
9.980000	 36.3015
10.064	36.3443
10.148	36.4758
10.232	36.2579
10.316	35.9836
10.4	35.8537
10.484	35.8384
10.568	35.7186
10.652	35.5643
10.736	35.5749
10.82	35.3901
10.904	35.4976
10.988	35.2883
11.072	35.051
11.156	34.9614
11.24	35.1612
11.324	34.773
11.408	34.6651
11.492	34.4769
11.576	34.4268
11.66	34.4075
11.744	34.1629
11.828	34.1177
11.912	34.0377
11.996	34.0919
12.08	33.8477
12.164	33.8235
12.248	33.6703
12.332	33.5032
12.416	33.3916
12.5	33.3892
12.584	33.3496
12.668	33.2468
12.752	33.135
12.836	33.02
12.92	32.6821
13.004	32.3834
13.088	32.3953
13.172	32.6436
13.256	32.5182
13.34	32.1328
13.424	32.0179
13.508	32.006
13.592	31.983
13.676	31.7042
13.76	31.472
13.844	31.399
13.928	31.3251
14.012	31.3338
14.096	31.4887
14.18	31.5454
14.264	31.2541
14.348	30.8897
14.432	30.7928
14.516	30.7861
14.6	30.6847
14.684	30.4895
14.768	30.3435
14.852	30.299
14.936	30.1627
15.02	29.9395
15.104	29.8298
15.188	29.7913
15.272	29.6728
15.356	29.5952
15.44	29.6994
15.524	29.7007
15.608	29.3632
15.692	29.0229
15.776	28.956
15.86	29.0083
15.944	29.0544
16.028	29.0754
16.112	28.9515
16.196	28.6459
16.28	28.3659
16.364	28.3179
16.448	28.4625
16.532	28.6229
16.616	28.6669
16.7	28.531
16.784	28.2503
16.868	27.994
16.952	27.8854
17.036	27.8463
17.12	27.7384
17.204	27.5572
17.288	27.4288
17.372	27.458
17.456	27.579
17.54	27.5726
17.624	27.3046
17.708	26.9196
17.792	26.6899
17.876	26.7021
17.96	26.7937
18.044	26.7847
18.128	26.6638
18.212	26.5482
18.296	26.5253
18.38	26.5447
18.464	26.4902
18.548	26.3306
18.632	26.1577
18.716	26.0513
18.8	25.9677
18.884	25.8122
18.968	25.606
19.052	25.4938
19.136	25.5564
19.22	25.6788
19.304	25.6573
19.388	25.4175
19.472	25.0722
19.556	24.7855
19.64	24.6218
19.724	24.5455
19.808	24.5121
19.892	24.5169
19.976	24.5613
20.06	24.6167
20.144	24.6309
20.228	24.5726
20.312	24.4593
20.396	24.344
20.48	24.2717
20.564	24.2445
20.648	24.2218
20.732	24.151
20.816	23.9996
20.9	23.7695
20.984	23.488
21.068	23.1967
21.152	22.9439
21.236	22.7755
21.32	22.7189
21.404	22.76
21.488	22.8503
21.572	22.9327
21.656	22.9759
21.74	22.9802
21.824	22.9627
21.908	22.9254
21.992	22.8397
22.076	22.6736
22.16	22.4312
22.244	22.173
22.328	21.9869
22.412	21.9303
22.496	21.9787
22.58	22.0388
22.664	22.0087
22.748	21.8433
22.832	21.5766
22.916	21.279
23	20.9801
23.084	20.6338
23.168	20.1663
23.252	19.5732
23.336	18.9591
23.42	18.4971
23.504	18.3546
23.588	18.5832
23.672	19.0849
23.756	19.6433
23.84	20.0114
23.924	20.0263
24.008	19.6734
24.092	19.0862
24.176	18.4965
24.26	18.1161
24.344	18.0441
24.428	18.2059
24.512	18.3673
24.596	18.3084
24.68	17.9236
24.764	17.2764
24.848	16.6085
24.932	16.2827
25.016	16.6089
25.1	17.7348
25.184	19.4899
25.268	21.4722
25.352	23.3078
25.436	24.7712
25.52	25.9549
25.604	27.2118
25.688	28.748
25.772	30.4408
25.856	31.9113
25.94	32.757
26.024	32.7789
26.108	32.1509
26.192	31.5033
26.276	31.6763
26.36	33.4437
26.444	36.9845
26.528	41.7976
26.612	46.8167
26.696	51.0472
26.78	54.027
26.864	56.2485
26.948	58.8142
27.028	62.3085