Folder: Masteroppgave/Bakgrunnsmateriale/MATLAB/FTIR/ftir_data/subBb/Mapping_36 (part 5)

File: C-4040-8_t07_cm-1.asc
PE IR       SPECTRUM    SPECTRUM    ASCII       PEDS        1.60
  -1
C-99EF~1.ASC
17/05/02
11:23:29.00
17/05/02
11:23:29.00
tln
$C-4040-8_t0007$<tbV0>[12.5,-8.0,8.0,0.0,22,1,0]
370
64

2002,4.07
MIRTGS : RIGHTBACK : INTERNAL 2
MIR : ON : INTERNAL 2
OPTKBR

0.200000
8
8.000000
FILLER
RATIO
SPECTRUM
UNLOCKED 256

DOUBLE
64
COMBINED
1
0
0

1.000000
RATIO

1
0
TRUE
51149
0
LEFT NOT FITTED RIGHT NOT FITTED 0
NONE
NONE
15600
12
4.427000
51148
TRUE
1 0 8 72 0 0 0 0

15798

#HDR
-1
-1
#GR
CM-1
%T
2.38419e-05
0.0
7800
-1.000000
7431
8
94.1918
48.7352
#DATA
7800	68.295
7775	64.9202
7750	74.5451
7725	61.4413
7700	59.0439
7675	68.9445
7650	69.1484
7625	69.8408
7600	62.5014
7575	64.9732
7550	67.2242
7525	62.33
7500	63.3574
7475	63.3147
7450	66.3743
7425	65.7231
7400	69.0374
7375	62.0822
7350	61.4986
7325	66.2759
7300	61.7358
7275	65.1817
7250	63.7119
7225	67.2227
7200	63.26
7175	62.7694
7150	64.2719
7125	63.1125
7100	64.807
7075	64.8994
7050	62.9501
7025	63.1911
7000	67.8104
6975	66.5083
6950	63.7819
6925	63.6386
6900	63.8571
6875	62.1718
6850	63.5259
6825	63.8927
6800	64.8186
6775	63.4034
6750	65.3977
6725	64.2185
6700	65.6811
6675	63.3364
6650	63.6198
6625	64.1807
6600	66.9314
6575	66.3026
6550	64.5228
6525	65.4282
6500	64.7315
6475	64.2627
6450	66.1863
6425	63.09
6400	64.9821
6375	65.0675
6350	65.6932
6325	64.6556
6300	64.3783
6275	65.2148
6250	65.5695
6225	65.943
6200	65.0764
6175	64.7177
6150	64.6129
6125	64.6712
6100	64.2608
6075	65.2719
6050	64.9414
6025	65.3642
6000	64.9934
5975	64.9106
5950	63.8465
5925	64.0589
5900	64.8695
5875	64.7303
5850	64.466
5825	64.2302
5800	65.2229
5775	64.3141
5750	64.9258
5725	64.3493
5700	64.1324
5675	65.5962
5650	64.4349
5625	64.3682
5600	65.3864
5575	65.0755
5550	65.3593
5525	65.1425
5500	65.9144
5475	65.0475
5450	65.1905
5425	65.1089
5400	64.5681
5375	64.8586
5350	64.2279
5325	63.3637
5300	64.7229
5275	68.1589
5250	64.4001
5225	62.719
5200	65.6798
5175	66.5433
5150	64.9956
5125	65.2793
5100	64.9078
5075	64.7689
5050	64.5613
5025	64.4899
5000	64.9352
4975	64.67
4950	64.8211
4925	64.6044
4900	64.8247
4875	64.9633
4850	64.5988
4825	65.145
4800	64.8756
4775	64.5214
4750	64.8597
4725	65.1643
4700	65.2731
4675	64.7961
4650	65.0637
4625	64.9504
4600	65.1687
4575	64.7782
4550	64.8527
4525	64.2246
4500	64.5641
4475	63.9269
4450	64.1135
4425	64.3481
4400	66.0126
4375	65.8573
4350	64.4209
4325	64.4119
4300	64.7488
4275	64.2818
4250	64.41
4225	64.6515
4200	64.8643
4175	64.9402
4150	64.9192
4125	65.1337
4100	65.2466
4075	65.2971
4050	65.1159
4025	65.3144
4000	65.0109
3975	65.152
3950	65.1456
3925	64.8546
3900	65.0395
3875	65.1776
3850	65.0689
3825	65.0852
3800	65.0537
3775	64.994
3750	65.2126
3725	65.0754
3700	65.0426
3675	65.1911
3650	65.17
3625	65.1536
3600	65.1886
3575	65.2437
3550	65.0466
3525	65.1263
3500	65.019
3475	65.2365
3450	65.2082
3425	65.024
3400	65.0016
3375	64.9922
3350	65.0575
3325	64.9153
3300	64.9399
3275	65.0424
3250	65.074
3225	64.9573
3200	65.154
3175	65.0676
3150	65.3119
3125	65.0269
3100	65.0713
3075	65.1707
3050	65.044
3025	65.1666
3000	64.9994
2975	64.9406
2950	64.8882
2925	64.7225
2900	64.9938
2875	64.908
2850	65.0546
2825	65.0928
2800	65.1983
2775	65.2013
2750	65.0864
2725	65.2037
2700	65.2011
2675	65.1315
2650	65.1078
2625	65.1631
2600	65.1901
2575	65.0587
2550	65.1822
2525	65.2279
2500	65.2732
2475	65.2325
2450	65.2091
2425	65.2401
2400	65.3348
2375	65.2422
2350	65.177
2325	65.2872
2300	65.2864
2275	65.2199
2250	65.1195
2225	65.269
2200	65.1447
2175	65.1896
2150	65.1445
2125	65.1139
2100	65.1981
2075	65.2636
2050	65.1322
2025	65.0606
2000	65.156
1975	65.1851
1950	65.1981
1925	65.1766
1900	65.1463
1875	65.1592
1850	65.1572
1825	65.2262
1800	65.1637
1775	65.2974
1750	65.1178
1725	64.9186
1700	65.2702
1675	65.0112
1650	65.0723
1625	65.0959
1600	65.0258
1575	65.1076
1550	65.1156
1525	65.0359
1500	65.079
1475	65.1012
1450	64.9066
1425	65.0663
1400	65.0578
1375	64.829
1350	64.9274
1325	64.9847
1300	64.8881
1275	64.8825
1250	64.8284
1225	64.7192
1200	65.0025
1175	64.7912
1150	64.719
1125	64.9261
1100	64.7816
1075	64.7329
1050	64.6132
1025	64.572
1000	64.8234
975	 64.6649
950	 64.4242
925	 64.5021
900	 64.5604
875	 65.4758
850	 64.6415
825	 63.2094
800	 63.7585
775	 63.9832
750	 63.6925
725	 63.5673
700	 63.3151
675	 62.8628
650	 62.9311
625	 62.61
600	 62.9552
575	 62.3525
550	 61.7364
525	 61.0595
500	 59.7543
475	 59.4163
450	 58.9183
425	 59.016
400	 54.8568
375	 93.4935
370	 75.6492

File: C-4040-8_t08.asc
PE IR       SPECTRUM    SPECTRUM    ASCII       PEDS        1.60
  -1
C-C52A~1.ASC
17/05/02
11:28:10.00
17/05/02
11:28:37.00
tln
$C-4040-8_t0008$<tbV0>[7.5,-8.0,8.0,0.0,22,1,0]
27.028
64

2002,4.07
MIRTGS : RIGHTBACK : INTERNAL 2
MIR : ON : INTERNAL 2
OPTKBR

0.200000
8
8.000000
FILLER
RATIO
SPECTRUM
UNLOCKED 256

DOUBLE
64
COMBINED
1
0
0

0.002000
RATIO

1
0
TRUE
51149
0
LEFT NOT FITTED RIGHT NOT FITTED 0
NONE
NONE
15600
12
4.427000
51148
TRUE
1 0 8 72 0 0 0 0

15798

#HDR
-1
-1
#GR
µM
%T
2.38419e-05
0.0
1.282000
0.002000
12874
8
81.174
9.971926
#DATA
1.282000	 61.8007
1.368000	 67.5948
1.454000	 63.153
1.540000	 63.1895
1.626000	 64.2482
1.712000	 63.5234
1.798000	 63.3387
1.884000	 60.6157
1.970000	 63.4429
2.056000	 62.6781
2.142000	 62.8476
2.228000	 61.7402
2.314000	 61.4207
2.400000	 61.5111
2.486000	 61.1628
2.572000	 60.3785
2.658000	 60.079
2.744000	 59.4609
2.830000	 58.6979
2.916000	 57.9276
3.002000	 57.208
3.088000	 56.4319
3.174000	 55.8251
3.260000	 54.959
3.346000	 54.1402
3.432000	 53.1381
3.518000	 52.5483
3.604000	 52.0289
3.690000	 51.1709
3.776000	 50.3985
3.862000	 49.6467
3.948000	 48.9101
4.034000	 48.3774
4.120000	 47.647
4.206000	 47.0778
4.292000	 46.3802
4.378000	 45.8027
4.464000	 45.2832
4.550000	 44.587
4.636000	 44.1105
4.722000	 43.4924
4.808000	 42.8889
4.894000	 42.4919
4.980000	 41.9787
5.066000	 41.5674
5.152000	 41.034
5.238000	 40.5002
5.324000	 40.1148
5.410000	 39.7328
5.496000	 39.4021
5.582000	 38.9207
5.668000	 38.5056
5.754000	 38.0525
5.840000	 37.7505
5.926000	 37.4466
6.012000	 37.0852
6.098000	 36.8861
6.184000	 36.4541
6.270000	 36.1218
6.356000	 35.7617
6.442000	 35.484
6.528000	 35.1298
6.614000	 34.9917
6.700000	 34.7819
6.786000	 34.4171
6.872000	 34.1658
6.958000	 34.033
7.044000	 33.8371
7.130000	 33.3297
7.216000	 33.3565
7.302000	 33.0513
7.388000	 32.8165
7.474000	 32.6828
7.560000	 32.5486
7.646000	 32.1898
7.732000	 31.9114
7.818000	 31.79
7.904000	 31.5478
7.990000	 31.4283
8.076000	 31.2393
8.161999	 31.0334
8.248000	 30.8815
8.334000	 30.7993
8.420000	 30.5075
8.506000	 30.3623
8.592000	 30.3165
8.678000	 30.0829
8.763999	 29.9083
8.850000	 29.7608
8.936000	 29.581
9.022000	 29.3066
9.108000	 29.1848
9.193999	 29.2084
9.280000	 29.0913
9.366000	 28.8302
9.452000	 28.8831
9.538000	 28.7169
9.624000	 28.4912
9.710000	 28.3311
9.795999	 28.3373
9.882000	 27.9039
9.968000	 27.9842
10.054	27.8505
10.14	27.6244
10.226	27.7204
10.312	27.4317
10.398	27.2834
10.484	27.1061
10.57	27.2793
10.656	26.9361
10.742	26.6352
10.828	26.3391
10.914	26.4139
11	26.169
11.086	26.7168
11.172	26.5227
11.258	26.3785
11.344	25.4493
11.43	25.4961
11.516	25.7147
11.602	25.6137
11.688	24.8904
11.774	24.8217
11.86	25.028
11.946	25.2079
12.032	24.8907
12.118	24.7917
12.204	24.9682
12.29	24.9738
12.376	24.6067
12.462	24.5247
12.548	24.6238
12.634	24.5109
12.72	24.4355
12.806	24.1416
12.892	23.83
12.978	23.8132
13.064	23.7287
13.15	23.4914
13.236	23.4396
13.322	23.314
13.408	23.1332
13.494	23.0541
13.58	22.8604
13.666	22.8052
13.752	22.8966
13.838	22.9356
13.924	22.7617
14.01	22.3676
14.096	22.0962
14.182	21.9768
14.268	22.0305
14.354	22.1755
14.44	22.1497
14.526	21.8799
14.612	21.6585
14.698	21.6145
14.784	21.5619
14.87	21.4044
14.956	21.2759
15.042	21.2665
15.128	21.2465
15.214	21.1414
15.3	20.9301
15.386	20.6569
15.472	20.4512
15.558	20.2981
15.644	20.0931
15.73	19.945
15.816	20.0342
15.902	20.2061
15.988	20.1957
16.074	20.0477
16.16	19.8887
16.246	19.6867
16.332	19.4386
16.418	19.2512
16.504	19.143
16.59	19.0357
16.676	18.9405
16.762	18.9111
16.848	18.9455
16.934	19.0186
17.02	19.0784
17.106	19.024
17.192	18.813
17.278	18.5869
17.364	18.5438
17.45	18.6461
17.536	18.6053
17.622	18.2756
17.708	17.8726
17.794	17.6783
17.88	17.7022
17.966	17.7386
18.052	17.6455
18.138	17.437
18.224	17.178
18.31	16.9194
18.396	16.7268
18.482	16.6607
18.568	16.6981
18.654	16.7384
18.74	16.7139
18.826	16.6567
18.912	16.633
18.998	16.6517
19.084	16.6648
19.17	16.6291
19.256	16.5368
19.342	16.4002
19.428	16.2404
19.514	16.0762
19.6	15.9027
19.686	15.6906
19.772	15.4193
19.858	15.1114
19.944	14.8243
20.03	14.62
20.116	14.5356
20.202	14.5667
20.288	14.6571
20.374	14.7086
20.46	14.6421
20.546	14.4683
20.632	14.2985
20.718	14.2628
20.804	14.3984
20.89	14.613
20.976	14.7499
21.062	14.708
21.148	14.5088
21.234	14.2736
21.32	14.1295
21.406	14.1278
21.492	14.2127
21.578	14.264
21.664	14.1722
21.75	13.8965
21.836	13.4892
21.922	13.0666
22.008	12.7502
22.094	12.6051
22.18	12.6236
22.266	12.7471
22.352	12.8979
22.438	13.0245
22.524	13.1163
22.61	13.1906
22.696	13.2759
22.782	13.378
22.868	13.4691
22.954	13.4971
23.04	13.4182
23.126	13.2178
23.212	12.9278
23.298	12.5982
23.384	12.2577
23.47	11.8895
23.556	11.4537
23.642	10.9494
23.728	10.467
23.814	10.1514
23.9	10.144
23.986	10.5335
24.072	11.2796
24.158	12.2133
24.244	13.1021
24.33	13.7225
24.416	13.9513
24.502	13.742
24.588	13.1972
24.674	12.51
24.76	11.8514
24.846	11.3529
24.932	11.0189
25.018	10.7363
25.104	10.395
25.19	10.0587
25.276	10.0395
25.362	10.8365
25.448	12.8538
25.534	16.1367
25.62	20.2818
25.706	24.4814
25.792	27.8466
25.878	29.7646
25.964	30.2002
26.05	29.7514
26.136	29.4352
26.222	30.4609
26.308	33.8529
26.394	40.0228
26.48	48.5013
26.566	58.0829
26.652	67.2404
26.738	74.5512
26.824	79.1825
26.91	81.066
26.996	80.8129
27.028	80.5312

File: C-4040-8_t08_cm-1.asc
PE IR       SPECTRUM    SPECTRUM    ASCII       PEDS        1.60
  -1
C-9965~1.ASC
17/05/02
11:28:10.00
17/05/02
11:28:10.00
tln
$C-4040-8_t0008$<tbV0>[7.5,-8.0,8.0,0.0,22,1,0]
370
64

2002,4.07
MIRTGS : RIGHTBACK : INTERNAL 2
MIR : ON : INTERNAL 2
OPTKBR

0.200000
8
8.000000
FILLER
RATIO
SPECTRUM
UNLOCKED 256

DOUBLE
64
COMBINED
1
0
0

1.000000
RATIO

1
0
TRUE
51149
0
LEFT NOT FITTED RIGHT NOT FITTED 0
NONE
NONE
15600
12
4.427000
51148
TRUE
1 0 8 72 0 0 0 0

15798

#HDR
-1
-1
#GR
CM-1
%T
2.38419e-05
0.0
7800
-1.000000
7431
8
81.1664
9.982895
#DATA
7800	61.8007
7775	60.7182
7750	69.6374
7725	58.8793
7700	62.3656
7675	69.6559
7650	67.8563
7625	64.3639
7600	61.939
7575	62.8524
7550	62.4236
7525	61.4252
7500	61.9683
7475	60.8793
7450	64.8974
7425	63.7006
7400	64.4434
7375	60.4036
7350	63.5445
7325	63.0572
7300	62.8444
7275	65.5398
7250	63.8667
7225	64.189
7200	63.7423
7175	64.1588
7150	62.7824
7125	61.1397
7100	63.1073
7075	66.1172
7050	63.2242
7025	66.3829
7000	65.4015
6975	67.0356
6950	63.2216
6925	63.6867
6900	63.7527
6875	63.6883
6850	65.131
6825	63.6614
6800	61.8791
6775	62.9466
6750	63.0541
6725	64.0273
6700	64.313
6675	62.7577
6650	63.0459
6625	62.7673
6600	62.5664
6575	64.7538
6550	63.5582
6525	63.3056
6500	63.3572
6475	63.3626
6450	63.8469
6425	62.8866
6400	63.6132
6375	64.2618
6350	63.1315
6325	63.4865
6300	63.1516
6275	62.913
6250	64.0298
6225	63.6043
6200	62.9602
6175	63.5254
6150	64.2362
6125	62.8164
6100	63.6129
6075	63.9581
6050	64.4988
6025	63.3881
6000	63.239
5975	63.0576
5950	63.0025
5925	63.4646
5900	63.0051
5875	63.2331
5850	64.2148
5825	63.3634
5800	63.8965
5775	63.5959
5750	62.9211
5725	62.637
5700	62.2483
5675	64.3537
5650	63.3651
5625	62.938
5600	63.5491
5575	64.0414
5550	63.5537
5525	63.1231
5500	64.1667
5475	63.1548
5450	63.1177
5425	62.6703
5400	62.6612
5375	62.8043
5350	63.2856
5325	62.7221
5300	61.4048
5275	61.9159
5250	62.3628
5225	61.5934
5200	63.9585
5175	64.4694
5150	63.0809
5125	62.5612
5100	63.0015
5075	63.4675
5050	62.9822
5025	62.5958
5000	62.8713
4975	63.1389
4950	62.9358
4925	62.5124
4900	63.1696
4875	62.4697
4850	62.5512
4825	63.0109
4800	62.9084
4775	62.6314
4750	63.124
4725	62.8462
4700	63.1139
4675	63.0867
4650	62.479
4625	62.6311
4600	62.7107
4575	62.4627
4550	61.7882
4525	61.5296
4500	62.1766
4475	61.1593
4450	61.6437
4425	62.0985
4400	68.3031
4375	60.0239
4350	61.1792
4325	61.313
4300	61.1197
4275	61.4255
4250	61.4518
4225	61.3121
4200	61.3928
4175	61.6682
4150	61.4256
4125	61.5892
4100	61.4175
4075	61.7702
4050	61.457
4025	61.1654
4000	61.0049
3975	60.989
3950	60.974
3925	60.5324
3900	60.7069
3875	60.7432
3850	60.2153
3825	60.2291
3800	60.2484
3775	59.9387
3750	60.1703
3725	59.8093
3700	59.7075
3675	59.609
3650	59.4821
3625	59.168
3600	59.2067
3575	59.0257
3550	58.8103
3525	58.6929
3500	58.511
3475	58.1659
3450	57.9972
3425	57.9733
3400	57.8392
3375	57.6002
3350	57.391
3325	56.8866
3300	56.8773
3275	56.687
3250	56.7779
3225	56.1127
3200	56.1875
3175	55.9264
3150	55.8121
3125	55.5347
3100	55.3121
3075	55.1176
3050	54.7189
3025	54.5949
3000	54.2847
2975	53.9449
2950	53.5902
2925	53.4293
2900	53.1982
2875	52.9463
2850	52.6302
2825	52.4114
2800	52.2024
2775	52.0365
2750	51.6407
2725	51.3514
2700	51.0495
2675	50.8431
2650	50.4253
2625	50.1888
2600	49.8747
2575	49.5912
2550	49.1831
2525	48.8684
2500	48.5677
2475	48.3012
2450	47.9292
2425	47.6647
2400	47.4003
2375	47.0129
2350	46.6387
2325	46.346
2300	46.0079
2275	45.6451
2250	45.3502
2225	45.0136
2200	44.5629
2175	44.2443
2150	43.8558
2125	43.5018
2100	43.2778
2075	42.8786
2050	42.5977
2025	42.2002
2000	41.9508
1975	41.589
1950	41.273
1925	40.9353
1900	40.4684
1875	40.071
1850	39.7428
1825	39.4389
1800	39.0609
1775	38.7997
1750	38.2498
1725	37.8114
1700	37.6951
1675	37.3387
1650	36.9452
1625	36.6322
1600	36.1836
1575	35.7866
1550	35.4709
1525	35.13
1500	34.887
1475	34.4337
1450	34.0996
1425	33.8257
1400	33.3611
1375	33.0908
1350	32.7547
1325	32.6009
1300	32.1634
1275	31.7227
1250	31.3908
1225	31.027
1200	30.8041
1175	30.3602
1150	30.1252
1125	29.6833
1100	29.2123
1075	29.0655
1050	28.7382
1025	28.3878
1000	27.932
975	 27.6682
950	 27.2597
925	 26.3225
900	 26.6925
875	 25.4931
850	 24.7898
825	 24.7948
800	 24.59
775	 23.8152
750	 23.2831
725	 22.9283
700	 22.0611
675	 21.5149
650	 20.661
625	 20.1792
600	 18.9482
575	 18.5719
550	 17.308
525	 16.6636
500	 14.6788
475	 14.7216
450	 12.6762
425	 11.5976
400	 10.7998
375	 68.6424
370	 80.5312

File: C-4040-8_t09.asc
PE IR       SPECTRUM    SPECTRUM    ASCII       PEDS        1.60
  -1
C-C52E~1.ASC
17/05/02
11:32:51.00
17/05/02
11:33:18.00
tln
$C-4040-8_t0009$<tbV0>[2.5,-8.0,8.0,0.0,22,1,0]
27.028
64

2002,4.07
MIRTGS : RIGHTBACK : INTERNAL 2
MIR : ON : INTERNAL 2
OPTKBR

0.200000
8
8.000000
FILLER
RATIO
SPECTRUM
UNLOCKED 256

DOUBLE
64
COMBINED
1
0
0

0.002000
RATIO

1
0
TRUE
51149
0
LEFT NOT FITTED RIGHT NOT FITTED 0
NONE
NONE
15600
12
4.427000
51148
TRUE
1 0 8 72 0 0 0 0

15798

#HDR
-1
-1
#GR
µM
%T
2.38419e-05
0.0
1.282000
0.002000
12874
8
77.9326
23.9148
#DATA
1.282000	 71.1286
1.368000	 64.7407
1.454000	 61.8775
1.540000	 64.9218
1.626000	 63.1391
1.712000	 63.6301
1.798000	 64.1126
1.884000	 64.8215
1.970000	 63.8128
2.056000	 63.6751
2.142000	 63.812
2.228000	 63.3663
2.314000	 62.9051
2.400000	 63.1025
2.486000	 62.6267
2.572000	 62.3962
2.658000	 62.3774
2.744000	 61.9349
2.830000	 61.2347
2.916000	 61.076
3.002000	 60.6145
3.088000	 59.8977
3.174000	 59.7575
3.260000	 59.3728
3.346000	 58.7376
3.432000	 57.9021
3.518000	 57.7274
3.604000	 57.3646
3.690000	 56.8587
3.776000	 56.2871
3.862000	 55.9093
3.948000	 55.4579
4.034000	 55.0454
4.120000	 54.5687
4.206000	 54.227
4.292000	 53.7664
4.378000	 53.4072
4.464000	 53.0353
4.550000	 52.4778
4.636000	 52.1644
4.722000	 51.6486
4.808000	 51.4147
4.894000	 51.0088
4.980000	 50.7168
5.066000	 50.3849
5.152000	 49.9805
5.238000	 49.7221
5.324000	 49.4084
5.410000	 49.0742
5.496000	 48.8302
5.582000	 48.5934
5.668000	 48.3081
5.754000	 47.9005
5.840000	 47.6516
5.926000	 47.4509
6.012000	 47.172
6.098000	 46.9164
6.184000	 46.6927
6.270000	 46.3418
6.356000	 46.1187
6.442000	 45.9706
6.528000	 45.6111
6.614000	 45.5043
6.700000	 45.227
6.786000	 44.9795
6.872000	 44.9374
6.958000	 44.7426
7.044000	 44.5041
7.130000	 44.3404
7.216000	 44.1842
7.302000	 44.0128
7.388000	 43.7333
7.474000	 43.6822
7.560000	 43.4171
7.646000	 43.2451
7.732000	 43.0663
7.818000	 42.8364
7.904000	 42.7952
7.990000	 42.5504
8.076000	 42.5319
8.161999	 42.3548
8.248000	 42.1663
8.334000	 42.029
8.420000	 41.901
8.506000	 41.6614
8.592000	 41.5267
8.678000	 41.4617
8.763999	 41.2721
8.850000	 41.2483
8.936000	 41.1546
9.022000	 41.0505
9.108000	 40.8623
9.193999	 40.8759
9.280000	 40.7792
9.366000	 40.5371
9.452000	 40.4405
9.538000	 40.4626
9.624000	 40.2228
9.710000	 40.148
9.795999	 39.9773
9.882000	 39.8696
9.968000	 39.6989
10.054	39.5333
10.14	39.4513
10.226	39.4745
10.312	39.3418
10.398	39.139
10.484	38.9034
10.57	39.0063
10.656	38.9901
10.742	39.1088
10.828	38.7035
10.914	38.5555
11	38.673
11.086	38.514
11.172	37.93
11.258	37.8762
11.344	38.417
11.43	38.8626
11.516	37.887
11.602	37.4893
11.688	37.562
11.774	37.6486
11.86	37.4722
11.946	37.5995
12.032	37.1001
12.118	36.8906
12.204	36.9215
12.29	36.7755
12.376	36.7806
12.462	36.7568
12.548	36.6664
12.634	36.6987
12.72	36.4764
12.806	36.2241
12.892	36.2478
12.978	36.3358
13.064	36.1036
13.15	35.8883
13.236	35.7213
13.322	35.7376
13.408	35.7869
13.494	35.4878
13.58	35.1446
13.666	34.9962
13.752	34.8453
13.838	34.7847
13.924	34.7572
14.01	34.6867
14.096	34.5903
14.182	34.3327
14.268	34.1117
14.354	34.1803
14.44	34.2604
14.526	34.0529
14.612	33.8962
14.698	33.9593
14.784	34.0387
14.87	34.0935
14.956	34.1093
15.042	33.9861
15.128	33.7278
15.214	33.4423
15.3	33.2645
15.386	33.2644
15.472	33.2926
15.558	33.1739
15.644	32.973
15.73	32.7837
15.816	32.5982
15.902	32.491
15.988	32.5114
16.074	32.533
16.16	32.4245
16.246	32.1917
16.332	31.9876
16.418	31.9686
16.504	32.0389
16.59	31.9467
16.676	31.6505
16.762	31.3571
16.848	31.27
16.934	31.3995
17.02	31.5295
17.106	31.4256
17.192	31.1232
17.278	30.8888
17.364	30.8467
17.45	30.8453
17.536	30.7439
17.622	30.5949
17.708	30.4827
17.794	30.4115
17.88	30.3916
17.966	30.4222
18.052	30.3912
18.138	30.189
18.224	29.8925
18.31	29.6944
18.396	29.6762
18.482	29.7413
18.568	29.7546
18.654	29.6682
18.74	29.5099
18.826	29.3264
18.912	29.1643
18.998	29.0614
19.084	29.0318
19.17	29.0633
19.256	29.1236
19.342	29.1638
19.428	29.1248
19.514	28.9598
19.6	28.6685
19.686	28.3112
19.772	27.9929
19.858	27.8107
19.944	27.7973
20.03	27.896
20.116	28.0066
20.202	28.0628
20.288	28.0685
20.374	28.0497
20.46	27.98
20.546	27.7751
20.632	27.3798
20.718	26.8584
20.804	26.3835
20.89	26.1198
20.976	26.1079
21.062	26.2583
21.148	26.4377
21.234	26.567
21.32	26.6383
21.406	26.6627
21.492	26.6302
21.578	26.5231
21.664	26.3496
21.75	26.1603
21.836	26.0108
21.922	25.9156
22.008	25.8369
22.094	25.729
22.18	25.6006
22.266	25.5349
22.352	25.6335
22.438	25.9212
22.524	26.3102
22.61	26.6335
22.696	26.7542
22.782	26.6598
22.868	26.4636
22.954	26.3375
23.04	26.3949
23.126	26.6335
23.212	26.9434
23.298	27.1822
23.384	27.2211
23.47	26.9994
23.556	26.531
23.642	25.8973
23.728	25.2313
23.814	24.6916
23.9	24.4123
23.986	24.4656
24.072	24.8393
24.158	25.4216
24.244	26.036
24.33	26.486
24.416	26.6291
24.502	26.3973
24.588	25.853
24.674	25.1557
24.76	24.4839
24.846	24.0298
24.932	23.9225
25.018	24.1716
25.104	24.7296
25.19	25.4578
25.276	26.1949
25.362	26.8212
25.448	27.1927
25.534	27.2122
25.62	26.8675
25.706	26.2141
25.792	25.3783
25.878	24.5586
25.964	24.0398
26.05	24.0604
26.136	24.8138
26.222	26.5292
26.308	29.4294
26.394	33.6444
26.48	39.1156
26.566	45.5592
26.652	52.4626
26.738	59.2765
26.824	65.5932
26.91	71.2408
26.996	76.5166
27.028	77.9326

File: C-4040-8_t09_cm-1.asc
PE IR       SPECTRUM    SPECTRUM    ASCII       PEDS        1.60
  -1
C-99E0~1.ASC
17/05/02
11:32:51.00
17/05/02
11:32:51.00
tln
$C-4040-8_t0009$<tbV0>[2.5,-8.0,8.0,0.0,22,1,0]
370
64

2002,4.07
MIRTGS : RIGHTBACK : INTERNAL 2
MIR : ON : INTERNAL 2
OPTKBR

0.200000
8
8.000000
FILLER
RATIO
SPECTRUM
UNLOCKED 256

DOUBLE
64
COMBINED
1
0
0

1.000000
RATIO

1
0
TRUE
51149
0
LEFT NOT FITTED RIGHT NOT FITTED 0
NONE
NONE
15600
12
4.427000
51148
TRUE
1 0 8 72 0 0 0 0

15798

#HDR
-1
-1
#GR
CM-1
%T
2.38419e-05
0.0
7800
-1.000000
7431
8
79.5861
23.9281
#DATA
7800	71.1286
7775	70.1803
7750	70.5894
7725	62.2878
7700	65.9906
7675	66.4549
7650	63.1018
7625	67.1341
7600	62.5635
7575	66.026
7550	61.8765
7525	61.5705
7500	61.7633
7475	61.4671
7450	61.8457
7425	68.4299
7400	68.4268
7375	62.9384
7350	64.1813
7325	62.6946
7300	62.3104
7275	65.764
7250	65.22
7225	64.5536
7200	63.328
7175	63.7053
7150	62.7197
7125	62.5954
7100	64.0156
7075	61.852
7050	61.7736
7025	62.3765
7000	63.2674
6975	63.8183
6950	61.873
6925	62.8897
6900	62.3914
6875	62.1123
6850	62.8167
6825	65.0097
6800	63.7281
6775	62.9055
6750	62.6786
6725	63.6476
6700	63.1492
6675	62.953
6650	61.9375
6625	61.8031
6600	63.4227
6575	63.7693
6550	63.0497
6525	61.3891
6500	62.7556
6475	64.0646
6450	64.1879
6425	63.238
6400	61.4422
6375	63.7466
6350	63.3407
6325	63.6325
6300	61.9344
6275	64.085
6250	63.1192
6225	64.2176
6200	63.9959
6175	63.3943
6150	63.133
6125	62.1557
6100	63.7702
6075	63.3843
6050	63.5306
6025	64.1076
6000	63.2624
5975	63.3986
5950	63.435
5925	62.7539
5900	62.9747
5875	63.4639
5850	64.2597
5825	63.5187
5800	64.1721
5775	63.5434
5750	63.6174
5725	63.5
5700	63.6556
5675	64.0719
5650	63.7208
5625	63.5696
5600	64.1083
5575	64.1963
5550	63.7176
5525	63.5162
5500	64.0487
5475	64.1262
5450	63.9776
5425	62.5658
5400	62.8561
5375	63.9885
5350	63.58
5325	63.6133
5300	63.9749
5275	63.2354
5250	62.4929
5225	63.1797
5200	64.9313
5175	64.7079
5150	63.4916
5125	63.626
5100	63.3304
5075	63.7752
5050	63.781
5025	64.281
5000	64.0185
4975	63.5367
4950	63.9197
4925	63.5606
4900	63.6885
4875	63.8654
4850	63.5954
4825	63.6672
4800	63.5097
4775	63.551
4750	63.6165
4725	63.6534
4700	64.036
4675	63.5832
4650	63.4808
4625	63.5837
4600	63.622
4575	63.5943
4550	63.6822
4525	63.3308
4500	63.5466
4475	63.2298
4450	63.6386
4425	63.1553
4400	69.3376
4375	64.3444
4350	63.8859
4325	62.909
4300	62.9836
4275	63.169
4250	63.0612
4225	62.8344
4200	62.9895
4175	63.3734
4150	62.7813
4125	62.9637
4100	62.9892
4075	62.7254
4050	62.7043
4025	62.6431
4000	62.7188
3975	62.7406
3950	62.6907
3925	62.5694
3900	62.5168
3875	62.4669
3850	62.4264
3825	62.3222
3800	62.442
3775	61.9949
3750	62.2465
3725	61.9802
3700	61.8855
3675	62.0477
3650	61.9491
3625	61.7257
3600	61.5696
3575	61.4348
3550	61.2691
3525	61.0646
3500	60.9955
3475	61.1466
3450	61.0444
3425	61.0969
3400	61.0166
3375	60.7906
3350	60.5966
3325	60.3264
3300	60.5331
3275	60.2129
3250	60.257
3225	59.9616
3200	59.9812
3175	59.816
3150	59.7655
3125	59.4826
3100	59.4199
3075	59.1744
3050	59.0671
3025	59.0557
3000	58.8295
2975	58.5339
2950	58.3058
2925	58.0158
2900	57.9533
2875	57.8881
2850	57.6655
2825	57.6223
2800	57.569
2775	57.3758
2750	57.0916
2725	57.045
2700	56.9618
2675	56.6184
2650	56.2819
2625	56.2272
2600	56.0577
2575	55.7997
2550	55.705
2525	55.4808
2500	55.2647
2475	54.9793
2450	54.797
2425	54.499
2400	54.3324
2375	54.1938
2350	53.958
2325	53.7949
2300	53.4775
2275	53.3395
2250	52.9659
2225	52.8174
2200	52.4853
2175	52.274
2150	51.9847
2125	51.8266
2100	51.7001
2075	51.3639
2050	51.1767
2025	50.8537
2000	50.6489
1975	50.3974
1950	50.1132
1925	49.8341
1900	49.6153
1875	49.4196
1850	49.083
1825	48.8942
1800	48.6593
1775	48.3784
1750	47.9801
1725	47.7097
1700	47.5596
1675	47.2669
1650	46.997
1625	46.7651
1600	46.4717
1575	46.1273
1550	45.9075
1525	45.5677
1500	45.3236
1475	45.015
1450	44.8647
1425	44.5199
1400	44.3708
1375	44.0069
1350	43.6909
1325	43.4412
1300	43.0901
1275	42.7943
1250	42.5283
1225	42.3539
1200	42.0309
1175	41.6621
1150	41.4973
1125	41.2024
1100	40.8581
1075	40.7969
1050	40.4593
1025	40.1033
1000	39.6576
975	 39.4208
950	 38.9165
925	 38.8039
900	 38.37
875	 38.8714
850	 37.6395
825	 36.8952
800	 36.7032
775	 36.2701
750	 35.753
725	 34.7994
700	 34.1022
675	 34.0593
650	 33.2635
625	 32.5183
600	 31.687
575	 30.8522
550	 30.0374
525	 29.0357
500	 27.8549
475	 26.2387
450	 25.5535
425	 26.6988
400	 24.0912
375	 53.6413
370	 77.9326