Folder: Masteroppgave/Bakgrunnsmateriale/MATLAB/FTIR/ftir_data/subBb/Mapping_36 (part 14)

File: C-4040-8_t30.asc
PE IR       SPECTRUM    SPECTRUM    ASCII       PEDS        1.60
  -1
C-A13A~1.ASC
17/05/02
13:25:23.00
17/05/02
13:25:50.00
tln
$C-4040-8_t0030$<tbV0>[-12.5,7.0,8.0,0.0,22,1,0]
27.028
64

2002,4.07
MIRTGS : RIGHTBACK : INTERNAL 2
MIR : ON : INTERNAL 2
OPTKBR

0.200000
8
8.000000
FILLER
RATIO
SPECTRUM
UNLOCKED 256

DOUBLE
64
COMBINED
1
0
0

0.002000
RATIO

1
0
TRUE
51149
0
LEFT NOT FITTED RIGHT NOT FITTED 0
NONE
NONE
15600
12
4.427000
51148
TRUE
1 0 8 72 0 0 0 0

15798

#HDR
-1
-1
#GR
µM
%T
2.38419e-05
0.0
1.282000
0.002000
12874
8
84.9462
56.4327
#DATA
1.282000	 84.9462
1.368000	 63.0945
1.454000	 65.1217
1.540000	 65.248
1.626000	 64.5785
1.712000	 64.2731
1.798000	 65.4297
1.884000	 64.6786
1.970000	 64.9245
2.056000	 64.8336
2.142000	 65.6028
2.228000	 63.9914
2.314000	 64.4233
2.400000	 64.5439
2.486000	 64.9039
2.572000	 65.1659
2.658000	 65.1654
2.744000	 65.2818
2.830000	 65.0962
2.916000	 64.9796
3.002000	 65.1929
3.088000	 65.1567
3.174000	 65.2079
3.260000	 65.1371
3.346000	 65.0297
3.432000	 64.6466
3.518000	 64.9811
3.604000	 65.2241
3.690000	 65.2543
3.776000	 65.0861
3.862000	 65.2084
3.948000	 65.3044
4.034000	 65.2642
4.120000	 65.1815
4.206000	 65.1405
4.292000	 65.2836
4.378000	 65.2213
4.464000	 65.2797
4.550000	 65.2012
4.636000	 65.2475
4.722000	 65.2604
4.808000	 65.349
4.894000	 65.233
4.980000	 65.3579
5.066000	 65.3311
5.152000	 65.2813
5.238000	 65.29
5.324000	 65.2426
5.410000	 65.2536
5.496000	 65.2955
5.582000	 65.3102
5.668000	 65.3186
5.754000	 65.021
5.840000	 65.1739
5.926000	 65.0959
6.012000	 65.1423
6.098000	 65.139
6.184000	 65.1725
6.270000	 65.0071
6.356000	 64.9662
6.442000	 65.0741
6.528000	 65.0991
6.614000	 65.1006
6.700000	 65.2071
6.786000	 65.068
6.872000	 64.8825
6.958000	 65.0421
7.044000	 65.0863
7.130000	 65.0375
7.216000	 64.9694
7.302000	 65.0186
7.388000	 65.1268
7.474000	 64.9886
7.560000	 64.9659
7.646000	 64.96
7.732000	 65.0024
7.818000	 64.9319
7.904000	 64.9883
7.990000	 64.9191
8.076000	 64.8901
8.161999	 64.9207
8.248000	 64.9488
8.334000	 64.817
8.420000	 64.8405
8.506000	 64.8116
8.592000	 64.8205
8.678000	 64.9001
8.763999	 64.6907
8.850000	 64.6703
8.936000	 64.8801
9.022000	 64.8209
9.108000	 64.874
9.193999	 64.9726
9.280000	 64.8637
9.366000	 64.679
9.452000	 64.7656
9.538000	 64.8173
9.624000	 64.6695
9.710000	 64.6589
9.795999	 64.7099
9.882000	 64.8498
9.968000	 64.6828
10.054	64.6648
10.14	64.7961
10.226	64.9325
10.312	64.9026
10.398	64.7573
10.484	64.6315
10.57	64.5767
10.656	64.7598
10.742	64.9818
10.828	64.5537
10.914	64.7885
11	65.2159
11.086	64.2479
11.172	63.808
11.258	64.7114
11.344	64.8816
11.43	64.699
11.516	64.1666
11.602	64.1444
11.688	64.2192
11.774	64.335
11.86	64.5282
11.946	64.5451
12.032	64.4714
12.118	64.5556
12.204	64.3968
12.29	64.3494
12.376	64.2127
12.462	64.2156
12.548	64.2202
12.634	64.2467
12.72	64.075
12.806	64.1633
12.892	64.2253
12.978	63.8596
13.064	63.6938
13.15	63.8599
13.236	63.8592
13.322	63.7935
13.408	63.7533
13.494	63.7188
13.58	63.7119
13.666	63.7847
13.752	63.821
13.838	63.6204
13.924	63.4936
14.01	63.568
14.096	63.5756
14.182	63.5156
14.268	63.325
14.354	63.1591
14.44	63.2888
14.526	63.471
14.612	63.4175
14.698	63.337
14.784	63.3837
14.87	63.3953
14.956	63.3919
15.042	63.4427
15.128	63.4139
15.214	63.2885
15.3	63.1177
15.386	62.9657
15.472	62.8733
15.558	62.8246
15.644	62.8749
15.73	62.9592
15.816	62.9566
15.902	62.9796
15.988	63.0845
16.074	63.1273
16.16	63.1246
16.246	63.1343
16.332	63.0521
16.418	62.8601
16.504	62.7191
16.59	62.7402
16.676	62.8662
16.762	62.9646
16.848	62.9567
16.934	62.8796
17.02	62.7929
17.106	62.6599
17.192	62.4508
17.278	62.2887
17.364	62.2816
17.45	62.3432
17.536	62.3765
17.622	62.4295
17.708	62.5194
17.794	62.5334
17.88	62.4145
17.966	62.2677
18.052	62.2013
18.138	62.2055
18.224	62.2027
18.31	62.1514
18.396	62.0755
18.482	62.0022
18.568	61.9214
18.654	61.8184
18.74	61.7014
18.826	61.5905
18.912	61.498
18.998	61.4122
19.084	61.3127
19.17	61.2213
19.256	61.2053
19.342	61.3097
19.428	61.4919
19.514	61.6552
19.6	61.729
19.686	61.7202
19.772	61.6781
19.858	61.6246
19.944	61.5378
20.03	61.4027
20.116	61.2465
20.202	61.1083
20.288	61.0253
20.374	61.0505
20.46	61.232
20.546	61.5392
20.632	61.8257
20.718	61.894
20.804	61.6207
20.89	61.0455
20.976	60.3643
21.062	59.8225
21.148	59.5857
21.234	59.6717
21.32	59.9758
21.406	60.3419
21.492	60.6427
21.578	60.8091
21.664	60.8306
21.75	60.7355
21.836	60.5708
21.922	60.3814
22.008	60.1898
22.094	59.9938
22.18	59.7861
22.266	59.5769
22.352	59.4014
22.438	59.2859
22.524	59.223
22.61	59.1506
22.696	58.9878
22.782	58.6923
22.868	58.2866
22.954	57.8562
23.04	57.4955
23.126	57.2632
23.212	57.1688
23.298	57.1907
23.384	57.3025
23.47	57.4916
23.556	57.7486
23.642	58.056
23.728	58.3884
23.814	58.7151
23.9	59.0143
23.986	59.2846
24.072	59.5396
24.158	59.7873
24.244	59.9988
24.33	60.1116
24.416	60.0739
24.502	59.8485
24.588	59.4559
24.674	58.9678
24.76	58.472
24.846	58.026
24.932	57.6618
25.018	57.3946
25.104	57.2107
25.19	57.1635
25.276	57.3277
25.362	57.7077
25.448	58.2312
25.534	58.7435
25.62	59.042
25.706	58.9688
25.792	58.5345
25.878	57.9658
25.964	57.6841
26.05	58.124
26.136	59.5425
26.222	61.9374
26.308	64.9842
26.394	68.1182
26.48	70.7687
26.566	72.4192
26.652	72.7485
26.738	71.5928
26.824	68.8776
26.91	64.619
26.996	58.4093
27.028	56.4327

File: C-4040-8_t30_cm-1.asc
PE IR       SPECTRUM    SPECTRUM    ASCII       PEDS        1.60
  -1
C-1B61~1.ASC
17/05/02
13:25:23.00
17/05/02
13:25:23.00
tln
$C-4040-8_t0030$<tbV0>[-12.5,7.0,8.0,0.0,22,1,0]
370
64

2002,4.07
MIRTGS : RIGHTBACK : INTERNAL 2
MIR : ON : INTERNAL 2
OPTKBR

0.200000
8
8.000000
FILLER
RATIO
SPECTRUM
UNLOCKED 256

DOUBLE
64
COMBINED
1
0
0

1.000000
RATIO

1
0
TRUE
51149
0
LEFT NOT FITTED RIGHT NOT FITTED 0
NONE
NONE
15600
12
4.427000
51148
TRUE
1 0 8 72 0 0 0 0

15798

#HDR
-1
-1
#GR
CM-1
%T
2.38419e-05
0.0
7800
-1.000000
7431
8
85.0961
56.4327
#DATA
7800	84.9462
7775	72.6152
7750	75.1415
7725	73.5356
7700	68.8184
7675	67.8478
7650	69.2128
7625	68.9327
7600	63.6242
7575	69.6535
7550	65.9632
7525	65.9496
7500	64.8715
7475	65.0253
7450	66.5372
7425	67.9933
7400	67.8014
7375	66.255
7350	66.9247
7325	62.9963
7300	60.9926
7275	65.8112
7250	64.5607
7225	64.712
7200	66.6485
7175	64.6629
7150	64.8455
7125	63.8952
7100	63.1272
7075	60.5888
7050	63.6289
7025	64.1735
7000	64.299
6975	62.3451
6950	64.5681
6925	64.4775
6900	66.6319
6875	65.1818
6850	65.7902
6825	64.5576
6800	63.5812
6775	64.1531
6750	62.5453
6725	62.905
6700	63.3359
6675	64.0774
6650	65.1842
6625	63.2013
6600	63.6578
6575	65.2037
6550	64.5015
6525	63.1933
6500	64.7489
6475	65.0227
6450	65.2662
6425	63.9493
6400	66.2849
6375	65.9528
6350	64.6183
6325	64.314
6300	64.0656
6275	64.6967
6250	65.1215
6225	65.0856
6200	64.05
6175	64.3966
6150	64.5798
6125	64.8357
6100	65.1594
6075	64.1202
6050	65.4756
6025	64.5654
6000	64.5739
5975	65.506
5950	64.9168
5925	64.6262
5900	65.1981
5875	64.7665
5850	64.6724
5825	65.6116
5800	65.0374
5775	64.5672
5750	65.3041
5725	64.574
5700	64.6062
5675	65.0745
5650	64.4976
5625	65.1849
5600	65.5879
5575	65.3393
5550	65.2146
5525	64.709
5500	64.3818
5475	64.5083
5450	65.2186
5425	65.127
5400	65.6176
5375	65.7415
5350	65.3915
5325	64.013
5300	63.8932
5275	63.185
5250	65.6843
5225	64.2361
5200	64.6122
5175	65.0583
5150	65.3199
5125	65.3636
5100	65.5691
5075	64.8776
5050	64.44
5025	65.324
5000	64.6474
4975	64.928
4950	64.5883
4925	64.7947
4900	64.8186
4875	64.4989
4850	64.9114
4825	65.0649
4800	64.8887
4775	65.3145
4750	65.1286
4725	65.2035
4700	65.3027
4675	65.5447
4650	65.0249
4625	65.326
4600	64.959
4575	64.6616
4550	64.847
4525	63.9905
4500	64.3342
4475	64.3816
4450	63.5378
4425	63.7805
4400	62.9571
4375	67.3704
4350	63.9718
4325	64.1683
4300	64.6168
4275	64.8223
4250	64.7465
4225	64.7691
4200	64.8027
4175	64.8208
4150	65.3465
4125	65.418
4100	65.2315
4075	65.2022
4050	65.296
4025	65.0009
4000	65.0441
3975	64.9709
3950	65.169
3925	65.0931
3900	65.0145
3875	65.0953
3850	65.0297
3825	65.1336
3800	65.1172
3775	64.9287
3750	65.01
3725	65.1764
3700	65.18
3675	65.2521
3650	65.287
3625	65.1784
3600	65.1217
3575	65.1656
3550	65.0977
3525	64.9231
3500	64.8638
3475	65.2306
3450	65.0341
3425	65.0996
3400	65.0619
3375	65.1355
3350	64.9947
3325	65.0708
3300	65.0232
3275	65.0527
3250	65.1285
3225	65.1903
3200	64.9564
3175	65.352
3150	65.2115
3125	65.1023
3100	65.3377
3075	65.134
3050	65.0838
3025	65.1484
3000	65.2956
2975	65.0203
2950	64.9108
2925	64.6501
2900	65.0112
2875	65.0007
2850	64.8964
2825	65.136
2800	65.215
2775	65.2301
2750	65.0939
2725	65.3728
2700	65.2981
2675	65.2006
2650	65.0658
2625	65.357
2600	65.1956
2575	65.1961
2550	65.2356
2525	65.3542
2500	65.3384
2475	65.2946
2450	65.2447
2425	65.2192
2400	65.165
2375	65.1166
2350	65.1554
2325	65.2637
2300	65.3243
2275	65.2249
2250	65.4015
2225	65.119
2200	65.2243
2175	65.2839
2150	65.2743
2125	65.2643
2100	65.2595
2075	65.2492
2050	65.1506
2025	65.174
2000	65.3022
1975	65.3305
1950	65.281
1925	65.3349
1900	65.3135
1875	65.2409
1850	65.2632
1825	65.2993
1800	65.2873
1775	65.2869
1750	65.0193
1725	64.9929
1700	65.2839
1675	65.1928
1650	65.2179
1625	65.2336
1600	65.004
1575	64.9962
1550	65.0609
1525	65.113
1500	65.1285
1475	65.0687
1450	64.9322
1425	65.0696
1400	65.0203
1375	64.9724
1350	65.1184
1325	64.9526
1300	64.9758
1275	64.9387
1250	64.9032
1225	64.9266
1200	64.8162
1175	64.8111
1150	64.8653
1125	64.8115
1100	64.9014
1075	64.8294
1050	64.808
1025	64.6844
1000	64.6271
975	 64.9693
950	 64.5578
925	 64.6458
900	 63.8537
875	 64.7072
850	 64.3231
825	 64.5513
800	 64.2128
775	 64.1964
750	 63.7864
725	 63.7492
700	 63.276
675	 63.398
650	 62.9676
625	 63.0967
600	 62.8515
575	 62.301
550	 62.2092
525	 61.3565
500	 61.4543
475	 59.8681
450	 59.6817
425	 57.6628
400	 57.4438
375	 72.658
370	 56.4327

File: C-4040-8_t31.asc
PE IR       SPECTRUM    SPECTRUM    ASCII       PEDS        1.60
  -1
C-A13E~1.ASC
17/05/02
13:30:41.00
17/05/02
13:31:07.00
tln
$C-4040-8_t0031$<tbV0>[12.5,12.0,8.0,0.0,22,1,0]
27.028
64

2002,4.07
MIRTGS : RIGHTBACK : INTERNAL 2
MIR : ON : INTERNAL 2
OPTKBR

0.200000
8
8.000000
FILLER
RATIO
SPECTRUM
UNLOCKED 256

DOUBLE
64
COMBINED
1
0
0

0.002000
RATIO

1
0
TRUE
51149
0
LEFT NOT FITTED RIGHT NOT FITTED 0
NONE
NONE
15600
12
4.427000
51148
TRUE
1 0 8 72 0 0 0 0

15798

#HDR
-1
-1
#GR
µM
%T
2.38419e-05
0.0
1.282000
0.002000
12874
8
106.629
55.581
#DATA
1.282000	 71.5626
1.368000	 65.1799
1.454000	 64.6258
1.540000	 65.454
1.626000	 65.1689
1.712000	 64.9961
1.798000	 65.6323
1.884000	 62.798
1.970000	 64.6118
2.056000	 64.635
2.142000	 65.418
2.228000	 64.09
2.314000	 64.0783
2.400000	 65.0201
2.486000	 65.1583
2.572000	 65.1032
2.658000	 65.1985
2.744000	 65.3846
2.830000	 65.18
2.916000	 65.259
3.002000	 65.2317
3.088000	 65.1507
3.174000	 65.1289
3.260000	 65.1656
3.346000	 65.0235
3.432000	 64.8761
3.518000	 65.115
3.604000	 65.2665
3.690000	 65.2706
3.776000	 65.2643
3.862000	 65.3462
3.948000	 65.3315
4.034000	 65.3073
4.120000	 65.3802
4.206000	 65.3087
4.292000	 65.3531
4.378000	 65.3789
4.464000	 65.4086
4.550000	 65.4325
4.636000	 65.2648
4.722000	 65.2727
4.808000	 65.3526
4.894000	 65.4242
4.980000	 65.3843
5.066000	 65.3869
5.152000	 65.3141
5.238000	 65.3729
5.324000	 65.3279
5.410000	 65.4341
5.496000	 65.4457
5.582000	 65.3148
5.668000	 65.3854
5.754000	 65.1053
5.840000	 65.3912
5.926000	 65.2692
6.012000	 65.2152
6.098000	 65.2358
6.184000	 65.2447
6.270000	 65.1462
6.356000	 65.0235
6.442000	 65.1868
6.528000	 65.0198
6.614000	 65.2034
6.700000	 65.1246
6.786000	 65.1532
6.872000	 65.2986
6.958000	 65.2582
7.044000	 65.2713
7.130000	 65.2267
7.216000	 65.0876
7.302000	 65.204
7.388000	 65.2012
7.474000	 65.2164
7.560000	 65.3463
7.646000	 65.2177
7.732000	 65.2732
7.818000	 65.1771
7.904000	 65.1068
7.990000	 65.0457
8.076000	 65.2222
8.161999	 65.1705
8.248000	 65.0724
8.334000	 65.1479
8.420000	 64.9552
8.506000	 65.0131
8.592000	 64.9706
8.678000	 64.942
8.763999	 64.8936
8.850000	 64.9531
8.936000	 65.118
9.022000	 64.8886
9.108000	 64.9486
9.193999	 64.9636
9.280000	 64.8462
9.366000	 64.9827
9.452000	 64.9478
9.538000	 65.1478
9.624000	 65.0882
9.710000	 64.9669
9.795999	 64.9895
9.882000	 64.9979
9.968000	 64.9857
10.054	64.9299
10.14	64.8974
10.226	64.9415
10.312	64.9131
10.398	64.9007
10.484	64.7545
10.57	64.7302
10.656	64.8294
10.742	64.9961
10.828	65.1351
10.914	64.6482
11	64.7163
11.086	64.5184
11.172	64.1204
11.258	64.7238
11.344	64.4961
11.43	64.3239
11.516	64.4437
11.602	64.6848
11.688	64.7935
11.774	64.9105
11.86	64.803
11.946	64.7799
12.032	64.8919
12.118	65.1484
12.204	65.1223
12.29	64.8012
12.376	64.5891
12.462	64.66
12.548	64.6503
12.634	64.645
12.72	64.5351
12.806	64.4931
12.892	64.6278
12.978	64.5998
13.064	64.3131
13.15	64.1405
13.236	64.0382
13.322	64.0329
13.408	64.142
13.494	64.2686
13.58	64.3948
13.666	64.3995
13.752	64.3059
13.838	64.1963
13.924	64.2272
14.01	64.2973
14.096	64.2696
14.182	64.1828
14.268	64.021
14.354	64.0353
14.44	64.1274
14.526	63.9988
14.612	63.8805
14.698	63.9157
14.784	63.9096
14.87	63.8758
14.956	63.8322
15.042	63.757
15.128	63.8309
15.214	64.0156
15.3	64.0294
15.386	63.8592
15.472	63.6371
15.558	63.5521
15.644	63.7444
15.73	63.9396
15.816	63.8738
15.902	63.7195
15.988	63.6434
16.074	63.6113
16.16	63.6222
16.246	63.6977
16.332	63.8001
16.418	63.8789
16.504	63.9005
16.59	63.8833
16.676	63.8458
16.762	63.7197
16.848	63.5571
16.934	63.5238
17.02	63.5695
17.106	63.5208
17.192	63.4135
17.278	63.4017
17.364	63.4282
17.45	63.2891
17.536	62.9832
17.622	62.7195
17.708	62.6317
17.794	62.6789
17.88	62.7802
17.966	62.912
18.052	63.071
18.138	63.2147
18.224	63.2602
18.31	63.1835
18.396	63.1056
18.482	63.1665
18.568	63.3242
18.654	63.3824
18.74	63.2411
18.826	63.0203
18.912	62.8807
18.998	62.8231
19.084	62.7272
19.17	62.5396
19.256	62.3556
19.342	62.3125
19.428	62.4253
19.514	62.58
19.6	62.671
19.686	62.7118
19.772	62.7776
19.858	62.8825
19.944	62.9506
20.03	62.9019
20.116	62.74
20.202	62.53
20.288	62.3348
20.374	62.1931
20.46	62.1458
20.546	62.233
20.632	62.4341
20.718	62.6287
20.804	62.6555
20.89	62.4397
20.976	62.0762
21.062	61.7716
21.148	61.6887
21.234	61.8359
21.32	62.0975
21.406	62.3361
21.492	62.4884
21.578	62.5663
21.664	62.614
21.75	62.6731
21.836	62.7605
21.922	62.8689
22.008	62.9689
22.094	63.0253
22.18	63.0246
22.266	62.9875
22.352	62.9565
22.438	62.9431
22.524	62.8976
22.61	62.708
22.696	62.2741
22.782	61.6027
22.868	60.8337
22.954	60.1898
23.04	59.846
23.126	59.859
23.212	60.1745
23.298	60.6798
23.384	61.2498
23.47	61.7949
23.556	62.254
23.642	62.5894
23.728	62.808
23.814	62.9428
23.9	63.0266
23.986	63.0806
24.072	63.1125
24.158	63.1066
24.244	63.0645
24.33	63.0207
24.416	63.0098
24.502	63.0053
24.588	62.9058
24.674	62.5757
24.76	61.8957
24.846	60.9052
24.932	59.8419
25.018	59.0807
25.104	59.0032
25.19	59.8991
25.276	61.8035
25.362	64.4604
25.448	67.2578
25.534	69.4955
25.62	70.5831
25.706	70.1377
25.792	68.1828
25.878	65.138
25.964	61.6966
26.05	58.5922
26.136	56.4115
26.222	55.583
26.308	56.2634
26.394	58.349
26.48	61.6611
26.566	65.8682
26.652	70.4668
26.738	74.8563
26.824	78.464
26.91	80.7823
26.996	81.6188
27.028	81.6535

File: C-4040-8_t31_cm-1.asc
PE IR       SPECTRUM    SPECTRUM    ASCII       PEDS        1.60
  -1
C-1BE4~1.ASC
17/05/02
13:30:41.00
17/05/02
13:30:41.00
tln
$C-4040-8_t0031$<tbV0>[12.5,12.0,8.0,0.0,22,1,0]
370
64

2002,4.07
MIRTGS : RIGHTBACK : INTERNAL 2
MIR : ON : INTERNAL 2
OPTKBR

0.200000
8
8.000000
FILLER
RATIO
SPECTRUM
UNLOCKED 256

DOUBLE
64
COMBINED
1
0
0

1.000000
RATIO

1
0
TRUE
51149
0
LEFT NOT FITTED RIGHT NOT FITTED 0
NONE
NONE
15600
12
4.427000
51148
TRUE
1 0 8 72 0 0 0 0

15798

#HDR
-1
-1
#GR
CM-1
%T
2.38419e-05
0.0
7800
-1.000000
7431
8
107.606
55.6235
#DATA
7800	71.5626
7775	65.23
7750	68.2708
7725	65.5335
7700	67.5912
7675	69.192
7650	73.5228
7625	69.8097
7600	64.0144
7575	67.3829
7550	68.8049
7525	63.9936
7500	66.458
7475	65.9496
7450	62.2868
7425	67.0969
7400	65.5449
7375	63.6606
7350	66.3143
7325	65.7444
7300	63.7922
7275	66.5733
7250	67.9038
7225	63.6845
7200	62.6534
7175	64.4437
7150	65.6
7125	64.0186
7100	64.1712
7075	64.2721
7050	63.3002
7025	69.2446
7000	64.0316
6975	62.9947
6950	63.9862
6925	64.822
6900	64.6446
6875	64.7473
6850	63.3699
6825	65.4434
6800	65.3491
6775	65.4349
6750	65.0919
6725	62.9427
6700	65.5885
6675	64.8537
6650	62.9991
6625	64.4675
6600	63.9679
6575	64.1429
6550	64.4168
6525	64.145
6500	64.3717
6475	63.4048
6450	65.2625
6425	64.4101
6400	64.8622
6375	64.3582
6350	65.8963
6325	64.5161
6300	64.6222
6275	65.2611
6250	63.4418
6225	64.3212
6200	64.7881
6175	64.1361
6150	65.1734
6125	65.6539
6100	65.1272
6075	63.813
6050	65.4726
6025	64.8131
6000	65.6685
5975	64.953
5950	64.8929
5925	65.4655
5900	65.281
5875	65.5426
5850	65.2432
5825	65.2727
5800	64.4254
5775	65.4474
5750	65.7288
5725	64.7001
5700	64.3718
5675	65.1858
5650	65.5287
5625	65.7093
5600	65.6146
5575	65.5599
5550	64.9066
5525	64.7621
5500	64.9451
5475	65.2783
5450	64.861
5425	64.8621
5400	65.101
5375	65.0477
5350	64.0192
5325	62.7241
5300	63.5051
5275	61.1667
5250	66.0363
5225	65.5833
5200	64.681
5175	65.0237
5150	64.8082
5125	64.962
5100	64.8984
5075	64.61
5050	64.6664
5025	64.7438
5000	65.0015
4975	64.5951
4950	64.8162
4925	64.7966
4900	64.536
4875	64.3514
4850	64.9935
4825	65.0359
4800	64.6897
4775	65.3103
4750	65.3106
4725	65.2458
4700	65.1641
4675	65.2438
4650	65.0858
4625	64.9764
4600	64.8947
4575	64.7829
4550	64.365
4525	64.2324
4500	63.8452
4475	64.1263
4450	63.6447
4425	64.5467
4400	62.636
4375	65.3343
4350	63.1814
4325	63.8025
4300	63.9076
4275	64.1218
4250	64.3344
4225	64.4108
4200	64.4728
4175	65.0183
4150	65.1786
4125	65.3043
4100	65.3114
4075	65.1525
4050	65.3092
4025	65.1579
4000	64.9279
3975	64.9914
3950	65.1028
3925	65.0784
3900	65.197
3875	64.8801
3850	64.9871
3825	65.1384
3800	65.1463
3775	65.2617
3750	65.0482
3725	65.0806
3700	65.2241
3675	65.1911
3650	65.2975
3625	65.2305
3600	65.1607
3575	65.1801
3550	65.3604
3525	65.1272
3500	64.9846
3475	64.8945
3450	65.36
3425	65.2767
3400	65.1767
3375	65.0592
3350	65.1367
3325	65.2682
3300	65.1195
3275	65.2103
3250	65.1484
3225	65.2622
3200	65.0602
3175	65.3469
3150	65.1393
3125	65.2325
3100	65.1652
3075	65.1034
3050	65.1614
3025	65.1199
3000	65.1867
2975	64.9844
2950	64.9736
2925	64.8001
2900	64.9789
2875	65.0814
2850	65.1105
2825	65.1556
2800	65.2461
2775	65.2687
2750	65.236
2725	65.1459
2700	65.2931
2675	65.2558
2650	65.2719
2625	65.4197
2600	65.3668
2575	65.3261
2550	65.2176
2525	65.3124
2500	65.3103
2475	65.3336
2450	65.2411
2425	65.4283
2400	65.391
2375	65.3711
2350	65.3123
2325	65.3069
2300	65.4202
2275	65.2981
2250	65.4163
2225	65.3667
2200	65.406
2175	65.3697
2150	65.493
2125	65.347
2100	65.3152
2075	65.3283
2050	65.387
2025	65.3139
2000	65.3392
1975	65.3807
1950	65.3906
1925	65.2925
1900	65.4434
1875	65.3109
1850	65.4092
1825	65.416
1800	65.4239
1775	65.4148
1750	65.3219
1725	65.0134
1700	65.2459
1675	65.2179
1650	65.1608
1625	65.3204
1600	65.1439
1575	65.0476
1550	65.1905
1525	65.0887
1500	65.1044
1475	65.1352
1450	65.2057
1425	65.3135
1400	65.2136
1375	65.2378
1350	65.1764
1325	65.3616
1300	65.2259
1275	65.1097
1250	65.0206
1225	65.1668
1200	65.1481
1175	65.0034
1150	64.8702
1125	65.0253
1100	64.9751
1075	64.8382
1050	65.1333
1025	64.9067
1000	65.0074
975	 64.9535
950	 64.733
925	 65.2246
900	 64.3339
875	 64.3239
850	 64.9076
825	 65.1561
800	 64.6614
775	 64.6444
750	 64.0435
725	 64.2481
700	 64.0028
675	 63.8954
650	 63.8627
625	 63.6373
600	 63.8529
575	 63.4085
550	 63.2547
525	 62.7791
500	 62.9339
475	 61.7954
450	 63.0081
425	 62.1245
400	 59.1937
375	 71.2419
370	 81.6535

File: C-4040-8_t32.asc
PE IR       SPECTRUM    SPECTRUM    ASCII       PEDS        1.60
  -1
C-A132~1.ASC
17/05/02
13:35:22.00
17/05/02
13:35:48.00
tln
$C-4040-8_t0032$<tbV0>[7.5,12.0,8.0,0.0,22,1,0]
27.028
64

2002,4.07
MIRTGS : RIGHTBACK : INTERNAL 2
MIR : ON : INTERNAL 2
OPTKBR

0.200000
8
8.000000
FILLER
RATIO
SPECTRUM
UNLOCKED 256

DOUBLE
64
COMBINED
1
0
0

0.002000
RATIO

1
0
TRUE
51149
0
LEFT NOT FITTED RIGHT NOT FITTED 0
NONE
NONE
15600
12
4.427000
51148
TRUE
1 0 8 72 0 0 0 0

15798

#HDR
-1
-1
#GR
µM
%T
2.38419e-05
0.0
1.282000
0.002000
12874
8
92.8509
50.845
#DATA
1.282000	 79.0763
1.368000	 65.8477
1.454000	 64.4029
1.540000	 64.4582
1.626000	 65.2027
1.712000	 65.2718
1.798000	 64.5297
1.884000	 63.2157
1.970000	 65.1971
2.056000	 64.6002
2.142000	 65.4206
2.228000	 64.4343
2.314000	 64.1746
2.400000	 64.9045
2.486000	 65.0553
2.572000	 65.1957
2.658000	 65.1736
2.744000	 65.225
2.830000	 65.0634
2.916000	 65.1271
3.002000	 65.2104
3.088000	 65.1067
3.174000	 65.2769
3.260000	 65.0596
3.346000	 65.0154
3.432000	 64.7951
3.518000	 65.1902
3.604000	 65.2827
3.690000	 65.1957
3.776000	 65.0066
3.862000	 65.212
3.948000	 65.2893
4.034000	 65.1864
4.120000	 65.2044
4.206000	 65.4135
4.292000	 65.1715
4.378000	 65.3781
4.464000	 65.2705
4.550000	 65.3063
4.636000	 65.2261
4.722000	 65.25
4.808000	 65.225
4.894000	 65.1666
4.980000	 65.2833
5.066000	 65.2622
5.152000	 65.2849
5.238000	 65.3226
5.324000	 65.2392
5.410000	 65.305
5.496000	 65.2862
5.582000	 65.3738
5.668000	 65.267
5.754000	 65.0447
5.840000	 65.1957
5.926000	 65.0333
6.012000	 65.2269
6.098000	 65.1638
6.184000	 65.1224
6.270000	 65.1016
6.356000	 65.1229
6.442000	 65.186
6.528000	 65.0663
6.614000	 65.18
6.700000	 65.1153
6.786000	 65.0248
6.872000	 65.2114
6.958000	 65.1368
7.044000	 65.1052
7.130000	 65.1178
7.216000	 65.0566
7.302000	 65.0326
7.388000	 64.9846
7.474000	 65.094
7.560000	 65.001
7.646000	 65.0219
7.732000	 65.0812
7.818000	 64.9211
7.904000	 64.9108
7.990000	 64.9217
8.076000	 64.985
8.161999	 65.0173
8.248000	 64.7446
8.334000	 64.9274
8.420000	 64.8647
8.506000	 64.9449
8.592000	 64.831
8.678000	 64.9817
8.763999	 64.8213
8.850000	 64.9027
8.936000	 64.9799
9.022000	 64.8083
9.108000	 65.0618
9.193999	 64.9366
9.280000	 64.8035
9.366000	 64.8113
9.452000	 64.8311
9.538000	 65.0755
9.624000	 64.8968
9.710000	 64.7942
9.795999	 64.8145
9.882000	 64.8569
9.968000	 64.853
10.054	64.6611
10.14	64.5807
10.226	64.8666
10.312	64.8173
10.398	64.7945
10.484	64.8742
10.57	64.8159
10.656	64.8387
10.742	65.0398
10.828	64.9136
10.914	65.0599
11	64.6576
11.086	63.9015
11.172	64.1137
11.258	64.6755
11.344	64.7513
11.43	64.7486
11.516	64.7115
11.602	64.5834
11.688	64.5971
11.774	64.8038
11.86	64.631
11.946	64.6764
12.032	64.8159
12.118	64.7949
12.204	64.4769
12.29	64.3611
12.376	64.4647
12.462	64.5363
12.548	64.3259
12.634	64.4009
12.72	64.3654
12.806	64.3098
12.892	64.2942
12.978	64.1686
13.064	64.2022
13.15	64.1985
13.236	63.9037
13.322	63.7558
13.408	63.6655
13.494	63.6634
13.58	63.8319
13.666	63.8765
13.752	63.7314
13.838	63.6409
13.924	63.6849
14.01	63.7955
14.096	63.959
14.182	63.9087
14.268	63.5511
14.354	63.392
14.44	63.5846
14.526	63.7745
14.612	63.7487
14.698	63.7106
14.784	63.7251
14.87	63.6312
14.956	63.6016
15.042	63.7277
15.128	63.8144
15.214	63.7419
15.3	63.4919
15.386	63.2224
15.472	63.1039
15.558	63.1279
15.644	63.2695
15.73	63.4196
15.816	63.3871
15.902	63.2614
15.988	63.293
16.074	63.3873
16.16	63.3113
16.246	63.1779
16.332	63.2161
16.418	63.3455
16.504	63.3524
16.59	63.2359
16.676	63.1246
16.762	63.0589
16.848	63.0462
16.934	63.0824
17.02	63.082
17.106	63.0068
17.192	62.9439
17.278	62.9694
17.364	62.9893
17.45	62.8498
17.536	62.6211
17.622	62.5096
17.708	62.5334
17.794	62.5293
17.88	62.4268
17.966	62.321
18.052	62.3126
18.138	62.4239
18.224	62.5969
18.31	62.7436
18.396	62.8144
18.482	62.7958
18.568	62.6604
18.654	62.404
18.74	62.1148
18.826	61.92
18.912	61.861
18.998	61.8873
19.084	61.9628
19.17	62.0882
19.256	62.2119
19.342	62.2168
19.428	62.0604
19.514	61.8433
19.6	61.6806
19.686	61.5826
19.772	61.5116
19.858	61.4763
19.944	61.5226
20.03	61.6517
20.116	61.7878
20.202	61.8272
20.288	61.7281
20.374	61.5513
20.46	61.4152
20.546	61.3941
20.632	61.4567
20.718	61.4898
20.804	61.3944
20.89	61.1734
20.976	60.939
21.062	60.8222
21.148	60.8681
21.234	61.0148
21.32	61.1765
21.406	61.3316
21.492	61.5237
21.578	61.772
21.664	62.0075
21.75	62.0974
21.836	61.9366
21.922	61.5305
22.008	60.9965
22.094	60.4834
22.18	60.0931
22.266	59.8464
22.352	59.7112
22.438	59.6515
22.524	59.6461
22.61	59.6747
22.696	59.6972
22.782	59.6675
22.868	59.5541
22.954	59.3602
23.04	59.1203
23.126	58.8848
23.212	58.7297
23.298	58.7195
23.384	58.8988
23.47	59.2673
23.556	59.7591
23.642	60.2537
23.728	60.6237
23.814	60.7892
23.9	60.7429
23.986	60.5417
24.072	60.2606
24.158	59.9733
24.244	59.7209
24.33	59.5194
24.416	59.3781
24.502	59.2219
24.588	58.9108
24.674	58.2889
24.76	57.2173
24.846	55.7193
24.932	54.0032
25.018	52.4024
25.104	51.2647
25.19	50.8458
25.276	51.1666
25.362	51.9973
25.448	52.9146
25.534	53.5147
25.62	53.5717
25.706	53.1767
25.792	52.6801
25.878	52.5731
25.964	53.3832
26.05	55.4308
26.136	58.724
26.222	62.9581
26.308	67.6174
26.394	72.1846
26.48	76.4137
26.566	80.2727
26.652	83.8498
26.738	87.1012
26.824	89.7696
26.91	91.4053
26.996	91.5639
27.028	91.3933