Folder: Masteroppgave/Bakgrunnsmateriale/MATLAB/FTIR/ftir_data/subBb/Mapping_121 (part 7)

File: C-4040-8_t09.asc
PE IR       SPECTRUM    SPECTRUM    ASCII       PEDS        1.60
  -1
C-C52E~1.ASC
17/03/27
15:12:29.00
17/03/27
15:12:55.00
tln
$C-4040-8_t0009$<tbV0>[-7.8,-13.0,8.0,0.0,27,1,0]
27.028
64

2002,4.07
MIRTGS : RIGHTBACK : INTERNAL 2
MIR : ON : INTERNAL 2
OPTKBR

0.200000
8
8.000000
FILLER
RATIO
SPECTRUM
UNLOCKED 256

DOUBLE
64
COMBINED
1
0
0

0.002000
RATIO

1
0
TRUE
51149
0
LEFT NOT FITTED RIGHT NOT FITTED 0
NONE
NONE
15600
12
4.427000
51148
TRUE
1 0 8 72 0 0 0 0

15798

#HDR
-1
-1
#GR
µM
%T
2.38419e-05
0.0
2.000000
0.002000
12515
8
80.4992
22.2231
#DATA
2.000000	 63.9547
2.084000	 63.9642
2.168000	 64.1604
2.252000	 67.3053
2.336000	 63.8139
2.420000	 63.9801
2.504000	 64.1605
2.588000	 63.9816
2.672000	 63.934
2.756000	 63.9321
2.840000	 63.2673
2.924000	 63.0434
3.008000	 62.8541
3.092000	 62.8435
3.176000	 62.4603
3.260000	 62.291
3.344000	 62.0112
3.428000	 61.3984
3.512000	 61.3286
3.596000	 61.2278
3.680000	 61.0523
3.764000	 60.6072
3.848000	 60.3776
3.932000	 60.1638
4.016000	 59.8439
4.100000	 59.9783
4.184000	 59.5636
4.268000	 59.2347
4.352000	 59.0306
4.436000	 58.8532
4.520000	 58.5076
4.604000	 58.3295
4.688000	 58.1958
4.772000	 57.8848
4.856000	 57.6701
4.940000	 57.4924
5.024000	 57.3589
5.108000	 57.1468
5.192000	 56.8889
5.276000	 56.7814
5.359999	 56.412
5.444000	 56.3213
5.528000	 56.2467
5.612000	 56.1354
5.696000	 56.0006
5.780000	 55.6691
5.864000	 55.6638
5.948000	 55.6346
6.032000	 55.4212
6.116000	 55.1333
6.200000	 55.0646
6.284000	 54.6143
6.368000	 54.7127
6.452000	 54.5174
6.536000	 54.4445
6.620000	 54.5225
6.704000	 54.2585
6.788000	 54.1056
6.872000	 54.0589
6.956000	 53.837
7.040000	 53.646
7.124000	 53.3505
7.208000	 53.4221
7.292000	 53.1502
7.376000	 53.0571
7.460000	 52.9835
7.544000	 52.8454
7.628000	 52.7527
7.712000	 52.5772
7.796000	 52.5079
7.880000	 52.3963
7.964000	 52.4449
8.048000	 52.2283
8.132000	 52.2591
8.216000	 52.0267
8.300000	 51.9326
8.384000	 51.9087
8.468000	 51.7723
8.552000	 51.8179
8.635999	 51.6929
8.719999	 51.6247
8.804000	 51.4291
8.888000	 51.4038
8.972000	 51.4149
9.056000	 51.2717
9.140000	 51.2633
9.224000	 50.9256
9.308000	 50.8548
9.391999	 50.8316
9.475999	 51.0902
9.560000	 50.9384
9.644000	 50.7537
9.728000	 50.7737
9.812000	 50.7791
9.896000	 50.6119
9.980000	 50.543
10.064	50.5013
10.148	50.3214
10.232	50.2022
10.316	50.1473
10.4	50.2288
10.484	50.0839
10.568	49.9796
10.652	49.8221
10.736	49.5991
10.82	49.4354
10.904	49.4537
10.988	50.1593
11.072	49.554
11.156	49.348
11.24	50.1632
11.324	49.7637
11.408	49.4281
11.492	48.8701
11.576	48.8281
11.66	48.9874
11.744	48.9438
11.828	48.8678
11.912	49.0889
11.996	49.0642
12.08	48.6548
12.164	48.4559
12.248	48.3988
12.332	48.3738
12.416	48.4847
12.5	48.5149
12.584	48.4182
12.668	48.4132
12.752	48.2793
12.836	48.0771
12.92	48.1212
13.004	48.1732
13.088	48.0424
13.172	47.8364
13.256	47.602
13.34	47.5973
13.424	47.9045
13.508	47.9241
13.592	47.5904
13.676	47.3928
13.76	47.4224
13.844	47.5707
13.928	47.6168
14.012	47.4686
14.096	47.1862
14.18	46.9079
14.264	46.6973
14.348	46.545
14.432	46.4426
14.516	46.4817
14.6	46.5665
14.684	46.4931
14.768	46.4411
14.852	46.5221
14.936	46.5824
15.02	46.5328
15.104	46.3797
15.188	46.1672
15.272	46.0072
15.356	46.0111
15.44	46.1506
15.524	46.2664
15.608	46.1738
15.692	45.948
15.776	45.8934
15.86	45.9611
15.944	45.8681
16.028	45.6486
16.112	45.5314
16.196	45.557
16.28	45.5791
16.364	45.5072
16.448	45.3912
16.532	45.2596
16.616	45.1168
16.7	45.0444
16.784	45.0665
16.868	45.073
16.952	44.9949
17.036	44.8633
17.12	44.6866
17.204	44.4618
17.288	44.2551
17.372	44.1415
17.456	44.1242
17.54	44.1729
17.624	44.296
17.708	44.4902
17.792	44.6681
17.876	44.7123
17.96	44.5707
18.044	44.2829
18.128	43.964
18.212	43.7467
18.296	43.6814
18.38	43.6791
18.464	43.5898
18.548	43.3509
18.632	43.0423
18.716	42.8034
18.8	42.7049
18.884	42.6937
18.968	42.641
19.052	42.4557
19.136	42.1978
19.22	42.0544
19.304	42.1743
19.388	42.5327
19.472	42.9706
19.556	43.3101
19.64	43.444
19.724	43.3589
19.808	43.1433
19.892	42.9522
19.976	42.8996
20.06	42.9474
20.144	42.9382
20.228	42.7544
20.312	42.4252
20.396	42.0868
20.48	41.8723
20.564	41.847
20.648	42.0145
20.732	42.329
20.816	42.6893
20.9	42.9369
20.984	42.9191
21.068	42.5834
21.152	42.0107
21.236	41.3722
21.32	40.8382
21.404	40.498
21.488	40.3477
21.572	40.3272
21.656	40.3829
21.74	40.484
21.824	40.6035
21.908	40.6986
21.992	40.7251
22.076	40.6803
22.16	40.629
22.244	40.6698
22.328	40.8593
22.412	41.1466
22.496	41.3764
22.58	41.3895
22.664	41.107
22.748	40.5773
22.832	39.925
22.916	39.2753
23	38.6877
23.084	38.1725
23.168	37.7277
23.252	37.3769
23.336	37.1846
23.42	37.2274
23.504	37.5507
23.588	38.1432
23.672	38.9422
23.756	39.8391
23.84	40.7072
23.924	41.3982
24.008	41.7625
24.092	41.6824
24.176	41.1285
24.26	40.1871
24.344	39.0622
24.428	38.0273
24.512	37.4358
24.596	37.5376
24.68	38.3619
24.764	39.667
24.848	41.0481
24.932	42.0792
25.016	42.5181
25.1	42.4017
25.184	41.898
25.268	41.1961
25.352	40.4537
25.436	39.7406
25.52	39.0871
25.604	38.57
25.688	38.3823
25.772	38.7617
25.856	39.8121
25.94	41.2066
26.024	42.2019
26.108	41.9291
26.192	39.8835
26.276	36.1758
26.36	31.6586
26.444	27.3983
26.528	24.287
26.612	22.5759
26.696	22.2777
26.78	23.3874
26.864	26.1463
26.948	30.9135
27.028	37.3578

File: C-4040-8_t09_cm-1.asc
PE IR       SPECTRUM    SPECTRUM    ASCII       PEDS        1.60
  -1
C-99E0~1.ASC
17/03/27
15:12:29.00
17/03/27
15:12:29.00
tln
$C-4040-8_t0009$<tbV0>[-7.8,-13.0,8.0,0.0,27,1,0]
370
64

2002,4.07
MIRTGS : RIGHTBACK : INTERNAL 2
MIR : ON : INTERNAL 2
OPTKBR

0.200000
8
8.000000
FILLER
RATIO
SPECTRUM
UNLOCKED 256

DOUBLE
64
COMBINED
1
0
0

1.000000
RATIO

1
0
TRUE
51149
0
LEFT NOT FITTED RIGHT NOT FITTED 0
NONE
NONE
15600
12
4.427000
51148
TRUE
1 0 8 72 0 0 0 0

15798

#HDR
-1
-1
#GR
CM-1
%T
2.38419e-05
0.0
5000
-1.000000
4631
8
80.5619
22.2258
#DATA
5000	63.9547
4984	64.2576
4968	64.1328
4952	63.7763
4936	63.3391
4920	63.9989
4904	65.1384
4888	64.3805
4872	64.4553
4856	64.1956
4840	64.5982
4824	64.0626
4808	64.3568
4792	63.9846
4776	64.5563
4760	64.2984
4744	64.4958
4728	64.2308
4712	64.6108
4696	64.2522
4680	64.8204
4664	64.1887
4648	64.4591
4632	64.4419
4616	64.3677
4600	64.184
4584	63.8531
4568	63.7178
4552	63.9243
4536	63.5962
4520	63.6486
4504	64.2047
4488	63.2982
4472	63.6974
4456	65.2253
4440	66.8472
4424	62.2266
4408	62.5638
4392	69.1966
4376	68.1637
4360	64.3758
4344	64.2142
4328	63.8082
4312	63.2607
4296	63.3851
4280	63.8421
4264	63.7663
4248	63.7896
4232	63.9964
4216	63.7655
4200	63.9772
4184	63.5065
4168	63.2219
4152	64.33
4136	63.8478
4120	64.1798
4104	63.9582
4088	64.084
4072	64.1399
4056	64.4902
4040	64.3179
4024	64.2482
4008	64.2729
3992	64.1438
3976	63.7038
3960	64.2547
3944	64.1458
3928	63.9403
3912	63.8581
3896	64.1351
3880	64.0458
3864	63.9816
3848	64.2916
3832	63.641
3816	63.7137
3800	64.148
3784	63.61
3768	63.9732
3752	64.0016
3736	64.0603
3720	63.9941
3704	63.5798
3688	63.8689
3672	64.1797
3656	63.712
3640	63.5758
3624	63.7444
3608	63.6684
3592	63.592
3576	63.5509
3560	63.6622
3544	63.2222
3528	63.4083
3512	63.1105
3496	63.4225
3480	63.1882
3464	63.5112
3448	63.1791
3432	63.2252
3416	63.0942
3400	62.9652
3384	63.0512
3368	63.0898
3352	62.8687
3336	63.0094
3320	62.9565
3304	62.8677
3288	62.7135
3272	62.7763
3256	62.7198
3240	62.7887
3224	62.6011
3208	62.7578
3192	62.3577
3176	62.5494
3160	62.4758
3144	62.3111
3128	62.362
3112	62.3556
3096	62.3968
3080	62.2871
3064	62.3062
3048	62.2549
3032	62.135
3016	62.0079
3000	62.0888
2984	61.8772
2968	61.8065
2952	61.5804
2936	61.6884
2920	61.3909
2904	61.51
2888	61.4334
2872	61.4235
2856	61.4781
2840	61.4946
2824	61.4476
2808	61.3283
2792	61.1722
2776	61.1891
2760	61.0928
2744	61.1619
2728	60.9881
2712	60.9278
2696	60.8972
2680	60.874
2664	60.7608
2648	60.6213
2632	60.5877
2616	60.5039
2600	60.407
2584	60.4481
2568	60.2661
2552	60.2708
2536	60.162
2520	60.2434
2504	60.1672
2488	59.8332
2472	59.8948
2456	59.7936
2440	59.99
2424	59.4723
2408	59.4347
2392	59.5805
2376	59.3981
2360	59.4583
2344	59.2496
2328	59.2077
2312	58.9816
2296	58.9849
2280	58.9757
2264	58.94
2248	58.796
2232	58.6426
2216	58.4683
2200	58.434
2184	58.3657
2168	58.3517
2152	58.1993
2136	58.276
2120	58.1005
2104	58.007
2088	57.9777
2072	57.9343
2056	57.5563
2040	57.6949
2024	57.4844
2008	57.5197
1992	57.3932
1976	57.1913
1960	57.1404
1944	57.0477
1928	56.8969
1912	56.8193
1896	56.7865
1880	56.6316
1864	56.3943
1848	56.4888
1832	56.3129
1816	56.2889
1800	56.151
1784	56.1385
1768	55.9791
1752	55.9141
1736	55.71
1720	55.7536
1704	55.701
1688	55.7015
1672	55.433
1656	55.5664
1640	55.117
1624	55.0547
1608	54.9468
1592	54.6176
1576	54.7
1560	54.8852
1544	54.67
1528	54.459
1512	54.4642
1496	54.3336
1480	54.0312
1464	53.8934
1448	53.9777
1432	53.7172
1416	53.6248
1400	53.3754
1384	53.3029
1368	53.0795
1352	53.0958
1336	52.8941
1320	52.9308
1304	52.6175
1288	52.6352
1272	52.3342
1256	52.4464
1240	52.1806
1224	52.2101
1208	51.9067
1192	51.9078
1176	51.8317
1160	51.6994
1144	51.603
1128	51.3404
1112	51.3746
1096	51.2498
1080	50.8062
1064	50.8364
1048	51.0164
1032	50.7243
1016	50.6917
1000	50.5459
984	 50.2858
968	 50.1552
952	 50.0992
936	 49.7077
920	 49.3515
904	 49.6834
888	 50.1898
872	 49.0351
856	 49.0046
840	 49.0702
824	 48.5012
808	 48.3994
792	 48.4251
776	 48.0728
760	 47.8761
744	 47.9516
728	 47.394
712	 47.3663
696	 46.5145
680	 46.4663
664	 46.4706
648	 46.1353
632	 45.9374
616	 45.5768
600	 45.0594
584	 44.6785
568	 44.2617
552	 44.0062
536	 42.9591
520	 42.0537
504	 43.0554
488	 41.8567
472	 41.7456
456	 40.7135
440	 40.7247
424	 38.1174
408	 37.4428
392	 39.1583
376	 22.7954
370	 37.3578

File: C-4040-8_t10.asc
PE IR       SPECTRUM    SPECTRUM    ASCII       PEDS        1.60
  -1
C-A92A~1.ASC
17/03/27
15:17:06.00
17/03/27
15:17:32.00
tln
$C-4040-8_t0010$<tbV0>[-10.4,-13.0,8.0,0.0,27,1,0]
27.028
64

2002,4.07
MIRTGS : RIGHTBACK : INTERNAL 2
MIR : ON : INTERNAL 2
OPTKBR

0.200000
8
8.000000
FILLER
RATIO
SPECTRUM
UNLOCKED 256

DOUBLE
64
COMBINED
1
0
0

0.002000
RATIO

1
0
TRUE
51149
0
LEFT NOT FITTED RIGHT NOT FITTED 0
NONE
NONE
15600
12
4.427000
51148
TRUE
1 0 8 72 0 0 0 0

15798

#HDR
-1
-1
#GR
µM
%T
2.38419e-05
0.0
2.000000
0.002000
12515
8
80.5006
23.4116
#DATA
2.000000	 63.8163
2.084000	 63.6378
2.168000	 64.0203
2.252000	 66.4957
2.336000	 62.7836
2.420000	 63.3046
2.504000	 63.6413
2.588000	 62.9909
2.672000	 63.1275
2.756000	 62.4093
2.840000	 61.9536
2.924000	 61.4281
3.008000	 61.1896
3.092000	 60.6528
3.176000	 60.3506
3.260000	 59.9242
3.344000	 59.5242
3.428000	 58.9177
3.512000	 58.613
3.596000	 58.2198
3.680000	 57.7382
3.764000	 57.4219
3.848000	 56.8677
3.932000	 56.5875
4.016000	 56.2382
4.100000	 55.8838
4.184000	 55.3904
4.268000	 54.9466
4.352000	 54.5536
4.436000	 54.2312
4.520000	 53.9111
4.604000	 53.523
4.688000	 53.229
4.772000	 52.9269
4.856000	 52.4753
4.940000	 52.0611
5.024000	 51.8571
5.108000	 51.4363
5.192000	 51.2596
5.276000	 50.9839
5.359999	 50.6306
5.444000	 50.34
5.528000	 50.1528
5.612000	 49.8807
5.696000	 49.6785
5.780000	 49.3604
5.864000	 49.2055
5.948000	 48.9442
6.032000	 48.8655
6.116000	 48.4551
6.200000	 48.1395
6.284000	 47.7914
6.368000	 47.7483
6.452000	 47.5387
6.536000	 47.2802
6.620000	 47.3275
6.704000	 46.858
6.788000	 46.7734
6.872000	 46.7155
6.956000	 46.3154
7.040000	 46.1109
7.124000	 45.8696
7.208000	 45.7713
7.292000	 45.5126
7.376000	 45.4626
7.460000	 45.1565
7.544000	 45.1657
7.628000	 44.886
7.712000	 44.891
7.796000	 44.5724
7.880000	 44.4186
7.964000	 44.3019
8.048000	 44.277
8.132000	 44.1515
8.216000	 43.9517
8.300000	 43.9688
8.384000	 43.5832
8.468000	 43.4518
8.552000	 43.3776
8.635999	 43.3459
8.719999	 43.1377
8.804000	 42.8881
8.888000	 42.9619
8.972000	 42.8515
9.056000	 42.8909
9.140000	 42.7346
9.224000	 42.5519
9.308000	 42.2371
9.391999	 42.241
9.475999	 42.095
9.560000	 42.1778
9.644000	 41.9431
9.728000	 42.0051
9.812000	 41.9853
9.896000	 41.7175
9.980000	 41.6382
10.064	41.479
10.148	41.396
10.232	41.4046
10.316	41.1119
10.4	41.0964
10.484	40.6791
10.568	40.6704
10.652	40.3702
10.736	40.4349
10.82	40.1373
10.904	40.0123
10.988	39.6225
11.072	40.0055
11.156	40.1515
11.24	39.7882
11.324	39.4958
11.408	40.0238
11.492	40.0764
11.576	39.7705
11.66	39.8554
11.744	39.6869
11.828	39.4214
11.912	39.221
11.996	39.1219
12.08	38.7729
12.164	38.6237
12.248	38.634
12.332	38.6596
12.416	38.6873
12.5	38.606
12.584	38.4008
12.668	38.5951
12.752	38.468
12.836	38.2555
12.92	38.1524
13.004	37.9967
13.088	38.0701
13.172	37.8667
13.256	37.7431
13.34	37.8266
13.424	37.704
13.508	37.3684
13.592	37.17
13.676	37.3391
13.76	37.3043
13.844	37.1269
13.928	37.004
14.012	36.916
14.096	36.8402
14.18	36.7688
14.264	36.8511
14.348	36.907
14.432	36.7315
14.516	36.4961
14.6	36.3118
14.684	36.1112
14.768	35.9641
14.852	35.8648
14.936	35.7112
15.02	35.6618
15.104	35.7697
15.188	35.7411
15.272	35.5285
15.356	35.35
15.44	35.2326
15.524	35.1609
15.608	35.1839
15.692	35.1763
15.776	35.0207
15.86	34.8359
15.944	34.7339
16.028	34.6487
16.112	34.5384
16.196	34.4359
16.28	34.3399
16.364	34.265
16.448	34.1918
16.532	33.9801
16.616	33.6369
16.7	33.4184
16.784	33.4725
16.868	33.69
16.952	33.8641
17.036	33.8462
17.12	33.6675
17.204	33.508
17.288	33.418
17.372	33.2371
17.456	32.8758
17.54	32.486
17.624	32.2939
17.708	32.3439
17.792	32.4767
17.876	32.5347
17.96	32.4863
18.044	32.3418
18.128	32.0823
18.212	31.7561
18.296	31.5349
18.38	31.5562
18.464	31.7465
18.548	31.8875
18.632	31.8425
18.716	31.6834
18.8	31.5841
18.884	31.63
18.968	31.7267
19.052	31.6755
19.136	31.3689
19.22	30.9042
19.304	30.5137
19.388	30.3829
19.472	30.5362
19.556	30.8451
19.64	31.1182
19.724	31.2131
19.808	31.1122
19.892	30.9199
19.976	30.7616
20.06	30.67
20.144	30.5682
20.228	30.373
20.312	30.1114
20.396	29.9133
20.48	29.8906
20.564	30.0473
20.648	30.3041
20.732	30.5784
20.816	30.8097
20.9	30.9236
20.984	30.8268
21.068	30.4663
21.152	29.9026
21.236	29.2946
21.32	28.7897
21.404	28.4307
21.488	28.1729
21.572	27.9733
21.656	27.8412
21.74	27.8119
21.824	27.8878
21.908	28.0106
21.992	28.0945
22.076	28.0766
22.16	27.9438
22.244	27.722
22.328	27.4477
22.412	27.1565
22.496	26.8779
22.58	26.6406
22.664	26.4693
22.748	26.3692
22.832	26.3277
22.916	26.3345
23	26.3727
23.084	26.4278
23.168	26.4799
23.252	26.507
23.336	26.498
23.42	26.4682
23.504	26.464
23.588	26.5422
23.672	26.7236
23.756	26.9417
23.84	27.0213
23.924	26.7808
24.008	26.1251
24.092	25.1313
24.176	24.121
24.26	23.4871
24.344	23.5119
24.428	24.2175
24.512	25.4141
24.596	26.8211
24.68	28.1248
24.764	29.0457
24.848	29.4229
24.932	29.3057
25.016	28.9337
25.1	28.5977
25.184	28.4104
25.268	28.2818
25.352	28.0828
25.436	28.0757
25.52	29.0025
25.604	31.7702
25.688	36.9718
25.772	44.2995
25.856	52.4669
25.94	59.5674
26.024	63.754
26.108	64.1121
26.192	60.9891
26.276	55.7748
26.36	50.4989
26.444	46.8397
26.528	45.5176
26.612	46.1807
26.696	47.8231
26.78	49.3726
26.864	50.2634
26.948	50.5661
27.028	50.6879

File: C-4040-8_t10_cm-1.asc
PE IR       SPECTRUM    SPECTRUM    ASCII       PEDS        1.60
  -1
C-1A61~1.ASC
17/03/27
15:17:06.00
17/03/27
15:17:06.00
tln
$C-4040-8_t0010$<tbV0>[-10.4,-13.0,8.0,0.0,27,1,0]
370
64

2002,4.07
MIRTGS : RIGHTBACK : INTERNAL 2
MIR : ON : INTERNAL 2
OPTKBR

0.200000
8
8.000000
FILLER
RATIO
SPECTRUM
UNLOCKED 256

DOUBLE
64
COMBINED
1
0
0

1.000000
RATIO

1
0
TRUE
51149
0
LEFT NOT FITTED RIGHT NOT FITTED 0
NONE
NONE
15600
12
4.427000
51148
TRUE
1 0 8 72 0 0 0 0

15798

#HDR
-1
-1
#GR
CM-1
%T
2.38419e-05
0.0
5000
-1.000000
4631
8
80.8848
23.4479
#DATA
5000	63.8163
4984	64.5076
4968	63.7141
4952	63.3027
4936	63.8205
4920	63.4305
4904	64.6304
4888	64.294
4872	63.6675
4856	64.4221
4840	64.6135
4824	63.9663
4808	63.59
4792	64.1996
4776	64.069
4760	63.8028
4744	64.3737
4728	63.6728
4712	64.2332
4696	63.9918
4680	64.1637
4664	64.0063
4648	64.162
4632	64.1068
4616	64.0807
4600	63.8836
4584	63.6698
4568	63.7301
4552	63.5843
4536	63.2989
4520	63.2855
4504	63.7698
4488	62.9248
4472	63.6276
4456	64.4056
4440	66.0455
4424	61.8433
4408	61.1684
4392	64.9195
4376	65.7192
4360	63.5382
4344	63.312
4328	63.0969
4312	62.9417
4296	63.1063
4280	62.7462
4264	63.186
4248	62.9568
4232	63.1107
4216	63.3277
4200	63.5798
4184	62.8959
4168	62.8294
4152	63.3829
4136	63.1011
4120	63.4539
4104	63.5917
4088	63.4933
4072	63.3419
4056	63.2792
4040	63.4643
4024	63.4152
4008	63.6088
3992	63.6186
3976	62.857
3960	63.0709
3944	63.4171
3928	63.2627
3912	63.167
3896	63.2398
3880	62.962
3864	62.9911
3848	63.0271
3832	63.0407
3816	62.8252
3800	63.0763
3784	62.5351
3768	62.8122
3752	63.1268
3736	63.0067
3720	62.7459
3704	62.5458
3688	63.0039
3672	62.8226
3656	62.7085
3640	62.3989
3624	62.4084
3608	62.2643
3592	62.2412
3576	62.2174
3560	62.2632
3544	61.9545
3528	61.9843
3512	61.8053
3496	62.0089
3480	62.1156
3464	61.9178
3448	61.9114
3432	61.543
3416	61.465
3400	61.4274
3384	61.2737
3368	61.2566
3352	61.3027
3336	61.1468
3320	61.1325
3304	60.9698
3288	61.1192
3272	60.9591
3256	60.6327
3240	60.5796
3224	60.6442
3208	60.7715
3192	60.5469
3176	60.4897
3160	60.4642
3144	60.3353
3128	60.1319
3112	60.1987
3096	60.1235
3080	59.9885
3064	59.9415
3048	59.767
3032	59.7754
3016	59.7618
3000	59.5894
2984	59.4953
2968	59.2907
2952	59.0855
2936	59.0912
2920	58.963
2904	58.8826
2888	58.8446
2872	58.6866
2856	58.4491
2840	58.6744
2824	58.6062
2808	58.3667
2792	58.3321
2776	58.1758
2760	58.1169
2744	58.116
2728	57.8307
2712	57.7109
2696	57.7671
2680	57.6047
2664	57.4823
2648	57.2957
2632	57.233
2616	57.0782
2600	56.8639
2584	56.7822
2568	56.7157
2552	56.6448
2536	56.3983
2520	56.4137
2504	56.1642
2488	56.224
2472	55.9503
2456	55.627
2440	55.8905
2424	55.4385
2408	55.3457
2392	55.3689
2376	55.2049
2360	55.2046
2344	54.9617
2328	54.9033
2312	54.6232
2296	54.4945
2280	54.46
2264	54.3071
2248	54.2198
2232	54.1122
2216	53.9466
2200	53.7047
2184	53.5016
2168	53.4859
2152	53.3365
2136	53.2609
2120	53.121
2104	52.9944
2088	52.6668
2072	52.5003
2056	52.3915
2040	52.3375
2024	52.0548
2008	51.9929
1992	51.8868
1976	51.6575
1960	51.4479
1944	51.3977
1928	51.2967
1912	51.0789
1896	50.9791
1880	50.8517
1864	50.6358
1848	50.5535
1832	50.3531
1816	50.2062
1800	50.1122
1784	49.9328
1768	49.8815
1752	49.6021
1736	49.4403
1720	49.2352
1704	49.2529
1688	49.0298
1672	48.9291
1656	48.9425
1640	48.5217
1624	48.3181
1608	48.0425
1592	47.7901
1576	47.9422
1560	48.0175
1544	47.6242
1528	47.3335
1512	47.3123
1496	46.9709
1480	46.7449
1464	46.7335
1448	46.4621
1432	46.2461
1416	46.0668
1400	45.9922
1384	45.6684
1368	45.4745
1352	45.4472
1336	45.1024
1320	45.1269
1304	44.936
1288	44.7455
1272	44.398
1256	44.3047
1240	44.2129
1224	44.0912
1208	43.9779
1192	43.5751
1176	43.4145
1160	43.3645
1144	43.0708
1128	42.936
1112	42.8768
1096	42.7502
1080	42.3922
1064	42.2267
1048	42.1452
1032	41.8467
1016	41.9055
1000	41.5982
984	 41.4208
968	 41.1295
952	 40.6392
936	 40.3346
920	 39.9913
904	 39.9096
888	 39.6659
872	 40.132
856	 39.8448
840	 39.2345
824	 38.6149
808	 38.6746
792	 38.4769
776	 38.217
760	 37.917
744	 37.6506
728	 37.347
712	 36.8907
696	 36.8849
680	 36.0633
664	 35.7094
648	 35.2427
632	 34.9095
616	 34.3922
600	 33.4742
584	 33.6598
568	 32.3126
552	 32.1263
536	 31.7999
520	 30.8451
504	 31.0388
488	 29.9029
472	 29.6483
456	 28.0395
440	 26.388
424	 26.5374
408	 25.3794
392	 28.8101
376	 45.9508
370	 50.6879

File: C-4040-8_t11.asc
PE IR       SPECTRUM    SPECTRUM    ASCII       PEDS        1.60
  -1
C-A92E~1.ASC
17/03/27
15:21:42.00
17/03/27
15:22:09.00
tln
$C-4040-8_t0011$<tbV0>[-13.0,-13.0,8.0,0.0,27,1,0]
27.028
64

2002,4.07
MIRTGS : RIGHTBACK : INTERNAL 2
MIR : ON : INTERNAL 2
OPTKBR

0.200000
8
8.000000
FILLER
RATIO
SPECTRUM
UNLOCKED 256

DOUBLE
64
COMBINED
1
0
0

0.002000
RATIO

1
0
TRUE
51149
0
LEFT NOT FITTED RIGHT NOT FITTED 0
NONE
NONE
15600
12
4.427000
51148
TRUE
1 0 8 72 0 0 0 0

15798

#HDR
-1
-1
#GR
µM
%T
2.38419e-05
0.0
2.000000
0.002000
12515
8
86.5067
40.4221
#DATA
2.000000	 64.5423
2.084000	 64.8924
2.168000	 65.2846
2.252000	 67.5837
2.336000	 64.7496
2.420000	 65.1062
2.504000	 65.1824
2.588000	 65.111
2.672000	 65.2084
2.756000	 65.2138
2.840000	 65.0435
2.924000	 64.7833
3.008000	 64.7692
3.092000	 64.6662
3.176000	 64.8823
3.260000	 64.7788
3.344000	 64.7058
3.428000	 64.4643
3.512000	 64.5801
3.596000	 64.693
3.680000	 64.6419
3.764000	 64.5399
3.848000	 64.4992
3.932000	 64.4928
4.016000	 64.4994
4.100000	 64.4531
4.184000	 64.5337
4.268000	 64.4151
4.352000	 64.4328
4.436000	 64.3526
4.520000	 64.3998
4.604000	 64.3683
4.688000	 64.2695
4.772000	 64.2654
4.856000	 64.2141
4.940000	 64.1036
5.024000	 64.1407
5.108000	 64.0143
5.192000	 64.121
5.276000	 64.1141
5.359999	 64.0779
5.444000	 63.9479
5.528000	 63.9418
5.612000	 64.0256
5.696000	 63.9223
5.780000	 63.8288
5.864000	 64.0159
5.948000	 64.079
6.032000	 64.1184
6.116000	 63.9921
6.200000	 63.6771
6.284000	 63.6777
6.368000	 63.784
6.452000	 63.7018
6.536000	 63.8159
6.620000	 63.9478
6.704000	 63.6922
6.788000	 63.7425
6.872000	 63.8661
6.956000	 63.7406
7.040000	 63.5737
7.124000	 63.5207
7.208000	 63.5109
7.292000	 63.4916
7.376000	 63.374
7.460000	 63.4078
7.544000	 63.2661
7.628000	 63.1707
7.712000	 63.1985
7.796000	 63.1059
7.880000	 63.104
7.964000	 63.0864
8.048000	 63.0429
8.132000	 63.131
8.216000	 63.0357
8.300000	 63.153
8.384000	 63.0967
8.468000	 63.0009
8.552000	 63.1618
8.635999	 63.0471
8.719999	 62.9916
8.804000	 62.8068
8.888000	 62.9902
8.972000	 62.9002
9.056000	 62.7591
9.140000	 62.8658
9.224000	 62.9177
9.308000	 62.8919
9.391999	 62.8911
9.475999	 62.847
9.560000	 62.8656
9.644000	 62.8166
9.728000	 62.8514
9.812000	 62.9186
9.896000	 62.8636
9.980000	 62.7524
10.064	62.7836
10.148	62.7522
10.232	62.5097
10.316	62.5991
10.4	62.5205
10.484	62.5837
10.568	62.5497
10.652	62.532
10.736	62.2371
10.82	62.1108
10.904	62.3681
10.988	62.576
11.072	62.6542
11.156	62.766
11.24	62.5576
11.324	62.0898
11.408	62.4743
11.492	62.2635
11.576	62.0903
11.66	62.2409
11.744	62.3245
11.828	62.2482
11.912	62.0616
11.996	61.9124
12.08	61.9631
12.164	61.9339
12.248	61.9343
12.332	61.957
12.416	61.9595
12.5	61.834
12.584	61.8309
12.668	61.8705
12.752	61.9091
12.836	61.9764
12.92	61.9473
13.004	61.7535
13.088	61.5242
13.172	61.8185
13.256	62.099
13.34	61.932
13.424	61.9229
13.508	61.716
13.592	61.4277
13.676	61.3696
13.76	61.1913
13.844	61.092
13.928	61.3491
14.012	61.3878
14.096	61.1519
14.18	61.1643
14.264	61.3147
14.348	61.349
14.432	61.1738
14.516	60.9467
14.6	60.9286
14.684	60.9546
14.768	60.9191
14.852	60.8997
14.936	60.8544
15.02	60.8432
15.104	60.9068
15.188	60.9784
15.272	60.9811
15.356	60.8956
15.44	60.8911
15.524	61.0102
15.608	61.0785
15.692	61.0788
15.776	61.0341
15.86	60.9371
15.944	60.8732
16.028	60.8119
16.112	60.7028
16.196	60.7229
16.28	60.9444
16.364	61.1242
16.448	61.066
16.532	60.8721
16.616	60.6853
16.7	60.5095
16.784	60.3879
16.868	60.4294
16.952	60.58
17.036	60.6772
17.12	60.7112
17.204	60.7765
17.288	60.8523
17.372	60.8518
17.456	60.7669
17.54	60.637
17.624	60.5378
17.708	60.563
17.792	60.6947
17.876	60.7762
17.96	60.6593
18.044	60.3488
18.128	60.0136
18.212	59.8335
18.296	59.8392
18.38	59.8967
18.464	59.8482
18.548	59.6647
18.632	59.4659
18.716	59.4212
18.8	59.6041
18.884	59.8877
18.968	60.0131
19.052	59.8071
19.136	59.365
19.22	58.9773
19.304	58.8732
19.388	59.0537
19.472	59.3489
19.556	59.5542
19.64	59.5408
19.724	59.3335
19.808	59.1277
19.892	59.1809
19.976	59.592
20.06	60.1683
20.144	60.5529
20.228	60.5161
20.312	60.1157
20.396	59.6113
20.48	59.2638
20.564	59.1985
20.648	59.3795
20.732	59.6698
20.816	59.9164
20.9	59.9981
20.984	59.8476
21.068	59.4633
21.152	58.9126
21.236	58.3228
21.32	57.8359
21.404	57.5336
21.488	57.4038
21.572	57.3576
21.656	57.3114
21.74	57.2492
21.824	57.2093
21.908	57.2226
21.992	57.2641
22.076	57.2705
22.16	57.207
22.244	57.1159
22.328	57.0944
22.412	57.2082
22.496	57.4159
22.58	57.5728
22.664	57.5075
22.748	57.129
22.832	56.4975
22.916	55.7905
23	55.2259
23.084	54.9579
23.168	55.0288
23.252	55.3705
23.336	55.8582
23.42	56.3887
23.504	56.9145
23.588	57.4335
23.672	57.9592
23.756	58.5019
23.84	59.0018
23.924	59.3691
24.008	59.4842
24.092	59.2074
24.176	58.4646
24.26	57.3226
24.344	55.9503
24.428	54.5615
24.512	53.4681
24.596	52.9334
24.68	53.0258
24.764	53.5434
24.848	54.1159
24.932	54.4381
25.016	54.5013
25.1	54.6705
25.184	55.3416
25.268	56.7145
25.352	58.7707
25.436	61.5964
25.52	65.4108
25.604	70.3765
25.688	76.1909
25.772	81.8128
25.856	85.6704
25.94	86.2518
26.024	82.6927
26.108	75.2994
26.192	65.5209
26.276	55.4333
26.36	47.1425
26.444	42.0025
26.528	40.4225
26.612	42.0094
26.696	46.2222
26.78	52.7658
26.864	61.7237
26.948	73.1039
27.028	85.3617