Folder: Masteroppgave/Bakgrunnsmateriale/MATLAB/FTIR/ftir_data/subBb/Mapping_36 (part 7)

File: C-4040-8_t12_cm-1.asc
PE IR       SPECTRUM    SPECTRUM    ASCII       PEDS        1.60
  -1
C-1A64~1.ASC
17/05/02
11:46:56.00
17/05/02
11:46:56.00
tln
$C-4040-8_t0012$<tbV0>[-12.5,-8.0,8.0,0.0,22,1,0]
370
64

2002,4.07
MIRTGS : RIGHTBACK : INTERNAL 2
MIR : ON : INTERNAL 2
OPTKBR

0.200000
8
8.000000
FILLER
RATIO
SPECTRUM
UNLOCKED 256

DOUBLE
64
COMBINED
1
0
0

1.000000
RATIO

1
0
TRUE
51149
0
LEFT NOT FITTED RIGHT NOT FITTED 0
NONE
NONE
15600
12
4.427000
51148
TRUE
1 0 8 72 0 0 0 0

15798

#HDR
-1
-1
#GR
CM-1
%T
2.38419e-05
0.0
7800
-1.000000
7431
8
80.9199
42.3431
#DATA
7800	69.2177
7775	71.4405
7750	65.7208
7725	59.692
7700	57.1733
7675	70.8041
7650	71.2322
7625	65.7682
7600	62.9872
7575	70.5452
7550	65.6375
7525	60.6968
7500	62.1309
7475	65.0604
7450	67.0583
7425	67.1773
7400	66.6199
7375	64.8781
7350	62.0259
7325	66.6985
7300	64.2904
7275	65.3393
7250	66.8238
7225	62.6163
7200	67.0258
7175	63.9271
7150	64.9795
7125	64.4132
7100	65.7346
7075	62.0879
7050	63.4212
7025	65.2116
7000	65.6362
6975	63.7999
6950	63.3749
6925	66.253
6900	64.6336
6875	63.6716
6850	65.4272
6825	65.6547
6800	64.5422
6775	65.4009
6750	62.5456
6725	64.5659
6700	65.1986
6675	64.15
6650	65.5859
6625	63.2313
6600	64.9519
6575	66.3744
6550	65.1221
6525	64.8943
6500	64.4984
6475	62.9962
6450	64.4332
6425	65.162
6400	65.4174
6375	64.9258
6350	66.2959
6325	64.537
6300	63.8796
6275	65.1908
6250	65.2148
6225	66.2893
6200	65.3966
6175	65.2807
6150	64.0543
6125	65.2263
6100	66.8755
6075	64.8068
6050	65.1588
6025	65.6545
6000	65.4967
5975	65.3617
5950	64.3781
5925	64.6394
5900	64.729
5875	65.1386
5850	64.952
5825	64.9692
5800	66.7069
5775	64.9546
5750	64.7732
5725	64.9854
5700	64.9026
5675	65.283
5650	64.8257
5625	64.701
5600	65.1152
5575	63.946
5550	65.3835
5525	64.6085
5500	64.9217
5475	66.1949
5450	65.8367
5425	65.5961
5400	65.3399
5375	65.7599
5350	65.7943
5325	64.7649
5300	64.5852
5275	64.9025
5250	66.4743
5225	64.3575
5200	65.0836
5175	66.7989
5150	64.1411
5125	65.0018
5100	65.1628
5075	65.1546
5050	65.1343
5025	64.6217
5000	65.4658
4975	64.7551
4950	65.6346
4925	65.3863
4900	64.8542
4875	65.6322
4850	65.0514
4825	65.4299
4800	65.2126
4775	65.2244
4750	64.762
4725	65.1589
4700	64.9877
4675	64.9046
4650	64.9599
4625	65.2169
4600	65.1875
4575	65.3506
4550	65.5348
4525	65.1519
4500	65.6567
4475	65.0653
4450	66.2645
4425	65.7474
4400	64.9665
4375	66.903
4350	66.0033
4325	65.8524
4300	65.6047
4275	65.8773
4250	65.3506
4225	65.4927
4200	65.1522
4175	65.6733
4150	65.2704
4125	64.9646
4100	64.9445
4075	65.3381
4050	65.0851
4025	65.2283
4000	65.3353
3975	65.3079
3950	65.1711
3925	65.2936
3900	65.4504
3875	65.4702
3850	65.292
3825	65.4863
3800	65.4367
3775	65.2122
3750	65.37
3725	65.3628
3700	65.3449
3675	65.2949
3650	65.3451
3625	65.2632
3600	65.4223
3575	65.4699
3550	65.2411
3525	65.3966
3500	65.2829
3475	65.2644
3450	65.3725
3425	65.4456
3400	65.2549
3375	65.3079
3350	65.3733
3325	65.1435
3300	65.3058
3275	65.3482
3250	65.5139
3225	65.2561
3200	65.3289
3175	65.3116
3150	65.48
3125	65.2107
3100	65.2142
3075	65.3449
3050	65.2666
3025	65.5406
3000	65.235
2975	65.3043
2950	65.1462
2925	65.0802
2900	65.1564
2875	65.1794
2850	65.1596
2825	65.349
2800	65.374
2775	65.3586
2750	65.264
2725	65.2651
2700	65.3323
2675	65.3302
2650	65.237
2625	65.3805
2600	65.328
2575	65.3426
2550	65.3426
2525	65.4989
2500	65.4346
2475	65.3176
2450	65.2581
2425	65.2511
2400	65.5054
2375	65.4271
2350	65.3366
2325	65.3792
2300	65.3502
2275	65.3787
2250	65.4813
2225	65.3756
2200	65.3591
2175	65.2803
2150	65.3305
2125	65.2905
2100	65.4237
2075	65.4447
2050	65.3333
2025	65.3394
2000	65.382
1975	65.3953
1950	65.4015
1925	65.4125
1900	65.4337
1875	65.4225
1850	65.3835
1825	65.4528
1800	65.4454
1775	65.4603
1750	65.2781
1725	65.2081
1700	65.4165
1675	65.2461
1650	65.273
1625	65.3052
1600	65.2933
1575	65.0959
1550	65.1388
1525	65.1697
1500	65.2683
1475	65.012
1450	65.1017
1425	65.0672
1400	65.1468
1375	65.0679
1350	65.2813
1325	64.9995
1300	65.0833
1275	64.9567
1250	65.0492
1225	65.0281
1200	65.078
1175	64.9542
1150	64.8837
1125	64.9908
1100	65.1371
1075	65.0193
1050	64.9884
1025	64.8229
1000	64.8336
975	 64.6272
950	 64.7911
925	 64.7838
900	 64.6256
875	 64.7212
850	 64.8043
825	 64.0039
800	 64.391
775	 64.3412
750	 63.7927
725	 63.6877
700	 63.4275
675	 63.1065
650	 63.4651
625	 62.8971
600	 62.5545
575	 62.3884
550	 62.3059
525	 60.9537
500	 60.7941
475	 60.7462
450	 59.3738
425	 56.6651
400	 56.0592
375	 66.3656
370	 60.7284

File: C-4040-8_t13.asc
PE IR       SPECTRUM    SPECTRUM    ASCII       PEDS        1.60
  -1
C-A926~1.ASC
17/05/02
11:58:35.00
17/05/02
11:59:01.00
tln
$C-4040-8_t0013$<tbV0>[12.5,-3.0,8.0,0.0,22,1,0]
27.028
64

2002,4.07
MIRTGS : RIGHTBACK : INTERNAL 2
MIR : ON : INTERNAL 2
OPTKBR

0.200000
8
8.000000
FILLER
RATIO
SPECTRUM
UNLOCKED 256

DOUBLE
64
COMBINED
1
0
0

0.002000
RATIO

1
0
TRUE
51149
0
LEFT NOT FITTED RIGHT NOT FITTED 0
NONE
NONE
15600
12
4.427000
51148
TRUE
1 0 8 72 0 0 0 0

15798

#HDR
-1
-1
#GR
µM
%T
2.38419e-05
0.0
1.282000
0.002000
12874
8
91.2148
37.6785
#DATA
1.282000	 76.2345
1.368000	 62.9951
1.454000	 65.2652
1.540000	 65.7142
1.626000	 64.9374
1.712000	 64.9382
1.798000	 65.1059
1.884000	 63.1205
1.970000	 64.9095
2.056000	 64.4185
2.142000	 65.1718
2.228000	 64.0058
2.314000	 64.4345
2.400000	 64.7196
2.486000	 65.2534
2.572000	 65.0473
2.658000	 65.0792
2.744000	 65.2585
2.830000	 65.0656
2.916000	 65.2612
3.002000	 65.0412
3.088000	 65.246
3.174000	 65.0895
3.260000	 65.3092
3.346000	 65.1342
3.432000	 64.9475
3.518000	 64.9704
3.604000	 65.2288
3.690000	 65.3993
3.776000	 65.1942
3.862000	 65.2573
3.948000	 65.3128
4.034000	 65.2884
4.120000	 65.2839
4.206000	 65.2652
4.292000	 65.3713
4.378000	 65.2265
4.464000	 65.4008
4.550000	 65.4185
4.636000	 65.3694
4.722000	 65.3329
4.808000	 65.294
4.894000	 65.3231
4.980000	 65.3008
5.066000	 65.3426
5.152000	 65.3936
5.238000	 65.334
5.324000	 65.3521
5.410000	 65.3261
5.496000	 65.2479
5.582000	 65.2851
5.668000	 65.2609
5.754000	 65.0167
5.840000	 65.2255
5.926000	 65.2009
6.012000	 65.1483
6.098000	 65.1469
6.184000	 65.3564
6.270000	 65.0917
6.356000	 65.0193
6.442000	 64.9797
6.528000	 65.0332
6.614000	 65.2146
6.700000	 65.2235
6.786000	 65.0582
6.872000	 64.9227
6.958000	 65.0461
7.044000	 64.9132
7.130000	 65.0707
7.216000	 64.9794
7.302000	 64.8889
7.388000	 64.9897
7.474000	 65.0137
7.560000	 64.9639
7.646000	 65.0538
7.732000	 64.8628
7.818000	 64.8793
7.904000	 64.8618
7.990000	 64.9075
8.076000	 65.0123
8.161999	 64.9308
8.248000	 64.9964
8.334000	 64.8907
8.420000	 64.9205
8.506000	 64.9942
8.592000	 64.8043
8.678000	 64.7254
8.763999	 64.7664
8.850000	 64.6626
8.936000	 64.6629
9.022000	 64.7416
9.108000	 64.7573
9.193999	 64.7047
9.280000	 64.5395
9.366000	 64.7166
9.452000	 64.6794
9.538000	 64.7491
9.624000	 64.7632
9.710000	 64.5757
9.795999	 64.6155
9.882000	 64.6703
9.968000	 64.6754
10.054	64.8006
10.14	64.6999
10.226	64.5775
10.312	64.5705
10.398	64.6864
10.484	64.7821
10.57	64.7087
10.656	64.4125
10.742	64.3165
10.828	64.6169
10.914	64.7746
11	64.2942
11.086	64.4386
11.172	64.28
11.258	64.0735
11.344	64.3445
11.43	64.5213
11.516	64.6883
11.602	64.4146
11.688	63.7639
11.774	63.9281
11.86	64.0809
11.946	64.0803
12.032	64.0911
12.118	63.8839
12.204	63.9109
12.29	64.0826
12.376	63.7691
12.462	63.6478
12.548	63.8497
12.634	63.9648
12.72	63.8072
12.806	63.7869
12.892	63.7394
12.978	63.711
13.064	63.7188
13.15	63.6402
13.236	63.5297
13.322	63.4873
13.408	63.3488
13.494	63.3226
13.58	63.413
13.666	63.4545
13.752	63.4852
13.838	63.4952
13.924	63.5354
14.01	63.4242
14.096	63.2016
14.182	63.0517
14.268	63.0275
14.354	63.2346
14.44	63.2756
14.526	62.8462
14.612	62.3874
14.698	62.3646
14.784	62.5549
14.87	62.6933
14.956	62.8303
15.042	62.8398
15.128	62.5976
15.214	62.3501
15.3	62.3769
15.386	62.559
15.472	62.5842
15.558	62.388
15.644	62.1779
15.73	62.163
15.816	62.282
15.902	62.3803
15.988	62.4848
16.074	62.5059
16.16	62.2876
16.246	62.0383
16.332	62.0182
16.418	62.0977
16.504	62.0507
16.59	61.92
16.676	61.8876
16.762	61.9572
16.848	62.0164
16.934	62.0221
17.02	62.0009
17.106	62.0093
17.192	62.052
17.278	62.0595
17.364	61.9575
17.45	61.7371
17.536	61.4749
17.622	61.2556
17.708	61.1211
17.794	61.0891
17.88	61.1481
17.966	61.2417
18.052	61.3219
18.138	61.4017
18.224	61.4956
18.31	61.5694
18.396	61.5839
18.482	61.51
18.568	61.329
18.654	61.0755
18.74	60.8277
18.826	60.6389
18.912	60.5225
18.998	60.4889
19.084	60.5471
19.17	60.6826
19.256	60.8583
19.342	61.0482
19.428	61.2416
19.514	61.4128
19.6	61.5146
19.686	61.5154
19.772	61.4262
19.858	61.2604
19.944	61.0068
20.03	60.6673
20.116	60.3052
20.202	60.0119
20.288	59.839
20.374	59.774
20.46	59.7639
20.546	59.7425
20.632	59.6519
20.718	59.4677
20.804	59.2276
20.89	59.0297
20.976	58.9831
21.062	59.1246
21.148	59.3764
21.234	59.5936
21.32	59.665
21.406	59.5808
21.492	59.4036
21.578	59.1963
21.664	58.982
21.75	58.7667
21.836	58.5752
21.922	58.4534
22.008	58.4196
22.094	58.4263
22.18	58.3875
22.266	58.2386
22.352	57.9907
22.438	57.7193
22.524	57.5025
22.61	57.3786
22.696	57.3202
22.782	57.2766
22.868	57.2095
22.954	57.1089
23.04	56.9885
23.126	56.8821
23.212	56.8405
23.298	56.9276
23.384	57.172
23.47	57.537
23.556	57.9347
23.642	58.2412
23.728	58.3576
23.814	58.2478
23.9	57.9182
23.986	57.3892
24.072	56.6994
24.158	55.9153
24.244	55.1296
24.33	54.4703
24.416	54.0762
24.502	54.0117
24.588	54.2566
24.674	54.7415
24.76	55.3995
24.846	56.1891
24.932	57.2063
25.018	58.6453
25.104	60.6172
25.19	62.9788
25.276	65.2775
25.362	66.8435
25.448	67.0793
25.534	65.7671
25.62	63.1472
25.706	59.8394
25.792	56.5761
25.878	54.0536
25.964	52.8948
26.05	53.5625
26.136	56.1822
26.222	60.3661
26.308	65.1754
26.394	69.3557
26.48	71.7153
26.566	71.4186
26.652	68.3165
26.738	62.8118
26.824	55.681
26.91	47.7927
26.996	39.8141
27.028	37.6785

File: C-4040-8_t13_cm-1.asc
PE IR       SPECTRUM    SPECTRUM    ASCII       PEDS        1.60
  -1
C-1AE1~1.ASC
17/05/02
11:58:35.00
17/05/02
11:58:35.00
tln
$C-4040-8_t0013$<tbV0>[12.5,-3.0,8.0,0.0,22,1,0]
370
64

2002,4.07
MIRTGS : RIGHTBACK : INTERNAL 2
MIR : ON : INTERNAL 2
OPTKBR

0.200000
8
8.000000
FILLER
RATIO
SPECTRUM
UNLOCKED 256

DOUBLE
64
COMBINED
1
0
0

1.000000
RATIO

1
0
TRUE
51149
0
LEFT NOT FITTED RIGHT NOT FITTED 0
NONE
NONE
15600
12
4.427000
51148
TRUE
1 0 8 72 0 0 0 0

15798

#HDR
-1
-1
#GR
CM-1
%T
2.38419e-05
0.0
7800
-1.000000
7431
8
94.6613
37.6785
#DATA
7800	76.2345
7775	72.7765
7750	67.1378
7725	65.1352
7700	69.1502
7675	73.0934
7650	69.7882
7625	64.9888
7600	65.1717
7575	67.9958
7550	64.4714
7525	66.8535
7500	62.5465
7475	68.518
7450	63.1953
7425	64.7428
7400	66.2117
7375	64.1718
7350	67.4918
7325	66.4596
7300	66.4867
7275	68.4359
7250	66.6131
7225	65.2968
7200	63.3525
7175	65.6338
7150	66.2879
7125	65.8574
7100	64.1654
7075	65.1924
7050	64.3705
7025	62.4012
7000	62.1316
6975	63.8056
6950	62.9446
6925	63.8213
6900	64.7456
6875	65.3436
6850	63.2477
6825	64.203
6800	64.9727
6775	63.6504
6750	62.2834
6725	63.1437
6700	64.5039
6675	65.7095
6650	62.821
6625	64.5303
6600	64.3982
6575	64.2865
6550	66.1986
6525	63.2375
6500	66.4476
6475	64.0349
6450	64.8108
6425	63.6297
6400	65.8131
6375	65.7891
6350	64.8992
6325	64.4619
6300	65.0449
6275	64.1608
6250	64.6916
6225	66.182
6200	64.633
6175	65.467
6150	64.9559
6125	65.2857
6100	63.5957
6075	65.5351
6050	65.6578
6025	65.3162
6000	65.093
5975	64.6983
5950	64.8791
5925	65.1623
5900	65.39
5875	64.9368
5850	64.8834
5825	64.8811
5800	65.0416
5775	64.0362
5750	65.1675
5725	64.4672
5700	64.5696
5675	64.2082
5650	65.0087
5625	66.2815
5600	65.8204
5575	64.5985
5550	64.5241
5525	65.3471
5500	64.8902
5475	64.9125
5450	64.9298
5425	64.9424
5400	65.1842
5375	64.1869
5350	63.5664
5325	61.5858
5300	66.8839
5275	64.0938
5250	66.7341
5225	65.4318
5200	64.5364
5175	64.9919
5150	64.9875
5125	64.8166
5100	64.8773
5075	64.7984
5050	64.5799
5025	65.0229
5000	65.1282
4975	65.2178
4950	64.6758
4925	64.7493
4900	64.6902
4875	64.5998
4850	64.9703
4825	64.9985
4800	64.8229
4775	65.0614
4750	64.9809
4725	65.2146
4700	65.1639
4675	65.396
4650	65.219
4625	65.053
4600	65.2102
4575	64.9665
4550	64.8145
4525	64.5838
4500	64.5004
4475	63.8589
4450	64.1799
4425	63.7294
4400	61.8636
4375	66.9718
4350	63.9931
4325	64.5541
4300	64.8014
4275	64.8277
4250	64.8801
4225	64.981
4200	64.609
4175	65.1978
4150	64.9823
4125	65.1869
4100	65.2688
4075	65.0636
4050	65.4615
4025	65.2134
4000	65.2477
3975	65.2969
3950	64.9702
3925	65.1658
3900	64.9722
3875	65.1023
3850	65.1105
3825	65.1777
3800	65.1424
3775	65.085
3750	65.167
3725	65.1167
3700	65.1088
3675	65.2894
3650	65.1853
3625	65.3266
3600	65.2436
3575	65.3491
3550	65.2908
3525	65.0579
3500	64.9798
3475	65.0722
3450	65.3368
3425	65.1075
3400	64.9546
3375	65.0733
3350	65.205
3325	64.963
3300	65.1261
3275	65.0249
3250	65.0496
3225	65.0352
3200	65.1889
3175	65.1423
3150	65.0934
3125	65.2485
3100	65.3263
3075	65.1383
3050	65.2088
3025	65.2768
3000	65.1791
2975	65.0698
2950	64.9082
2925	64.9581
2900	64.9091
2875	65.1129
2850	64.8869
2825	65.2351
2800	65.2013
2775	65.2266
2750	65.2349
2725	65.3557
2700	65.3011
2675	65.1938
2650	65.2009
2625	65.2668
2600	65.2299
2575	65.2613
2550	65.3544
2525	65.2302
2500	65.22
2475	65.2927
2450	65.2256
2425	65.289
2400	65.2022
2375	65.241
2350	65.3145
2325	65.3931
2300	65.2645
2275	65.3039
2250	65.3816
2225	65.3368
2200	65.3959
2175	65.3169
2150	65.3101
2125	65.3207
2100	65.203
2075	65.3572
2050	65.2969
2025	65.2808
2000	65.2126
1975	65.3481
1950	65.3539
1925	65.2025
1900	65.2417
1875	65.3324
1850	65.3341
1825	65.2188
1800	65.2181
1775	65.3003
1750	65.0566
1725	65.1628
1700	65.2213
1675	65.1092
1650	65.1768
1625	65.2265
1600	65.2134
1575	65.0535
1550	64.9961
1525	65.0837
1500	65.1496
1475	65.0336
1450	64.9904
1425	64.9994
1400	65.1065
1375	64.826
1350	65.0269
1325	64.9784
1300	64.892
1275	64.8132
1250	64.8847
1225	64.9346
1200	64.8917
1175	65.0045
1150	64.7607
1125	64.6265
1100	64.808
1075	64.5299
1050	64.7166
1025	64.5427
1000	64.7805
975	 64.5754
950	 64.8002
925	 64.4871
900	 64.4812
875	 64.5185
850	 63.886
825	 63.8762
800	 63.7085
775	 63.7313
750	 63.4741
725	 63.489
700	 63.056
675	 62.6096
650	 62.5567
625	 62.498
600	 61.8844
575	 61.8981
550	 61.449
525	 60.5113
500	 60.7929
475	 59.1017
450	 58.3296
425	 57.8156
400	 58.2995
375	 67.5367
370	 37.6785

File: C-4040-8_t14.asc
PE IR       SPECTRUM    SPECTRUM    ASCII       PEDS        1.60
  -1
C-B92A~1.ASC
17/05/02
12:03:16.00
17/05/02
12:03:42.00
tln
$C-4040-8_t0014$<tbV0>[7.5,-3.0,8.0,0.0,22,1,0]
27.028
64

2002,4.07
MIRTGS : RIGHTBACK : INTERNAL 2
MIR : ON : INTERNAL 2
OPTKBR

0.200000
8
8.000000
FILLER
RATIO
SPECTRUM
UNLOCKED 256

DOUBLE
64
COMBINED
1
0
0

0.002000
RATIO

1
0
TRUE
51149
0
LEFT NOT FITTED RIGHT NOT FITTED 0
NONE
NONE
15600
12
4.427000
51148
TRUE
1 0 8 72 0 0 0 0

15798

#HDR
-1
-1
#GR
µM
%T
2.38419e-05
0.0
1.282000
0.002000
12874
8
93.2378
37.8871
#DATA
1.282000	 56.9192
1.368000	 61.2348
1.454000	 64.1247
1.540000	 65.1051
1.626000	 64.9903
1.712000	 64.6282
1.798000	 64.6767
1.884000	 65.0824
1.970000	 64.9064
2.056000	 64.9723
2.142000	 64.772
2.228000	 65.1918
2.314000	 65.3438
2.400000	 64.8033
2.486000	 65.1635
2.572000	 65.4927
2.658000	 65.2047
2.744000	 65.1424
2.830000	 65.0992
2.916000	 65.0578
3.002000	 65.2404
3.088000	 65.2332
3.174000	 65.0286
3.260000	 65.1264
3.346000	 65.2475
3.432000	 64.8302
3.518000	 65.0088
3.604000	 65.1799
3.690000	 65.1732
3.776000	 65.2027
3.862000	 65.2192
3.948000	 65.171
4.034000	 65.2189
4.120000	 65.266
4.206000	 65.1485
4.292000	 65.2625
4.378000	 65.2661
4.464000	 65.2592
4.550000	 65.2625
4.636000	 65.3123
4.722000	 65.2026
4.808000	 65.2458
4.894000	 65.1669
4.980000	 65.2725
5.066000	 65.2994
5.152000	 65.2861
5.238000	 65.2689
5.324000	 65.3192
5.410000	 65.1902
5.496000	 65.2096
5.582000	 65.3154
5.668000	 65.2872
5.754000	 65.0557
5.840000	 65.1013
5.926000	 65.195
6.012000	 65.1466
6.098000	 65.0478
6.184000	 65.1621
6.270000	 65.1036
6.356000	 65.0894
6.442000	 65.0295
6.528000	 65.0664
6.614000	 65.1128
6.700000	 65.1484
6.786000	 65.0062
6.872000	 65.024
6.958000	 65.1332
7.044000	 65.0073
7.130000	 65.0648
7.216000	 64.9867
7.302000	 64.8867
7.388000	 65.0857
7.474000	 65.0481
7.560000	 64.9583
7.646000	 65.0354
7.732000	 65.0031
7.818000	 64.9665
7.904000	 65.0091
7.990000	 64.9034
8.076000	 64.9861
8.161999	 65.0052
8.248000	 65.068
8.334000	 64.8713
8.420000	 64.8089
8.506000	 64.8598
8.592000	 64.9165
8.678000	 64.8119
8.763999	 64.9407
8.850000	 64.7057
8.936000	 64.6475
9.022000	 64.8517
9.108000	 64.7404
9.193999	 64.7736
9.280000	 64.6754
9.366000	 64.6887
9.452000	 64.6769
9.538000	 64.6306
9.624000	 64.8019
9.710000	 64.7534
9.795999	 64.6331
9.882000	 64.6691
9.968000	 64.6736
10.054	64.8318
10.14	64.7613
10.226	64.5537
10.312	64.8221
10.398	64.9819
10.484	64.89
10.57	64.4549
10.656	64.1395
10.742	64.5726
10.828	64.3476
10.914	63.5108
11	64.5597
11.086	64.3497
11.172	64.2517
11.258	64.1644
11.344	64.4922
11.43	64.5804
11.516	64.7104
11.602	64.462
11.688	64.1977
11.774	64.3824
11.86	64.1281
11.946	63.9338
12.032	63.9951
12.118	63.8697
12.204	63.843
12.29	64.1645
12.376	64.1412
12.462	64.0615
12.548	63.9374
12.634	63.9394
12.72	63.9664
12.806	63.826
12.892	63.972
12.978	64.1254
13.064	64.0942
13.15	63.8475
13.236	63.7322
13.322	63.6352
13.408	63.4373
13.494	63.5868
13.58	63.6473
13.666	63.7116
13.752	63.7142
13.838	63.514
13.924	63.464
14.01	63.5736
14.096	63.5958
14.182	63.5295
14.268	63.4029
14.354	63.4438
14.44	63.6244
14.526	63.5399
14.612	63.1589
14.698	62.853
14.784	62.8083
14.87	63.0052
14.956	63.1451
15.042	62.9222
15.128	62.6328
15.214	62.5854
15.3	62.6064
15.386	62.6183
15.472	62.6853
15.558	62.7384
15.644	62.7058
15.73	62.6258
15.816	62.6867
15.902	62.967
15.988	63.1766
16.074	63.0665
16.16	62.754
16.246	62.4509
16.332	62.2736
16.418	62.24
16.504	62.2438
16.59	62.176
16.676	62.0757
16.762	62.0537
16.848	62.1184
16.934	62.1307
17.02	61.9618
17.106	61.6962
17.192	61.5524
17.278	61.595
17.364	61.7141
17.45	61.8477
17.536	62.0089
17.622	62.1475
17.708	62.1829
17.794	62.1243
17.88	62.0479
17.966	62.0146
18.052	62.0426
18.138	62.0899
18.224	62.0765
18.31	61.9682
18.396	61.8059
18.482	61.6456
18.568	61.5133
18.654	61.4277
18.74	61.4114
18.826	61.4595
18.912	61.5346
18.998	61.5988
19.084	61.6353
19.17	61.646
19.256	61.636
19.342	61.6202
19.428	61.6307
19.514	61.7067
19.6	61.8602
19.686	62.0311
19.772	62.0986
19.858	61.9674
19.944	61.6501
20.03	61.2429
20.116	60.839
20.202	60.4859
20.288	60.2096
20.374	60.0376
20.46	59.9687
20.546	59.9428
20.632	59.8728
20.718	59.7246
20.804	59.56
20.89	59.4823
20.976	59.54
21.062	59.6815
21.148	59.8108
21.234	59.8648
21.32	59.8449
21.406	59.7917
21.492	59.7601
21.578	59.8046
21.664	59.9558
21.75	60.1972
21.836	60.4607
21.922	60.6545
22.008	60.7094
22.094	60.6118
22.18	60.3952
22.266	60.1075
22.352	59.7802
22.438	59.4158
22.524	59.0032
22.61	58.5528
22.696	58.1038
22.782	57.7076
22.868	57.4133
22.954	57.2486
23.04	57.2087
23.126	57.2592
23.212	57.3527
23.298	57.4368
23.384	57.4705
23.47	57.4553
23.556	57.4312
23.642	57.4163
23.728	57.3847
23.814	57.2505
23.9	56.9106
23.986	56.3078
24.072	55.4853
24.158	54.6358
24.244	54.0392
24.33	53.9561
24.416	54.475
24.502	55.4106
24.588	56.3217
24.674	56.7591
24.76	56.4913
24.846	55.6576
24.932	54.7536
25.018	54.3935
25.104	55.0131
25.19	56.6281
25.276	58.8162
25.362	60.9361
25.448	62.353
25.534	62.8033
25.62	62.4728
25.706	61.8115
25.792	61.2794
25.878	61.1686
25.964	61.562
26.05	62.3043
26.136	63.0504
26.222	63.3363
26.308	62.6588
26.394	60.7034
26.48	57.6117
26.566	53.9575
26.652	50.579
26.738	48.2597
26.824	47.535
26.91	48.5567
26.996	51.5231
27.028	52.5917

File: C-4040-8_t14_cm-1.asc
PE IR       SPECTRUM    SPECTRUM    ASCII       PEDS        1.60
  -1
C-1A6F~1.ASC
17/05/02
12:03:16.00
17/05/02
12:03:16.00
tln
$C-4040-8_t0014$<tbV0>[7.5,-3.0,8.0,0.0,22,1,0]
370
64

2002,4.07
MIRTGS : RIGHTBACK : INTERNAL 2
MIR : ON : INTERNAL 2
OPTKBR

0.200000
8
8.000000
FILLER
RATIO
SPECTRUM
UNLOCKED 256

DOUBLE
64
COMBINED
1
0
0

1.000000
RATIO

1
0
TRUE
51149
0
LEFT NOT FITTED RIGHT NOT FITTED 0
NONE
NONE
15600
12
4.427000
51148
TRUE
1 0 8 72 0 0 0 0

15798

#HDR
-1
-1
#GR
CM-1
%T
2.38419e-05
0.0
7800
-1.000000
7431
8
93.4188
37.7473
#DATA
7800	56.9192
7775	73.2663
7750	63.4623
7725	65.915
7700	67.5933
7675	63.0515
7650	67.7671
7625	63.806
7600	66.3943
7575	67.0146
7550	64.4876
7525	66.9469
7500	65.1323
7475	62.9563
7450	67.9105
7425	65.6606
7400	65.219
7375	67.9546
7350	66.0823
7325	68.0863
7300	66.9858
7275	64.9491
7250	63.4659
7225	66.0374
7200	64.8347
7175	63.6222
7150	66.0363
7125	65.6891
7100	62.5893
7075	66.2976
7050	62.9576
7025	64.6243
7000	63.5658
6975	63.6723
6950	61.9292
6925	63.7732
6900	63.3068
6875	63.5866
6850	63.6291
6825	64.9793
6800	65.9264
6775	61.6653
6750	63.4316
6725	63.4052
6700	64.4367
6675	63.6322
6650	64.9055
6625	64.7735
6600	65.0632
6575	64.6133
6550	64.805
6525	65.08
6500	64.9386
6475	65.9832
6450	64.9076
6425	63.62
6400	66.0929
6375	63.6277
6350	64.7662
6325	65.2642
6300	65.3966
6275	63.587
6250	65.06
6225	65.4075
6200	66.703
6175	65.2025
6150	64.9878
6125	65.7086
6100	64.7068
6075	65.76
6050	64.6682
6025	64.3271
6000	65.2978
5975	65.4288
5950	65.5315
5925	64.5803
5900	65.2037
5875	65.1026
5850	65.026
5825	65.216
5800	64.1416
5775	64.8265
5750	64.9898
5725	65.7402
5700	64.9179
5675	65.2812
5650	64.4671
5625	65.1594
5600	64.4048
5575	64.3391
5550	65.3571
5525	64.8434
5500	64.834
5475	65.0548
5450	64.962
5425	65.3489
5400	64.9249
5375	64.7057
5350	62.9256
5325	65.2199
5300	66.1649
5275	62.8205
5250	67.3087
5225	65.7782
5200	64.6323
5175	64.6237
5150	64.3939
5125	64.8276
5100	64.8857
5075	64.821
5050	64.7236
5025	64.233
5000	65.0302
4975	64.8503
4950	65.138
4925	65.0484
4900	65.1704
4875	64.6417
4850	64.8606
4825	64.8266
4800	64.6974
4775	64.9797
4750	64.9257
4725	64.8526
4700	65.0572
4675	64.7548
4650	65.0877
4625	65.2274
4600	65.1803
4575	64.9287
4550	65.3167
4525	64.7096
4500	65.3311
4475	65.4474
4450	65.2349
4425	64.6317
4400	65.2878
4375	60.5253
4350	65.507
4325	65.4401
4300	65.2795
4275	65.3449
4250	64.9941
4225	65.2003
4200	65.098
4175	64.7531
4150	65.0275
4125	64.8983
4100	65.0756
4075	65.129
4050	65.2109
4025	65.0785
4000	64.9051
3975	65.0061
3950	65.2577
3925	65.1752
3900	65.0589
3875	65.2202
3850	65.1428
3825	65.176
3800	65.0796
3775	65.2253
3750	65.2634
3725	65.1368
3700	65.1122
3675	65.2029
3650	65.0937
3625	65.1373
3600	65.0772
3575	65.1059
3550	65.2125
3525	65.1389
3500	65.0244
3475	65.2958
3450	65.1957
3425	64.8517
3400	65.075
3375	65.0749
3350	65.1852
3325	65.121
3300	65.0988
3275	65.1094
3250	65.0259
3225	65.0522
3200	65.1668
3175	65.1947
3150	65.0169
3125	65.1206
3100	65.2283
3075	65.2109
3050	65.109
3025	65.1768
3000	65.0343
2975	65.1268
2950	64.9392
2925	64.6902
2900	64.9468
2875	65.0284
2850	64.9327
2825	65.1614
2800	65.2184
2775	65.1776
2750	65.1914
2725	65.1882
2700	65.1731
2675	65.0816
2650	65.1832
2625	65.2095
2600	65.3535
2575	65.2457
2550	65.3015
2525	65.1582
2500	65.3136
2475	65.1864
2450	65.1359
2425	65.2775
2400	65.2558
2375	65.1862
2350	65.2178
2325	65.2305
2300	65.2199
2275	65.2363
2250	65.314
2225	65.2437
2200	65.2271
2175	65.2703
2150	65.2337
2125	65.2241
2100	65.2298
2075	65.2879
2050	65.2093
2025	65.2882
2000	65.2639
1975	65.2989
1950	65.2916
1925	65.3111
1900	65.2966
1875	65.2801
1850	65.2006
1825	65.1635
1800	65.217
1775	65.2866
1750	65.1035
1725	65.0439
1700	65.0888
1675	65.1736
1650	65.0211
1625	65.1118
1600	65.162
1575	65.1242
1550	65.0722
1525	65.1276
1500	65.1665
1475	65.0376
1450	64.9557
1425	65.0901
1400	65.1091
1375	64.9198
1350	65.0597
1325	64.948
1300	65.0393
1275	64.9735
1250	64.8938
1225	65.0094
1200	64.872
1175	64.8639
1150	64.839
1125	64.7481
1100	64.7908
1075	64.5925
1050	64.5603
1025	64.7234
1000	64.6596
975	 64.6597
950	 64.585
925	 64.6314
900	 64.3212
875	 64.5808
850	 64.3722
825	 63.862
800	 64.0033
775	 64.0047
750	 63.5992
725	 63.6264
700	 63.3898
675	 62.8584
650	 62.6177
625	 63.1813
600	 62.0844
575	 61.7543
550	 62.0948
525	 61.6232
500	 61.3885
475	 59.6653
450	 60.2601
425	 57.4375
400	 54.3946
375	 50.0955
370	 52.5917