Folder: Masteroppgave/Bakgrunnsmateriale/MATLAB/FTIR/ftir_data/subBb/Mapping_121 (part 42)

File: C-4040-8_t96_cm-1.asc
PE IR       SPECTRUM    SPECTRUM    ASCII       PEDS        1.60
  -1
C-1E6E~1.ASC
17/03/27
22:23:43.00
17/03/27
22:23:43.00
tln
$C-4040-8_t0096$<tbV0>[-5.2,7.8,8.0,0.0,27,1,0]
370
64

2002,4.07
MIRTGS : RIGHTBACK : INTERNAL 2
MIR : ON : INTERNAL 2
OPTKBR

0.200000
8
8.000000
FILLER
RATIO
SPECTRUM
UNLOCKED 256

DOUBLE
64
COMBINED
1
0
0

1.000000
RATIO

1
0
TRUE
51149
0
LEFT NOT FITTED RIGHT NOT FITTED 0
NONE
NONE
15600
12
4.427000
51148
TRUE
1 0 8 72 0 0 0 0

15798

#HDR
-1
-1
#GR
CM-1
%T
2.38419e-05
0.0
5000
-1.000000
4631
8
115.332
48.9146
#DATA
5000	65.5339
4984	65.5027
4968	64.4291
4952	65.5128
4936	64.9559
4920	64.7352
4904	65.115
4888	65.2318
4872	64.8547
4856	64.762
4840	64.9708
4824	64.9248
4808	65.4572
4792	64.8814
4776	64.8303
4760	65.0138
4744	64.971
4728	64.74
4712	65.0771
4696	65.0989
4680	65.1847
4664	65.3003
4648	65.4343
4632	65.2073
4616	65.1817
4600	64.9705
4584	65.3917
4568	65.1803
4552	65.6894
4536	64.5395
4520	64.9181
4504	64.7302
4488	65.004
4472	65.1504
4456	64.8371
4440	64.18
4424	64.2191
4408	65.5349
4392	70.3134
4376	59.443
4360	65.6115
4344	64.9315
4328	64.8978
4312	64.6093
4296	64.7114
4280	65.0958
4264	65.3816
4248	64.7754
4232	65.1734
4216	64.7117
4200	64.9262
4184	64.483
4168	64.4959
4152	65.0032
4136	65.0761
4120	65.2355
4104	65.2644
4088	65.04
4072	64.8736
4056	65.0275
4040	65.445
4024	65.5055
4008	65.1831
3992	65.2431
3976	65.2727
3960	65.2849
3944	64.8923
3928	64.8335
3912	65.2453
3896	65.1064
3880	64.9862
3864	65.0329
3848	65.0578
3832	64.891
3816	65.0729
3800	64.9287
3784	65.4278
3768	65.3904
3752	65.2194
3736	65.2944
3720	65.286
3704	65.3131
3688	65.1546
3672	65.1834
3656	65.1087
3640	65.185
3624	65.3799
3608	65.1924
3592	65.2482
3576	65.4882
3560	65.2056
3544	64.7807
3528	65.0338
3512	65.3455
3496	64.9075
3480	64.9474
3464	65.2878
3448	65.1201
3432	65.5039
3416	65.0842
3400	65.2179
3384	65.3609
3368	65.068
3352	65.3715
3336	65.1294
3320	65.0126
3304	65.2391
3288	64.8492
3272	65.2776
3256	65.355
3240	65.0107
3224	65.2566
3208	65.2961
3192	64.8556
3176	65.2622
3160	65.3777
3144	65.1083
3128	65.4712
3112	65.1907
3096	65.342
3080	65.2396
3064	65.2335
3048	65.2288
3032	65.1234
3016	65.41
3000	65.225
2984	65.1096
2968	65.235
2952	65.1469
2936	65.127
2920	64.868
2904	65.0641
2888	65.1753
2872	65.1004
2856	65.0641
2840	65.2264
2824	65.1018
2808	65.1202
2792	65.4061
2776	65.3581
2760	65.2143
2744	65.2133
2728	65.2997
2712	65.3167
2696	65.2689
2680	65.3202
2664	65.309
2648	65.3711
2632	65.2204
2616	65.2733
2600	65.2445
2584	65.1723
2568	65.1718
2552	65.3489
2536	65.2807
2520	65.1953
2504	65.2805
2488	65.4286
2472	65.2331
2456	65.2831
2440	65.3641
2424	64.9842
2408	65.2491
2392	65.3071
2376	65.19
2360	65.3024
2344	65.263
2328	65.2433
2312	65.448
2296	65.2685
2280	65.3724
2264	65.2125
2248	65.279
2232	65.2072
2216	65.2988
2200	65.2426
2184	65.2872
2168	65.3669
2152	65.4129
2136	65.5026
2120	65.302
2104	65.3895
2088	65.1847
2072	65.3925
2056	65.019
2040	65.2596
2024	65.2143
2008	65.3401
1992	65.3472
1976	65.2305
1960	65.2896
1944	65.3741
1928	65.4248
1912	65.2453
1896	65.3574
1880	65.3886
1864	65.3197
1848	65.3539
1832	65.4526
1816	65.3396
1800	65.2662
1784	65.2845
1768	65.3446
1752	65.1424
1736	65.0478
1720	64.9547
1704	65.3559
1688	65.2794
1672	65.3171
1656	65.1931
1640	65.3465
1624	65.1628
1608	65.0584
1592	65.1393
1576	65.1434
1560	64.9456
1544	65.0812
1528	65.14
1512	65.2347
1496	65.2128
1480	65.0308
1464	65.2209
1448	65.1277
1432	65.2335
1416	65.0247
1400	65.1967
1384	65.0623
1368	64.9161
1352	65.2322
1336	64.8946
1320	65.059
1304	65.0641
1288	65.0339
1272	65.0267
1256	65.0172
1240	64.9556
1224	65.0128
1208	65.0607
1192	64.9509
1176	64.8525
1160	64.7405
1144	64.7351
1128	64.7084
1112	64.783
1096	64.2582
1080	64.6065
1064	64.7848
1048	64.9888
1032	64.924
1016	64.3738
1000	64.517
984	 64.7422
968	 64.5287
952	 64.5295
936	 63.8348
920	 64.9977
904	 64.4903
888	 64.8316
872	 64.7366
856	 64.6106
840	 64.0141
824	 63.8684
808	 64.0163
792	 64.173
776	 64.0636
760	 63.8868
744	 64.341
728	 63.6194
712	 63.129
696	 62.903
680	 63.5193
664	 62.8031
648	 63.0354
632	 62.8656
616	 62.5937
600	 62.6791
584	 62.2024
568	 62.4831
552	 62.2704
536	 61.629
520	 60.7291
504	 61.9016
488	 61.2062
472	 60.2233
456	 58.5353
440	 57.8607
424	 61.4165
408	 50.1142
392	 63.1756
376	 110.611
370	 89.869

File: C-4040-8_t97.asc
PE IR       SPECTRUM    SPECTRUM    ASCII       PEDS        1.60
  -1
C-B946~1.ASC
17/03/27
22:28:20.00
17/03/27
22:28:46.00
tln
$C-4040-8_t0097$<tbV0>[-7.8,7.8,8.0,0.0,27,1,0]
27.028
64

2002,4.07
MIRTGS : RIGHTBACK : INTERNAL 2
MIR : ON : INTERNAL 2
OPTKBR

0.200000
8
8.000000
FILLER
RATIO
SPECTRUM
UNLOCKED 256

DOUBLE
64
COMBINED
1
0
0

0.002000
RATIO

1
0
TRUE
51149
0
LEFT NOT FITTED RIGHT NOT FITTED 0
NONE
NONE
15600
12
4.427000
51148
TRUE
1 0 8 72 0 0 0 0

15798

#HDR
-1
-1
#GR
µM
%T
2.38419e-05
0.0
2.000000
0.002000
12515
8
201.219
27.3949
#DATA
2.000000	 65.2413
2.084000	 65.1687
2.168000	 65.3767
2.252000	 65.4255
2.336000	 65.0739
2.420000	 64.9247
2.504000	 65.0838
2.588000	 65.1787
2.672000	 65.1978
2.756000	 65.1095
2.840000	 65.2447
2.924000	 65.2344
3.008000	 65.1786
3.092000	 65.1224
3.176000	 65.1184
3.260000	 65.3051
3.344000	 65.3791
3.428000	 64.8441
3.512000	 65.211
3.596000	 65.2903
3.680000	 65.3285
3.764000	 65.4772
3.848000	 65.2331
3.932000	 65.5265
4.016000	 65.5395
4.100000	 65.1816
4.184000	 65.3162
4.268000	 65.3784
4.352000	 65.2851
4.436000	 65.3182
4.520000	 65.3031
4.604000	 65.4006
4.688000	 65.4444
4.772000	 65.3265
4.856000	 65.1529
4.940000	 65.3308
5.024000	 65.5255
5.108000	 65.2797
5.192000	 65.3315
5.276000	 65.3414
5.359999	 65.3321
5.444000	 65.4415
5.528000	 65.3015
5.612000	 65.2945
5.696000	 65.1445
5.780000	 65.0017
5.864000	 65.3621
5.948000	 65.3084
6.032000	 65.2296
6.116000	 65.16
6.200000	 65.1435
6.284000	 65.1153
6.368000	 65.0393
6.452000	 65.2599
6.536000	 65.1764
6.620000	 65.2299
6.704000	 65.1633
6.788000	 65.1056
6.872000	 65.0513
6.956000	 65.2232
7.040000	 65.1085
7.124000	 65.153
7.208000	 65.151
7.292000	 65.0712
7.376000	 64.9982
7.460000	 65.0609
7.544000	 65.0657
7.628000	 64.7509
7.712000	 65.2013
7.796000	 64.9646
7.880000	 64.8646
7.964000	 65.0094
8.048000	 65.0591
8.132000	 64.7871
8.216000	 65.0382
8.300000	 64.933
8.384000	 65.0023
8.468000	 65.0089
8.552000	 64.9244
8.635999	 64.9723
8.719999	 64.8273
8.804000	 64.7661
8.888000	 64.9194
8.972000	 64.8883
9.056000	 64.7842
9.140000	 64.9453
9.224000	 64.654
9.308000	 64.8143
9.391999	 64.7001
9.475999	 64.6282
9.560000	 64.747
9.644000	 64.8685
9.728000	 65.0024
9.812000	 64.8685
9.896000	 64.3945
9.980000	 64.6905
10.064	64.8222
10.148	64.6661
10.232	64.5648
10.316	64.4261
10.4	64.6114
10.484	64.4836
10.568	64.4777
10.652	64.5943
10.736	64.8351
10.82	65.6572
10.904	65.4857
10.988	64.4476
11.072	64.3094
11.156	64.5029
11.24	64.7629
11.324	64.7966
11.408	64.7391
11.492	64.4801
11.576	64.5091
11.66	64.4533
11.744	64.3232
11.828	64.2264
11.912	64.2393
11.996	64.1962
12.08	64.4029
12.164	64.4246
12.248	64.3886
12.332	64.2447
12.416	64.0658
12.5	63.9234
12.584	64.0206
12.668	63.8241
12.752	63.6018
12.836	63.723
12.92	63.8661
13.004	63.8346
13.088	63.7361
13.172	63.5688
13.256	63.6154
13.34	63.576
13.424	63.7524
13.508	63.6381
13.592	63.1505
13.676	63.2024
13.76	63.456
13.844	63.3213
13.928	63.2042
14.012	63.1983
14.096	63.1901
14.18	63.4018
14.264	63.5575
14.348	63.3216
14.432	63.0799
14.516	63.1009
14.6	63.2545
14.684	63.4125
14.768	63.4595
14.852	63.3705
14.936	63.0765
15.02	62.8046
15.104	62.7606
15.188	62.6661
15.272	62.5129
15.356	62.4794
15.44	62.5622
15.524	62.76
15.608	62.9115
15.692	62.8653
15.776	62.7468
15.86	62.6627
15.944	62.6162
16.028	62.6385
16.112	62.653
16.196	62.5575
16.28	62.4676
16.364	62.5398
16.448	62.7083
16.532	62.7786
16.616	62.6414
16.7	62.3501
16.784	62.0766
16.868	61.9427
16.952	61.8491
17.036	61.6928
17.12	61.65
17.204	61.9275
17.288	62.3834
17.372	62.6827
17.456	62.6873
17.54	62.5206
17.624	62.3742
17.708	62.35
17.792	62.4323
17.876	62.545
17.96	62.6262
18.044	62.6459
18.128	62.5757
18.212	62.3844
18.296	62.0754
18.38	61.7193
18.464	61.4384
18.548	61.3204
18.632	61.3333
18.716	61.3701
18.8	61.3868
18.884	61.4587
18.968	61.6644
19.052	61.9517
19.136	62.159
19.22	62.1564
19.304	61.9397
19.388	61.6274
19.472	61.371
19.556	61.2452
19.64	61.1929
19.724	61.102
19.808	60.9301
19.892	60.7627
19.976	60.72
20.06	60.843
20.144	61.0901
20.228	61.4135
20.312	61.772
20.396	62.0818
20.48	62.2023
20.564	62.0223
20.648	61.5411
20.732	60.8739
20.816	60.1654
20.9	59.5255
20.984	59.0441
21.068	58.7908
21.152	58.7695
21.236	58.8786
21.32	58.9784
21.404	59.0027
21.488	58.9978
21.572	59.0693
21.656	59.2952
21.74	59.6709
21.824	60.1027
21.908	60.4478
21.992	60.5812
22.076	60.4409
22.16	60.0456
22.244	59.4829
22.328	58.8689
22.412	58.3052
22.496	57.8652
22.58	57.6181
22.664	57.6412
22.748	57.9864
22.832	58.6246
22.916	59.4253
23	60.1956
23.084	60.7835
23.168	61.0854
23.252	61.0678
23.336	60.7764
23.42	60.2888
23.504	59.6877
23.588	59.0844
23.672	58.591
23.756	58.2456
23.84	58.0233
23.924	57.8095
24.008	57.5013
24.092	57.096
24.176	56.657
24.26	56.2351
24.344	55.9032
24.428	55.7882
24.512	56.0114
24.596	56.8877
24.68	58.7593
24.764	61.6795
24.848	65.5308
24.932	69.6326
25.016	72.801
25.1	73.714
25.184	71.6595
25.268	66.9902
25.352	60.8711
25.436	54.5555
25.52	48.5961
25.604	42.6916
25.688	36.7151
25.772	31.3318
25.856	27.9791
25.94	27.7792
26.024	31.0283
26.108	37.0132
26.192	45.626
26.276	57.8897
26.36	76.1238
26.444	101.5
26.528	132.62
26.612	164.872
26.696	191.733
26.78	200.824
26.864	200
26.948	200.144
27.028	195.956

File: C-4040-8_t97_cm-1.asc
PE IR       SPECTRUM    SPECTRUM    ASCII       PEDS        1.60
  -1
C-1EEF~1.ASC
17/03/27
22:28:20.00
17/03/27
22:28:20.00
tln
$C-4040-8_t0097$<tbV0>[-7.8,7.8,8.0,0.0,27,1,0]
370
64

2002,4.07
MIRTGS : RIGHTBACK : INTERNAL 2
MIR : ON : INTERNAL 2
OPTKBR

0.200000
8
8.000000
FILLER
RATIO
SPECTRUM
UNLOCKED 256

DOUBLE
64
COMBINED
1
0
0

1.000000
RATIO

1
0
TRUE
51149
0
LEFT NOT FITTED RIGHT NOT FITTED 0
NONE
NONE
15600
12
4.427000
51148
TRUE
1 0 8 72 0 0 0 0

15798

#HDR
-1
-1
#GR
CM-1
%T
2.38419e-05
0.0
5000
-1.000000
4631
8
200
27.3991
#DATA
5000	65.2413
4984	65.2524
4968	64.9868
4952	65.2404
4936	65.0165
4920	65.1929
4904	64.7141
4888	64.9552
4872	65.5684
4856	65.1551
4840	64.9335
4824	65.2488
4808	64.9734
4792	65.4658
4776	64.9803
4760	64.9732
4744	64.6592
4728	65.2213
4712	64.917
4696	64.9049
4680	65.0294
4664	65.1526
4648	65.5368
4632	65.1937
4616	65.4665
4600	64.6009
4584	65.5453
4568	65.3319
4552	65.929
4536	64.7449
4520	65.4585
4504	65.2821
4488	65.2672
4472	65.5195
4456	65.0041
4440	65.4529
4424	65.1079
4408	65.924
4392	69.33
4376	63.0136
4360	65.1831
4344	65.7716
4328	66.0679
4312	65.1973
4296	65.2552
4280	65.075
4264	65.7955
4248	64.7135
4232	65.1458
4216	65.1653
4200	64.4569
4184	65.1261
4168	65.534
4152	65.066
4136	65.2617
4120	65.1778
4104	65.243
4088	64.8273
4072	64.7549
4056	65.0424
4040	65.0646
4024	65.5319
4008	65.173
3992	65.1376
3976	65.2046
3960	65.2824
3944	65.1725
3928	65.0914
3912	65.6047
3896	65.0215
3880	65.2291
3864	65.1783
3848	65.1856
3832	65.0295
3816	65.5116
3800	65.1771
3784	65.2432
3768	65.4076
3752	65.2128
3736	65.054
3720	65.1402
3704	65.2385
3688	65.3468
3672	65.0744
3656	65.1957
3640	65.1977
3624	65.1454
3608	65.1236
3592	65.3011
3576	65.1071
3560	65.2655
3544	65.2023
3528	65.0493
3512	65.2917
3496	65.1142
3480	64.9661
3464	65.5911
3448	65.1231
3432	65.3731
3416	65.2506
3400	65.3848
3384	65.1887
3368	65.4145
3352	65.3628
3336	65.0872
3320	65.1484
3304	65.0459
3288	65.0941
3272	65.2625
3256	65.263
3240	65.2505
3224	65.1998
3208	65.3014
3192	65.0327
3176	65.1948
3160	65.3476
3144	65.1914
3128	65.426
3112	65.2472
3096	65.4355
3080	65.1459
3064	65.2204
3048	65.2353
3032	65.2746
3016	65.3824
3000	65.2378
2984	65.2987
2968	65.1018
2952	65.1508
2936	65.1505
2920	64.8111
2904	65.1752
2888	65.2387
2872	65.1218
2856	65.2806
2840	65.3446
2824	65.324
2808	65.3126
2792	65.4209
2776	65.2722
2760	65.1892
2744	65.3949
2728	65.2717
2712	65.298
2696	65.3341
2680	65.3191
2664	65.5267
2648	65.1891
2632	65.2201
2616	65.2487
2600	65.2711
2584	65.3057
2568	65.3898
2552	65.3334
2536	65.2578
2520	65.4162
2504	65.2251
2488	65.5247
2472	65.4732
2456	65.4752
2440	65.195
2424	65.5605
2408	65.2431
2392	65.3332
2376	65.2386
2360	65.3773
2344	65.3872
2328	65.3397
2312	65.2544
2296	65.2763
2280	65.3798
2264	65.3936
2248	65.3786
2232	65.2998
2216	65.3643
2200	65.3423
2184	65.2709
2168	65.4695
2152	65.2415
2136	65.4431
2120	65.3412
2104	65.3311
2088	65.4493
2072	65.4909
2056	65.0512
2040	65.4258
2024	65.3387
2008	65.445
1992	65.5053
1976	65.3712
1960	65.3131
1944	65.2385
1928	65.3447
1912	65.2466
1896	65.341
1880	65.2951
1864	65.3307
1848	65.2906
1832	65.4689
1816	65.4047
1800	65.3878
1784	65.3095
1768	65.2979
1752	65.1415
1736	64.9568
1720	65.172
1704	65.3309
1688	65.2992
1672	65.1756
1656	65.1976
1640	65.2992
1624	65.1627
1608	65.0644
1592	65.1173
1576	65.1172
1560	64.9655
1544	65.2453
1528	65.1409
1512	65.1997
1496	65.3348
1480	65.1086
1464	65.1265
1448	65.0624
1432	65.0165
1416	65.104
1400	65.0007
1384	65.2085
1368	65.0453
1352	65.0903
1336	64.9055
1320	65.0572
1304	65.0208
1288	65.042
1272	64.9313
1256	65.0107
1240	65.0895
1224	64.8823
1208	64.9001
1192	64.9986
1176	65.0247
1160	64.9431
1144	64.8563
1128	64.8157
1112	64.9062
1096	64.8781
1080	64.699
1064	64.6826
1048	64.7393
1032	64.9675
1016	64.5577
1000	64.7591
984	 64.6403
968	 64.458
952	 64.4356
936	 64.6338
920	 65.8497
904	 64.3591
888	 64.7231
872	 64.5015
856	 64.4334
840	 64.2458
824	 64.4271
808	 64.1635
792	 63.9684
776	 63.8387
760	 63.5791
744	 63.7827
728	 63.42
712	 63.1829
696	 63.2448
680	 63.4371
664	 62.7679
648	 62.549
632	 62.6959
616	 62.5035
600	 62.4745
584	 61.6545
568	 62.3972
552	 62.5926
536	 61.346
520	 62.1392
504	 60.8558
488	 62.1966
472	 58.8072
456	 60.5067
440	 57.8708
424	 59.1049
408	 55.9983
392	 49.2841
376	 158.856
370	 195.956

File: C-4040-8_t98.asc
PE IR       SPECTRUM    SPECTRUM    ASCII       PEDS        1.60
  -1
C-C94A~1.ASC
17/03/27
22:32:57.00
17/03/27
22:33:23.00
tln
$C-4040-8_t0098$<tbV0>[-10.4,7.8,8.0,0.0,27,1,0]
27.028
64

2002,4.07
MIRTGS : RIGHTBACK : INTERNAL 2
MIR : ON : INTERNAL 2
OPTKBR

0.200000
8
8.000000
FILLER
RATIO
SPECTRUM
UNLOCKED 256

DOUBLE
64
COMBINED
1
0
0

0.002000
RATIO

1
0
TRUE
51149
0
LEFT NOT FITTED RIGHT NOT FITTED 0
NONE
NONE
15600
12
4.427000
51148
TRUE
1 0 8 72 0 0 0 0

15798

#HDR
-1
-1
#GR
µM
%T
2.38419e-05
0.0
2.000000
0.002000
12515
8
176.403
47.8408
#DATA
2.000000	 65.0917
2.084000	 64.978
2.168000	 64.7388
2.252000	 63.7412
2.336000	 63.7819
2.420000	 65.3119
2.504000	 65.2075
2.588000	 65.0369
2.672000	 65.1633
2.756000	 65.0689
2.840000	 65.2889
2.924000	 65.0354
3.008000	 65.0296
3.092000	 65.0603
3.176000	 65.0386
3.260000	 65.0933
3.344000	 65.2047
3.428000	 64.6485
3.512000	 64.9785
3.596000	 65.1703
3.680000	 65.1008
3.764000	 65.2803
3.848000	 65.1003
3.932000	 65.2178
4.016000	 65.2301
4.100000	 64.955
4.184000	 65.2057
4.268000	 65.1974
4.352000	 65.2548
4.436000	 65.2196
4.520000	 65.2232
4.604000	 65.1784
4.688000	 65.3786
4.772000	 65.0865
4.856000	 64.9894
4.940000	 65.3246
5.024000	 65.2178
5.108000	 65.2255
5.192000	 65.3227
5.276000	 65.3205
5.359999	 65.1924
5.444000	 65.4129
5.528000	 65.2183
5.612000	 65.2957
5.696000	 65.1933
5.780000	 64.9976
5.864000	 65.2365
5.948000	 65.0459
6.032000	 65.2501
6.116000	 64.9399
6.200000	 65.1463
6.284000	 65.1209
6.368000	 65.0102
6.452000	 65.0575
6.536000	 65.0593
6.620000	 65.0714
6.704000	 65.0062
6.788000	 64.9755
6.872000	 65.0007
6.956000	 64.8653
7.040000	 65.0155
7.124000	 64.9188
7.208000	 64.888
7.292000	 64.9586
7.376000	 64.9483
7.460000	 64.9073
7.544000	 65.0758
7.628000	 64.7051
7.712000	 65.1614
7.796000	 64.8786
7.880000	 64.8833
7.964000	 64.9556
8.048000	 64.7703
8.132000	 64.8426
8.216000	 64.8731
8.300000	 64.8862
8.384000	 64.9217
8.468000	 64.9305
8.552000	 64.8122
8.635999	 64.6612
8.719999	 64.6423
8.804000	 64.8958
8.888000	 64.6243
8.972000	 64.9899
9.056000	 64.6886
9.140000	 64.4872
9.224000	 64.546
9.308000	 64.7191
9.391999	 64.6657
9.475999	 64.5932
9.560000	 64.8844
9.644000	 64.8366
9.728000	 64.7043
9.812000	 64.3935
9.896000	 64.0366
9.980000	 64.3458
10.064	64.3772
10.148	64.666
10.232	64.7724
10.316	64.8652
10.4	64.8019
10.484	64.7247
10.568	64.8707
10.652	64.4824
10.736	64.3005
10.82	64.861
10.904	64.6146
10.988	64.2753
11.072	64.6208
11.156	64.2144
11.24	64.6201
11.324	64.2453
11.408	64.0661
11.492	64.1757
11.576	64.3116
11.66	64.5258
11.744	64.6608
11.828	64.4368
11.912	64.4192
11.996	64.4167
12.08	64.468
12.164	63.8663
12.248	64.1614
12.332	64.3556
12.416	63.934
12.5	63.7326
12.584	63.9985
12.668	64.0069
12.752	63.9147
12.836	64.0076
12.92	64.1035
13.004	64.1732
13.088	64.0345
13.172	63.8072
13.256	63.8245
13.34	63.8962
13.424	63.806
13.508	63.134
13.592	62.5667
13.676	62.5586
13.76	62.7938
13.844	63.2314
13.928	63.4617
14.012	63.3825
14.096	63.3768
14.18	63.3911
14.264	63.5201
14.348	63.6872
14.432	63.7437
14.516	63.7198
14.6	63.5778
14.684	63.3705
14.768	63.2053
14.852	63.0074
14.936	62.7519
15.02	62.56
15.104	62.4676
15.188	62.4914
15.272	62.6539
15.356	62.7967
15.44	62.7575
15.524	62.7597
15.608	63.0372
15.692	63.2747
15.776	63.1814
15.86	62.967
15.944	62.8656
16.028	62.8553
16.112	62.8397
16.196	62.7901
16.28	62.8036
16.364	62.9539
16.448	63.0704
16.532	62.9194
16.616	62.5905
16.7	62.4017
16.784	62.4581
16.868	62.5306
16.952	62.3381
17.036	61.9276
17.12	61.6641
17.204	61.7479
17.288	61.9929
17.372	62.1585
17.456	62.205
17.54	62.1761
17.624	62.1061
17.708	62.0818
17.792	62.1969
17.876	62.4394
17.96	62.6867
18.044	62.8416
18.128	62.9058
18.212	62.8852
18.296	62.7125
18.38	62.3672
18.464	62.0002
18.548	61.7987
18.632	61.744
18.716	61.6441
18.8	61.4129
18.884	61.1856
18.968	61.1023
19.052	61.1078
19.136	61.0653
19.22	60.9758
19.304	60.9762
19.388	61.1285
19.472	61.3238
19.556	61.4112
19.64	61.351
19.724	61.2044
19.808	61.0341
19.892	60.8699
19.976	60.7415
20.06	60.6749
20.144	60.6535
20.228	60.6259
20.312	60.5793
20.396	60.5742
20.48	60.6799
20.564	60.8656
20.648	60.9963
20.732	60.9457
20.816	60.7274
20.9	60.4875
20.984	60.3731
21.068	60.4178
21.152	60.5435
21.236	60.6572
21.32	60.7274
21.404	60.7692
21.488	60.7858
21.572	60.7265
21.656	60.5282
21.74	60.1647
21.824	59.669
21.908	59.1225
21.992	58.6246
22.076	58.2706
22.16	58.1304
22.244	58.2112
22.328	58.4401
22.412	58.6852
22.496	58.807
22.58	58.7189
22.664	58.4023
22.748	57.8823
22.832	57.1799
22.916	56.3271
23	55.3716
23.084	54.4532
23.168	53.7652
23.252	53.4659
23.336	53.6614
23.42	54.2709
23.504	55.0309
23.588	55.6685
23.672	56.0383
23.756	56.111
23.84	55.9593
23.924	55.717
24.008	55.5465
24.092	55.6206
24.176	56.0868
24.26	56.946
24.344	58.1345
24.428	59.6609
24.512	61.6165
24.596	64.3817
24.68	68.452
24.764	74.0151
24.848	80.7488
24.932	87.3731
25.016	91.9042
25.1	92.293
25.184	87.5194
25.268	78.4295
25.352	67.4536
25.436	57.613
25.52	51.0093
25.604	48.075
25.688	48.3197
25.772	51.031
25.856	55.8793
25.94	62.4261
26.024	70.0441
26.108	77.9123
26.192	86.3481
26.276	96.6414
26.36	110.821
26.444	129.189
26.528	149.442
26.612	166.679
26.696	175.76
26.78	173.689
26.864	161.482
26.948	143.413
27.028	125.585

File: C-4040-8_t98_cm-1.asc
PE IR       SPECTRUM    SPECTRUM    ASCII       PEDS        1.60
  -1
C-1E65~1.ASC
17/03/27
22:32:57.00
17/03/27
22:32:57.00
tln
$C-4040-8_t0098$<tbV0>[-10.4,7.8,8.0,0.0,27,1,0]
370
64

2002,4.07
MIRTGS : RIGHTBACK : INTERNAL 2
MIR : ON : INTERNAL 2
OPTKBR

0.200000
8
8.000000
FILLER
RATIO
SPECTRUM
UNLOCKED 256

DOUBLE
64
COMBINED
1
0
0

1.000000
RATIO

1
0
TRUE
51149
0
LEFT NOT FITTED RIGHT NOT FITTED 0
NONE
NONE
15600
12
4.427000
51148
TRUE
1 0 8 72 0 0 0 0

15798

#HDR
-1
-1
#GR
CM-1
%T
2.38419e-05
0.0
5000
-1.000000
4631
8
176.239
47.841
#DATA
5000	65.0917
4984	64.851
4968	64.8722
4952	64.9093
4936	64.4676
4920	64.739
4904	64.6998
4888	65.4725
4872	65.7653
4856	64.8544
4840	64.7644
4824	64.5954
4808	64.5388
4792	65.0954
4776	65.2813
4760	65.2964
4744	65.1644
4728	65.2351
4712	65.4992
4696	65.237
4680	64.8274
4664	65.3477
4648	65.8993
4632	65.1731
4616	65.0328
4600	64.7813
4584	65.6128
4568	64.7552
4552	64.6787
4536	63.4449
4520	64.4436
4504	64.093
4488	63.4573
4472	63.4132
4456	63.7138
4440	63.6839
4424	63.4228
4408	62.9679
4392	73.5603
4376	63.5282
4360	63.5786
4344	63.367
4328	63.4854
4312	63.3116
4296	63.9362
4280	63.7982
4264	64.0278
4248	63.9069
4232	64.4677
4216	64.4414
4200	64.331
4184	65.2794
4168	64.9163
4152	65.1182
4136	65.4385
4120	65.0776
4104	65.2966
4088	65.4805
4072	65.2391
4056	64.9052
4040	65.3301
4024	65.337
4008	65.2896
3992	65.2823
3976	64.9481
3960	65.098
3944	64.9837
3928	64.8943
3912	65.3033
3896	65.064
3880	64.6139
3864	65.0363
3848	65.0639
3832	65.01
3816	64.901
3800	64.9282
3784	65.1737
3768	65.1556
3752	65.1795
3736	65.0687
3720	65.3007
3704	65.1565
3688	65.5308
3672	65.2642
3656	65.0726
3640	65.346
3624	65.249
3608	65.0254
3592	65.3888
3576	65.2953
3560	65.3679
3544	64.995
3528	65.4018
3512	65.203
3496	65.384
3480	64.8479
3464	65.6941
3448	64.7431
3432	64.9604
3416	65.1174
3400	65.1361
3384	64.9593
3368	64.9424
3352	65.1072
3336	65.0027
3320	64.9624
3304	64.9773
3288	64.9973
3272	65.0494
3256	65.2596
3240	65.0614
3224	65.2058
3208	65.4558
3192	65.3222
3176	65.2531
3160	65.2763
3144	65.0119
3128	65.3407
3112	64.9072
3096	65.2073
3080	65.1609
3064	64.9797
3048	65.1161
3032	65.2506
3016	65.205
3000	65.2243
2984	65.0724
2968	65.2393
2952	65.1075
2936	64.9478
2920	64.5314
2904	65.0958
2888	64.986
2872	64.8303
2856	65.053
2840	65.0626
2824	65.0909
2808	65.181
2792	65.2976
2776	65.1539
2760	65.2529
2744	65.1171
2728	65.2147
2712	65.171
2696	65.3267
2680	65.2217
2664	65.5425
2648	65.1416
2632	65.1278
2616	65.2603
2600	65.1013
2584	65.3147
2568	65.1393
2552	65.2484
2536	65.1608
2520	65.0094
2504	65.1129
2488	65.2682
2472	65.2915
2456	65.3151
2440	64.9784
2424	64.4549
2408	65.0698
2392	65.235
2376	65.2907
2360	65.2456
2344	65.1817
2328	65.2112
2312	65.1667
2296	65.2575
2280	65.2373
2264	65.2369
2248	65.2015
2232	65.1791
2216	65.3055
2200	65.239
2184	65.2235
2168	65.2797
2152	65.5613
2136	65.3407
2120	65.1513
2104	65.3155
2088	64.9922
2072	65.2306
2056	64.8998
2040	65.1809
2024	65.3211
2008	65.2776
1992	65.2302
1976	65.2669
1960	65.2706
1944	65.2326
1928	65.31
1912	65.1016
1896	65.3136
1880	65.2639
1864	65.2229
1848	65.3219
1832	65.4285
1816	65.219
1800	65.2749
1784	65.2906
1768	65.2821
1752	65.1318
1736	64.9653
1720	64.8794
1704	65.2216
1688	65.1379
1672	65.2452
1656	65.2233
1640	65.0235
1624	65.0497
1608	65.1329
1592	65.123
1576	65.1047
1560	64.8607
1544	65.0685
1528	65.0738
1512	65.092
1496	65.1274
1480	64.9617
1464	65.1246
1448	64.8657
1432	64.8921
1416	64.9772
1400	64.9599
1384	64.9162
1368	64.9391
1352	64.9508
1336	64.8608
1320	65.0068
1304	64.9309
1288	65.0537
1272	64.9111
1256	64.9594
1240	64.7471
1224	64.8665
1208	64.901
1192	64.9043
1176	64.9164
1160	64.6631
1144	64.7619
1128	64.6111
1112	65.0404
1096	64.4285
1080	64.6022
1064	64.6469
1048	64.8176
1032	64.7315
1016	64.1855
1000	64.3249
984	 64.6934
968	 64.8804
952	 64.7719
936	 64.2356
920	 64.8332
904	 64.6969
888	 64.546
872	 64.1303
856	 64.6063
840	 64.4264
824	 64.0386
808	 64.1563
792	 64.0516
776	 64.0736
760	 63.8262
744	 63.7141
728	 62.7064
712	 63.3693
696	 63.7102
680	 63.3231
664	 62.5041
648	 62.7656
632	 63.0553
616	 62.7798
600	 62.4445
584	 61.661
568	 62.1215
552	 62.901
536	 61.7279
520	 60.968
504	 60.9668
488	 60.7032
472	 60.5952
456	 58.9844
440	 58.0285
424	 55.6494
408	 61.5562
392	 51.5873
376	 163.896
370	 125.585