Folder: Masteroppgave/Bakgrunnsmateriale/MATLAB/FTIR/ftir_data/subBb/Mapping_36 (part 4)

File: C-4040-8_t05.asc
PE IR       SPECTRUM    SPECTRUM    ASCII       PEDS        1.60
  -1
C-B52E~1.ASC
17/05/02
11:13:31.00
17/05/02
11:13:57.00
tln
$C-4040-8_t0005$<tbV0>[-7.5,-13.0,8.0,0.0,22,1,0]
27.028
64

2002,4.07
MIRTGS : RIGHTBACK : INTERNAL 2
MIR : ON : INTERNAL 2
OPTKBR

0.200000
8
8.000000
FILLER
RATIO
SPECTRUM
UNLOCKED 256

DOUBLE
64
COMBINED
1
0
0

0.002000
RATIO

1
0
TRUE
51149
0
LEFT NOT FITTED RIGHT NOT FITTED 0
NONE
NONE
15600
12
4.427000
51148
TRUE
1 0 8 72 0 0 0 0

15798

#HDR
-1
-1
#GR
µM
%T
2.38419e-05
0.0
1.282000
0.002000
12874
8
77.1481
35.7838
#DATA
1.282000	 63.6576
1.368000	 66.8759
1.454000	 64.2135
1.540000	 63.6288
1.626000	 62.989
1.712000	 64.3267
1.798000	 64.4715
1.884000	 63.4888
1.970000	 64.2061
2.056000	 64.3543
2.142000	 64.5057
2.228000	 63.8829
2.314000	 64.1692
2.400000	 64.3806
2.486000	 64.1291
2.572000	 63.8795
2.658000	 63.7291
2.744000	 63.8001
2.830000	 62.9991
2.916000	 63.36
3.002000	 63.1407
3.088000	 62.6397
3.174000	 62.5845
3.260000	 62.371
3.346000	 62.2141
3.432000	 61.5444
3.518000	 61.4768
3.604000	 61.3283
3.690000	 61.0959
3.776000	 60.7885
3.862000	 60.614
3.948000	 60.5148
4.034000	 60.1598
4.120000	 59.9567
4.206000	 59.6993
4.292000	 59.4745
4.378000	 59.2272
4.464000	 59.0258
4.550000	 58.7569
4.636000	 58.524
4.722000	 58.2539
4.808000	 58.1224
4.894000	 57.8866
4.980000	 57.7556
5.066000	 57.5339
5.152000	 57.415
5.238000	 57.1453
5.324000	 57.0418
5.410000	 56.8592
5.496000	 56.6175
5.582000	 56.5358
5.668000	 56.2722
5.754000	 55.9542
5.840000	 56.016
5.926000	 55.9286
6.012000	 55.7828
6.098000	 55.4885
6.184000	 55.4264
6.270000	 55.1535
6.356000	 54.9408
6.442000	 54.867
6.528000	 54.7452
6.614000	 54.6887
6.700000	 54.6433
6.786000	 54.3852
6.872000	 54.2662
6.958000	 54.1632
7.044000	 54.0461
7.130000	 53.9546
7.216000	 53.722
7.302000	 53.5793
7.388000	 53.4981
7.474000	 53.6039
7.560000	 53.4458
7.646000	 53.2849
7.732000	 53.1674
7.818000	 53.1148
7.904000	 52.9729
7.990000	 52.8843
8.076000	 52.8291
8.161999	 52.6173
8.248000	 52.5986
8.334000	 52.6074
8.420000	 52.4325
8.506000	 52.4287
8.592000	 52.1652
8.678000	 52.0263
8.763999	 52.1454
8.850000	 51.9811
8.936000	 51.8215
9.022000	 51.8926
9.108000	 51.7419
9.193999	 51.7621
9.280000	 51.829
9.366000	 51.5715
9.452000	 51.4441
9.538000	 51.2926
9.624000	 51.4799
9.710000	 51.2687
9.795999	 51.1958
9.882000	 51.0673
9.968000	 50.8217
10.054	51.0157
10.14	50.913
10.226	50.7433
10.312	50.7133
10.398	50.7845
10.484	50.8346
10.57	50.7286
10.656	50.6363
10.742	50.6046
10.828	50.2553
10.914	49.9376
11	50.0176
11.086	50.5724
11.172	50.2497
11.258	50.0105
11.344	49.7756
11.43	49.9581
11.516	50.2941
11.602	50.4233
11.688	49.895
11.774	49.8684
11.86	49.7296
11.946	50.0239
12.032	49.4403
12.118	48.8963
12.204	49.4856
12.29	49.4978
12.376	49.4431
12.462	49.4703
12.548	49.1437
12.634	48.7625
12.72	48.78
12.806	48.7379
12.892	48.6213
12.978	48.6714
13.064	48.6339
13.15	48.573
13.236	48.5019
13.322	48.5474
13.408	48.7196
13.494	48.6079
13.58	48.3678
13.666	48.1359
13.752	48.0047
13.838	48.0559
13.924	48.0998
14.01	47.8931
14.096	47.5937
14.182	47.4753
14.268	47.5907
14.354	47.7703
14.44	47.6618
14.526	47.3797
14.612	47.2939
14.698	47.2241
14.784	47.0749
14.87	47.069
14.956	47.1061
15.042	47.0564
15.128	46.9884
15.214	46.8921
15.3	46.807
15.386	46.79
15.472	46.7578
15.558	46.6623
15.644	46.5488
15.73	46.522
15.816	46.629
15.902	46.6882
15.988	46.5294
16.074	46.2888
16.16	46.2063
16.246	46.2969
16.332	46.363
16.418	46.3138
16.504	46.2355
16.59	46.1406
16.676	45.9727
16.762	45.7429
16.848	45.4942
16.934	45.2675
17.02	45.1715
17.106	45.275
17.192	45.4035
17.278	45.3446
17.364	45.1488
17.45	44.9978
17.536	44.9527
17.622	44.9617
17.708	44.9752
17.794	44.9706
17.88	44.9517
17.966	44.9415
18.052	44.94
18.138	44.8923
18.224	44.7408
18.31	44.5146
18.396	44.3474
18.482	44.3491
18.568	44.461
18.654	44.4802
18.74	44.2921
18.826	44.0277
18.912	43.9269
18.998	44.0513
19.084	44.2151
19.17	44.2017
19.256	43.994
19.342	43.761
19.428	43.6517
19.514	43.6529
19.6	43.6291
19.686	43.4796
19.772	43.2251
19.858	42.96
19.944	42.7631
20.03	42.6661
20.116	42.6682
20.202	42.7449
20.288	42.836
20.374	42.8702
20.46	42.8209
20.546	42.735
20.632	42.6798
20.718	42.676
20.804	42.6977
20.89	42.7202
20.976	42.7293
21.062	42.6899
21.148	42.5316
21.234	42.2012
21.32	41.7394
21.406	41.2932
21.492	41.0388
21.578	41.058
21.664	41.2827
21.75	41.5469
21.836	41.6906
21.922	41.6523
22.008	41.4918
22.094	41.328
22.18	41.2545
22.266	41.291
22.352	41.379
22.438	41.4331
22.524	41.3865
22.61	41.2053
22.696	40.8922
22.782	40.493
22.868	40.0937
22.954	39.8137
23.04	39.7676
23.126	40.0174
23.212	40.5237
23.298	41.1536
23.384	41.6983
23.47	41.974
23.556	41.8811
23.642	41.4481
23.728	40.8281
23.814	40.2358
23.9	39.8571
23.986	39.7797
24.072	39.941
24.158	40.1477
24.244	40.1781
24.33	39.8739
24.416	39.2141
24.502	38.2846
24.588	37.2812
24.674	36.4271
24.76	35.8986
24.846	35.8072
24.932	36.1948
25.018	37.0248
25.104	38.2046
25.19	39.6026
25.276	41.0956
25.362	42.5895
25.448	44.0266
25.534	45.3571
25.62	46.4992
25.706	47.3364
25.792	47.7407
25.878	47.6479
25.964	47.1562
26.05	46.5702
26.136	46.3654
26.222	47.1398
26.308	49.4269
26.394	53.4353
26.48	58.7909
26.566	64.6755
26.652	70.1161
26.738	74.2205
26.824	76.5206
26.91	77.1447
26.996	76.5925
27.028	76.3357

File: C-4040-8_t05_cm-1.asc
PE IR       SPECTRUM    SPECTRUM    ASCII       PEDS        1.60
  -1
C-99EE~1.ASC
17/05/02
11:13:31.00
17/05/02
11:13:31.00
tln
$C-4040-8_t0005$<tbV0>[-7.5,-13.0,8.0,0.0,22,1,0]
370
64

2002,4.07
MIRTGS : RIGHTBACK : INTERNAL 2
MIR : ON : INTERNAL 2
OPTKBR

0.200000
8
8.000000
FILLER
RATIO
SPECTRUM
UNLOCKED 256

DOUBLE
64
COMBINED
1
0
0

1.000000
RATIO

1
0
TRUE
51149
0
LEFT NOT FITTED RIGHT NOT FITTED 0
NONE
NONE
15600
12
4.427000
51148
TRUE
1 0 8 72 0 0 0 0

15798

#HDR
-1
-1
#GR
CM-1
%T
2.38419e-05
0.0
7800
-1.000000
7431
8
77.0961
35.7846
#DATA
7800	63.6576
7775	60.3844
7750	68.3744
7725	63.7102
7700	65.1952
7675	68.5042
7650	67.2776
7625	66.2654
7600	65.8219
7575	67.0865
7550	66.2221
7525	62.5278
7500	62.4836
7475	62.3621
7450	66.4575
7425	62.0543
7400	63.9566
7375	59.8691
7350	62.6766
7325	64.3913
7300	63.7968
7275	65.1806
7250	63.6629
7225	64.287
7200	64.6092
7175	62.9448
7150	61.1602
7125	61.4351
7100	63.6484
7075	64.3596
7050	63.017
7025	61.1359
7000	64.152
6975	65.6686
6950	63.0073
6925	64.6617
6900	63.6741
6875	63.4479
6850	64.9199
6825	64.2725
6800	62.5888
6775	62.5599
6750	63.9025
6725	62.4257
6700	64.0946
6675	63.9338
6650	63.9354
6625	64.2648
6600	64.4736
6575	64.4333
6550	62.5185
6525	64.6971
6500	64.0368
6475	63.7644
6450	63.881
6425	63.7776
6400	64.6021
6375	64.3469
6350	64.0258
6325	64.3268
6300	64.9088
6275	64.9686
6250	64.0131
6225	64.1599
6200	63.8537
6175	63.8194
6150	62.9719
6125	63.7223
6100	64.8347
6075	64.1551
6050	64.5637
6025	64.0977
6000	64.5084
5975	64.4963
5950	64.137
5925	63.8503
5900	65.1685
5875	64.9832
5850	64.5503
5825	63.8979
5800	64.1561
5775	63.8882
5750	64.2858
5725	64.5159
5700	63.7122
5675	64.3227
5650	64.0546
5625	63.8256
5600	64.9079
5575	64.6176
5550	64.1617
5525	64.0037
5500	64.7905
5475	63.8453
5450	64.7509
5425	64.0334
5400	64.2639
5375	63.6422
5350	64.0534
5325	63.6202
5300	63.7346
5275	63.7117
5250	65.9292
5225	63.8786
5200	64.2249
5175	65.8052
5150	64.0002
5125	64.3868
5100	64.2745
5075	64.1966
5050	64.3974
5025	64.3625
5000	64.7203
4975	64.7083
4950	64.383
4925	64.4142
4900	64.3143
4875	64.3681
4850	64.1972
4825	64.502
4800	64.1224
4775	64.3287
4750	64.3092
4725	64.4397
4700	64.6259
4675	64.4145
4650	64.2416
4625	64.1692
4600	64.2175
4575	64.4331
4550	64.2699
4525	63.8824
4500	64.3933
4475	63.5132
4450	63.7506
4425	64.5873
4400	71.5482
4375	64.4947
4350	64.0804
4325	64.4621
4300	64.0365
4275	63.9438
4250	64.1609
4225	63.8702
4200	64.1909
4175	64.2198
4150	63.9841
4125	64.1606
4100	64.3746
4075	64.3272
4050	64.0337
4025	64.1412
4000	64.0371
3975	64.1167
3950	64.2178
3925	63.7531
3900	63.9864
3875	64.0141
3850	63.9637
3825	64.099
3800	63.7269
3775	63.6923
3750	63.9727
3725	63.6754
3700	63.6833
3675	63.6279
3650	63.7203
3625	63.5209
3600	63.5998
3575	63.665
3550	63.5987
3525	63.0224
3500	63.4721
3475	63.2736
3450	63.4354
3425	63.3242
3400	63.1612
3375	63.2233
3350	62.888
3325	62.815
3300	62.9526
3275	62.8084
3250	62.7383
3225	62.6134
3200	62.5291
3175	62.5843
3150	62.5972
3125	62.2738
3100	62.4603
3075	62.3164
3050	62.3776
3025	62.2245
3000	62.0907
2975	61.882
2950	61.6173
2925	61.5241
2900	61.4938
2875	61.6324
2850	61.4622
2825	61.6151
2800	61.4153
2775	61.332
2750	61.2283
2725	61.1465
2700	60.9732
2675	60.9205
2650	60.7949
2625	60.7531
2600	60.7057
2575	60.5251
2550	60.4468
2525	60.461
2500	60.2812
2475	60.1375
2450	59.9854
2425	59.9639
2400	59.8361
2375	59.6973
2350	59.567
2325	59.4861
2300	59.304
2275	59.1913
2250	59.0541
2225	58.9056
2200	58.7462
2175	58.7
2150	58.4234
2125	58.3305
2100	58.2732
2075	58.0611
2050	58.0808
2025	57.7517
2000	57.669
1975	57.5484
1950	57.4421
1925	57.298
1900	57.1542
1875	57.0272
1850	56.8649
1825	56.6767
1800	56.597
1775	56.3614
1750	56.2098
1725	55.9851
1700	55.9714
1675	55.7706
1650	55.5848
1625	55.517
1600	55.18
1575	54.9753
1550	54.8551
1525	54.8022
1500	54.6702
1475	54.3964
1450	54.1866
1425	53.9701
1400	53.9539
1375	53.6522
1350	53.551
1325	53.4369
1300	53.1627
1275	53.0503
1250	52.8868
1225	52.6177
1200	52.6099
1175	52.4262
1150	52.0787
1125	51.9271
1100	51.7945
1075	51.8502
1050	51.2906
1025	51.1499
1000	50.8642
975	 50.7315
950	 50.8527
925	 50.3376
900	 50.5432
875	 49.9517
850	 49.8592
825	 48.9064
800	 49.3806
775	 48.6195
750	 48.5733
725	 48.0112
700	 47.6342
675	 47.0529
650	 46.7901
625	 46.4945
600	 45.9948
575	 45.0896
550	 44.8292
525	 44.1576
500	 42.6882
475	 42.6987
450	 41.2608
425	 41.9507
400	 36.8191
375	 70.926
370	 76.3357

File: C-4040-8_t06.asc
PE IR       SPECTRUM    SPECTRUM    ASCII       PEDS        1.60
  -1
C-B522~1.ASC
17/05/02
11:18:12.00
17/05/02
11:18:38.00
tln
$C-4040-8_t0006$<tbV0>[-12.5,-13.0,8.0,0.0,22,1,0]
27.028
64

2002,4.07
MIRTGS : RIGHTBACK : INTERNAL 2
MIR : ON : INTERNAL 2
OPTKBR

0.200000
8
8.000000
FILLER
RATIO
SPECTRUM
UNLOCKED 256

DOUBLE
64
COMBINED
1
0
0

0.002000
RATIO

1
0
TRUE
51149
0
LEFT NOT FITTED RIGHT NOT FITTED 0
NONE
NONE
15600
12
4.427000
51148
TRUE
1 0 8 72 0 0 0 0

15798

#HDR
-1
-1
#GR
µM
%T
2.38419e-05
0.0
1.282000
0.002000
12874
8
73.7856
24.2776
#DATA
1.282000	 70.3139
1.368000	 64.2242
1.454000	 63.9665
1.540000	 66.2541
1.626000	 63.6215
1.712000	 64.246
1.798000	 64.5418
1.884000	 64.5608
1.970000	 64.3357
2.056000	 64.4749
2.142000	 64.7696
2.228000	 64.7429
2.314000	 64.8642
2.400000	 64.5436
2.486000	 64.0314
2.572000	 64.2307
2.658000	 64.1089
2.744000	 64.0064
2.830000	 63.6232
2.916000	 63.5901
3.002000	 63.1721
3.088000	 63.0317
3.174000	 62.8541
3.260000	 62.7917
3.346000	 62.3829
3.432000	 61.9046
3.518000	 61.988
3.604000	 61.858
3.690000	 61.6691
3.776000	 61.239
3.862000	 61.1256
3.948000	 60.9102
4.034000	 60.7696
4.120000	 60.5891
4.206000	 60.3507
4.292000	 60.1678
4.378000	 60.0275
4.464000	 59.8181
4.550000	 59.5267
4.636000	 59.5587
4.722000	 59.1662
4.808000	 59.0739
4.894000	 58.9194
4.980000	 58.7272
5.066000	 58.5965
5.152000	 58.4616
5.238000	 58.4107
5.324000	 58.1692
5.410000	 57.9652
5.496000	 57.9365
5.582000	 57.6775
5.668000	 57.5524
5.754000	 57.2987
5.840000	 57.2957
5.926000	 57.2031
6.012000	 57.1899
6.098000	 56.9727
6.184000	 56.8835
6.270000	 56.6429
6.356000	 56.5473
6.442000	 56.3459
6.528000	 56.183
6.614000	 56.1404
6.700000	 56.1556
6.786000	 55.8647
6.872000	 56.0256
6.958000	 55.835
7.044000	 55.7414
7.130000	 55.4612
7.216000	 55.4036
7.302000	 55.5041
7.388000	 55.3925
7.474000	 55.3024
7.560000	 55.2257
7.646000	 54.9688
7.732000	 54.922
7.818000	 54.7233
7.904000	 54.6835
7.990000	 54.6368
8.076000	 54.5016
8.161999	 54.5468
8.248000	 54.4804
8.334000	 54.4319
8.420000	 54.2392
8.506000	 54.2616
8.592000	 54.1959
8.678000	 54.1705
8.763999	 53.9517
8.850000	 53.9452
8.936000	 53.8625
9.022000	 53.7202
9.108000	 54.0135
9.193999	 53.9163
9.280000	 53.5606
9.366000	 53.5653
9.452000	 53.3341
9.538000	 53.2716
9.624000	 53.4562
9.710000	 53.3247
9.795999	 53.3174
9.882000	 53.1829
9.968000	 53.0588
10.054	53.146
10.14	52.705
10.226	52.8481
10.312	52.7328
10.398	52.6479
10.484	52.5442
10.57	52.5935
10.656	52.5317
10.742	52.4052
10.828	52.3485
10.914	52.68
11	52.6654
11.086	52.6476
11.172	52.6687
11.258	52.406
11.344	51.8115
11.43	51.6967
11.516	51.5885
11.602	51.7546
11.688	51.6296
11.774	52.0724
11.86	51.1185
11.946	51.2908
12.032	51.2743
12.118	51.3007
12.204	51.8626
12.29	51.5532
12.376	51.316
12.462	51.5237
12.548	51.306
12.634	51.1406
12.72	50.9107
12.806	50.7548
12.892	50.8101
12.978	50.9504
13.064	50.9077
13.15	50.7906
13.236	51.031
13.322	51.0393
13.408	50.6633
13.494	50.3821
13.58	50.5009
13.666	50.5576
13.752	50.4801
13.838	50.489
13.924	50.4162
14.01	50.0991
14.096	49.8123
14.182	49.5837
14.268	49.4649
14.354	49.536
14.44	49.6098
14.526	49.6321
14.612	49.6599
14.698	49.7073
14.784	49.6927
14.87	49.6634
14.956	49.6833
15.042	49.6289
15.128	49.4299
15.214	49.1869
15.3	48.9425
15.386	48.7639
15.472	48.7272
15.558	48.659
15.644	48.5618
15.73	48.6837
15.816	48.9429
15.902	49.1096
15.988	49.1258
16.074	48.9781
16.16	48.7576
16.246	48.6501
16.332	48.6615
16.418	48.6462
16.504	48.5751
16.59	48.5138
16.676	48.4575
16.762	48.3982
16.848	48.43
16.934	48.5144
17.02	48.4025
17.106	48.0296
17.192	47.6271
17.278	47.3806
17.364	47.2949
17.45	47.3658
17.536	47.5885
17.622	47.8224
17.708	47.9147
17.794	47.8781
17.88	47.7655
17.966	47.5472
18.052	47.2535
18.138	47.0398
18.224	46.9834
18.31	46.9837
18.396	46.9369
18.482	46.8776
18.568	46.8766
18.654	46.9245
18.74	46.9573
18.826	46.9195
18.912	46.7775
18.998	46.5417
19.084	46.2998
19.17	46.1652
19.256	46.1561
19.342	46.161
19.428	46.0511
19.514	45.8047
19.6	45.5053
19.686	45.2541
19.772	45.1062
19.858	45.0649
19.944	45.0861
20.03	45.089
20.116	44.9988
20.202	44.8137
20.288	44.625
20.374	44.5527
20.46	44.6455
20.546	44.8426
20.632	45.0216
20.718	45.0906
20.804	45.0456
20.89	44.9523
20.976	44.8752
21.062	44.8319
21.148	44.8017
21.234	44.7563
21.32	44.6681
21.406	44.5037
21.492	44.2415
21.578	43.9035
21.664	43.564
21.75	43.3129
21.836	43.2066
21.922	43.2306
22.008	43.3008
22.094	43.3177
22.18	43.2253
22.266	43.038
22.352	42.8212
22.438	42.6343
22.524	42.5009
22.61	42.4073
22.696	42.3378
22.782	42.2908
22.868	42.2674
22.954	42.2447
23.04	42.1678
23.126	41.9744
23.212	41.673
23.298	41.3442
23.384	41.1293
23.47	41.1354
23.556	41.3706
23.642	41.7504
23.728	42.1329
23.814	42.4139
23.9	42.5772
23.986	42.6888
24.072	42.8513
24.158	43.1549
24.244	43.5935
24.33	44.0551
24.416	44.3944
24.502	44.4268
24.588	44.0238
24.674	43.1497
24.76	41.8225
24.846	40.1162
24.932	38.1474
25.018	36.0645
25.104	34.076
25.19	32.283
25.276	30.6553
25.362	29.1174
25.448	27.6178
25.534	26.2042
25.62	25.04
25.706	24.3694
25.792	24.3711
25.878	25.1885
25.964	27.0707
26.05	30.3253
26.136	35.1041
26.222	41.1798
26.308	47.7706
26.394	53.7715
26.48	58.194
26.566	60.5986
26.652	61.3803
26.738	61.4652
26.824	61.981
26.91	63.8238
26.996	68.1024
27.028	69.6568

File: C-4040-8_t06_cm-1.asc
PE IR       SPECTRUM    SPECTRUM    ASCII       PEDS        1.60
  -1
C-996E~1.ASC
17/05/02
11:18:12.00
17/05/02
11:18:12.00
tln
$C-4040-8_t0006$<tbV0>[-12.5,-13.0,8.0,0.0,22,1,0]
370
64

2002,4.07
MIRTGS : RIGHTBACK : INTERNAL 2
MIR : ON : INTERNAL 2
OPTKBR

0.200000
8
8.000000
FILLER
RATIO
SPECTRUM
UNLOCKED 256

DOUBLE
64
COMBINED
1
0
0

1.000000
RATIO

1
0
TRUE
51149
0
LEFT NOT FITTED RIGHT NOT FITTED 0
NONE
NONE
15600
12
4.427000
51148
TRUE
1 0 8 72 0 0 0 0

15798

#HDR
-1
-1
#GR
CM-1
%T
2.38419e-05
0.0
7800
-1.000000
7431
8
74.1389
24.3071
#DATA
7800	70.3139
7775	54.0382
7750	68.9638
7725	68.8945
7700	61.7931
7675	70.5291
7650	69.7953
7625	70.2483
7600	64.1453
7575	69.8677
7550	64.9749
7525	60.2788
7500	64.5392
7475	64.7784
7450	64.3095
7425	65.7792
7400	63.652
7375	62.8418
7350	60.0343
7325	65.4108
7300	60.9135
7275	65.3701
7250	66.8538
7225	66.2635
7200	64.4501
7175	64.9317
7150	63.9588
7125	63.7505
7100	66.1536
7075	63.6947
7050	64.5401
7025	64.4858
7000	66.4489
6975	67.6677
6950	63.2082
6925	65.603
6900	65.0213
6875	63.1579
6850	65.2867
6825	65.9417
6800	63.1075
6775	61.7865
6750	63.5295
6725	63.3939
6700	66.5215
6675	63.529
6650	64.7017
6625	64.5794
6600	64.8398
6575	64.9868
6550	65.2029
6525	64.0745
6500	65.7948
6475	65.8179
6450	65.5072
6425	64.3861
6400	65.333
6375	64.0487
6350	64.0754
6325	64.61
6300	63.4237
6275	65.0815
6250	65.6105
6225	64.0404
6200	64.9027
6175	65.271
6150	63.6136
6125	64.3296
6100	64.6245
6075	64.3373
6050	63.9945
6025	65.0764
6000	63.7886
5975	65.1864
5950	63.6561
5925	64.5935
5900	64.3626
5875	64.9353
5850	64.7379
5825	64.7519
5800	65.328
5775	64.7114
5750	65.4876
5725	64.9173
5700	63.515
5675	64.0377
5650	64.6205
5625	64.4017
5600	65.1478
5575	63.8598
5550	64.7738
5525	65.019
5500	64.9856
5475	64.5242
5450	65.0187
5425	64.3871
5400	63.7127
5375	63.7687
5350	64.8727
5325	65.1549
5300	64.4068
5275	63.5001
5250	66.3882
5225	62.7114
5200	65.306
5175	65.4561
5150	64.6379
5125	64.2113
5100	64.5492
5075	64.3434
5050	64.982
5025	64.7949
5000	64.8824
4975	64.6395
4950	64.9409
4925	64.507
4900	64.8659
4875	64.549
4850	64.0732
4825	64.4198
4800	64.4556
4775	64.4947
4750	64.3823
4725	64.1517
4700	64.7063
4675	64.5516
4650	64.5655
4625	64.485
4600	64.7042
4575	64.9606
4550	65.0726
4525	64.351
4500	64.9976
4475	65.0188
4450	64.8052
4425	65.0357
4400	69.6921
4375	64.3698
4350	65.4616
4325	64.8845
4300	64.5863
4275	64.8171
4250	64.5763
4225	64.4189
4200	64.0555
4175	64.3916
4150	64.0047
4125	64.1622
4100	64.3628
4075	64.062
4050	64.2877
4025	64.0983
4000	64.1892
3975	64.1611
3950	64.1037
3925	64.086
3900	64.2671
3875	64.1114
3850	64.0227
3825	64.2809
3800	64.0492
3775	63.9877
3750	63.9419
3725	63.9119
3700	63.9252
3675	63.8761
3650	64.0817
3625	63.7505
3600	63.8814
3575	63.7894
3550	63.7176
3525	63.6853
3500	63.7416
3475	63.6036
3450	63.4202
3425	63.5566
3400	63.4373
3375	63.3581
3350	63.2721
3325	62.9731
3300	63.21
3275	62.9772
3250	63.1031
3225	62.8287
3200	62.968
3175	62.8919
3150	62.8724
3125	62.6913
3100	62.5867
3075	62.6799
3050	62.5468
3025	62.5962
3000	62.5885
2975	62.3941
2950	62.1258
2925	62.0022
2900	62.1073
2875	61.9711
2850	61.8762
2825	61.9112
2800	61.8575
2775	61.862
2750	61.6784
2725	61.6907
2700	61.7169
2675	61.4606
2650	61.2372
2625	61.3124
2600	61.2448
2575	61.0868
2550	61.1347
2525	60.9881
2500	60.8458
2475	60.7924
2450	60.7284
2425	60.555
2400	60.4915
2375	60.3739
2350	60.3427
2325	60.2293
2300	60.0079
2275	59.9389
2250	59.8684
2225	59.7107
2200	59.5195
2175	59.501
2150	59.3884
2125	59.2786
2100	59.2136
2075	58.9946
2050	59.0371
2025	58.7775
2000	58.6979
1975	58.6008
1950	58.5404
1925	58.4586
1900	58.2506
1875	58.1685
1850	57.9485
1825	57.898
1800	57.8141
1775	57.6539
1750	57.4142
1725	57.1105
1700	57.3513
1675	57.1095
1650	56.9112
1625	56.8762
1600	56.6088
1575	56.5778
1550	56.3306
1525	56.1487
1500	56.0385
1475	55.8491
1450	55.9788
1425	55.6429
1400	55.5322
1375	55.5111
1350	55.4127
1325	55.2378
1300	54.9817
1275	54.8024
1250	54.609
1225	54.5467
1200	54.4329
1175	54.2622
1150	54.2165
1125	53.9114
1100	53.9249
1075	53.6037
1050	53.3053
1025	53.2805
1000	53.1166
975	 52.8195
950	 52.5317
925	 52.3162
900	 52.6141
875	 51.7006
850	 52.0855
825	 51.3231
800	 51.4772
775	 50.826
750	 51.0044
725	 50.4745
700	 49.469
675	 49.6769
650	 48.7656
625	 49.1151
600	 48.4646
575	 47.299
550	 46.9947
525	 46.3949
500	 45.0956
475	 44.8355
450	 43.1417
425	 41.2767
400	 36.4976
375	 61.4247
370	 69.6568

File: C-4040-8_t07.asc
PE IR       SPECTRUM    SPECTRUM    ASCII       PEDS        1.60
  -1
C-B526~1.ASC
17/05/02
11:23:29.00
17/05/02
11:23:55.00
tln
$C-4040-8_t0007$<tbV0>[12.5,-8.0,8.0,0.0,22,1,0]
27.028
64

2002,4.07
MIRTGS : RIGHTBACK : INTERNAL 2
MIR : ON : INTERNAL 2
OPTKBR

0.200000
8
8.000000
FILLER
RATIO
SPECTRUM
UNLOCKED 256

DOUBLE
64
COMBINED
1
0
0

0.002000
RATIO

1
0
TRUE
51149
0
LEFT NOT FITTED RIGHT NOT FITTED 0
NONE
NONE
15600
12
4.427000
51148
TRUE
1 0 8 72 0 0 0 0

15798

#HDR
-1
-1
#GR
µM
%T
2.38419e-05
0.0
1.282000
0.002000
12874
8
94.2451
48.7065
#DATA
1.282000	 68.295
1.368000	 64.2291
1.454000	 62.4466
1.540000	 63.7783
1.626000	 64.6112
1.712000	 64.754
1.798000	 65.2446
1.884000	 64.3697
1.970000	 64.7035
2.056000	 64.7179
2.142000	 64.9472
2.228000	 64.4538
2.314000	 64.3528
2.400000	 65.0946
2.486000	 65.3275
2.572000	 65.0739
2.658000	 65.0436
2.744000	 65.0965
2.830000	 65.1437
2.916000	 65.0978
3.002000	 65.143
3.088000	 64.9897
3.174000	 65.3163
3.260000	 65.0666
3.346000	 65.0756
3.432000	 64.7259
3.518000	 65.1742
3.604000	 65.2002
3.690000	 65.1299
3.776000	 65.0982
3.862000	 65.1423
3.948000	 65.1987
4.034000	 65.2421
4.120000	 65.2548
4.206000	 65.2332
4.292000	 65.1961
4.378000	 65.2142
4.464000	 65.2054
4.550000	 65.1522
4.636000	 65.1925
4.722000	 65.0927
4.808000	 65.1496
4.894000	 65.216
4.980000	 65.2292
5.066000	 65.177
5.152000	 65.1491
5.238000	 65.1737
5.324000	 65.139
5.410000	 65.1443
5.496000	 65.2177
5.582000	 65.2631
5.668000	 65.1509
5.754000	 64.9382
5.840000	 65.0628
5.926000	 65.2546
6.012000	 65.1611
6.098000	 65.099
6.184000	 65.1879
6.270000	 65.0765
6.356000	 65.0833
6.442000	 65.1221
6.528000	 64.9655
6.614000	 64.9342
6.700000	 64.9994
6.786000	 65.0896
6.872000	 64.966
6.958000	 65.0378
7.044000	 65.2232
7.130000	 64.9669
7.216000	 64.9443
7.302000	 64.8603
7.388000	 64.8886
7.474000	 65.155
7.560000	 64.9767
7.646000	 64.7804
7.732000	 64.9231
7.818000	 64.9024
7.904000	 64.8946
7.990000	 64.8138
8.076000	 64.8794
8.161999	 64.7174
8.248000	 64.8626
8.334000	 65.0011
8.420000	 64.7353
8.506000	 64.7953
8.592000	 64.7273
8.678000	 64.6885
8.763999	 64.8102
8.850000	 64.776
8.936000	 64.8579
9.022000	 64.9124
9.108000	 64.7379
9.193999	 64.7465
9.280000	 64.7507
9.366000	 64.5712
9.452000	 64.5274
9.538000	 64.662
9.624000	 64.9026
9.710000	 64.708
9.795999	 64.5553
9.882000	 64.5957
9.968000	 64.7898
10.054	64.8317
10.14	64.6975
10.226	64.6737
10.312	64.7433
10.398	64.5545
10.484	64.5071
10.57	64.3833
10.656	64.3433
10.742	64.615
10.828	64.4762
10.914	64.3712
11	64.5822
11.086	64.6125
11.172	64.5209
11.258	64.489
11.344	64.8575
11.43	65.4811
11.516	65.0954
11.602	64.1316
11.688	64.1978
11.774	64.6506
11.86	64.4266
11.946	64.803
12.032	64.2757
12.118	63.2134
12.204	63.8592
12.29	64.5097
12.376	64.2067
12.462	63.7822
12.548	63.89
12.634	64.2723
12.72	64.3134
12.806	63.9635
12.892	63.9686
12.978	63.9932
13.064	64.0107
13.15	64.0954
13.236	63.9588
13.322	63.7125
13.408	63.6483
13.494	63.667
13.58	63.5879
13.666	63.4856
13.752	63.5585
13.838	63.5303
13.924	63.4406
14.01	63.4405
14.096	63.4467
14.182	63.352
14.268	63.3187
14.354	63.2454
14.44	63.0634
14.526	62.9321
14.612	62.9227
14.698	62.938
14.784	62.8824
14.87	62.8468
14.956	62.9032
15.042	63.1033
15.128	63.2639
15.214	63.2512
15.3	63.132
15.386	62.9279
15.472	62.7736
15.558	62.6326
15.644	62.4538
15.73	62.4889
15.816	62.6535
15.902	62.6608
15.988	62.6114
16.074	62.6215
16.16	62.6202
16.246	62.5902
16.332	62.5268
16.418	62.4747
16.504	62.5817
16.59	62.8213
16.676	62.9598
16.762	62.908
16.848	62.8314
16.934	62.8043
17.02	62.6853
17.106	62.4211
17.192	62.1697
17.278	62.1248
17.364	62.291
17.45	62.4281
17.536	62.298
17.622	61.9305
17.708	61.5602
17.794	61.3747
17.88	61.3915
17.966	61.5304
18.052	61.6903
18.138	61.7621
18.224	61.6688
18.31	61.4419
18.396	61.2217
18.482	61.1345
18.568	61.1867
18.654	61.2895
18.74	61.3568
18.826	61.36
18.912	61.2996
18.998	61.169
19.084	60.9667
19.17	60.74
19.256	60.5848
19.342	60.5704
19.428	60.6445
19.514	60.6531
19.6	60.4739
19.686	60.1423
19.772	59.8214
19.858	59.6597
19.944	59.6816
20.03	59.7985
20.116	59.9003
20.202	59.9278
20.288	59.8813
20.374	59.7971
20.46	59.7249
20.546	59.7002
20.632	59.7099
20.718	59.692
20.804	59.5998
20.89	59.4676
20.976	59.3874
21.062	59.4266
21.148	59.567
21.234	59.7211
21.32	59.794
21.406	59.7368
21.492	59.5686
21.578	59.3462
21.664	59.112
21.75	58.8766
21.836	58.6489
21.922	58.4714
22.008	58.4113
22.094	58.5125
22.18	58.7616
22.266	59.0885
22.352	59.3902
22.438	59.5673
22.524	59.5571
22.61	59.3519
22.696	59.0134
22.782	58.653
22.868	58.3875
22.954	58.2811
23.04	58.3207
23.126	58.4322
23.212	58.5473
23.298	58.6407
23.384	58.7417
23.47	58.8877
23.556	59.0786
23.642	59.2839
23.728	59.4593
23.814	59.5839
23.9	59.6809
23.986	59.7982
24.072	59.9411
24.158	60.0585
24.244	60.0551
24.33	59.8428
24.416	59.4116
24.502	58.7847
24.588	58.0615
24.674	57.3591
24.76	56.7266
24.846	56.1356
24.932	55.4873
25.018	54.6608
25.104	53.5363
25.19	52.1367
25.276	50.6532
25.362	49.3775
25.448	48.7285
25.534	49.0147
25.62	50.2905
25.706	52.3319
25.792	54.7245
25.878	57.0566
25.964	59.093
26.05	60.9407
26.136	63.0202
26.222	65.9501
26.308	70.2699
26.394	76.0525
26.48	82.6708
26.566	88.8477
26.652	93.0663
26.738	94.1916
26.824	91.7986
26.91	86.3648
26.996	78.2034
27.028	75.6492