Folder: Masteroppgave/Bakgrunnsmateriale/MATLAB/FTIR/ftir_data/subBb/Mapping_121 (part 13)

File: C-4040-8_t24.asc
PE IR       SPECTRUM    SPECTRUM    ASCII       PEDS        1.60
  -1
C-BD2A~1.ASC
17/03/27
16:29:26.00
17/03/27
16:29:52.00
tln
$C-4040-8_t0024$<tbV0>[10.4,-7.8,8.0,0.0,27,1,0]
27.028
64

2002,4.07
MIRTGS : RIGHTBACK : INTERNAL 2
MIR : ON : INTERNAL 2
OPTKBR

0.200000
8
8.000000
FILLER
RATIO
SPECTRUM
UNLOCKED 256

DOUBLE
64
COMBINED
1
0
0

0.002000
RATIO

1
0
TRUE
51149
0
LEFT NOT FITTED RIGHT NOT FITTED 0
NONE
NONE
15600
12
4.427000
51148
TRUE
1 0 8 72 0 0 0 0

15798

#HDR
-1
-1
#GR
µM
%T
2.38419e-05
0.0
2.000000
0.002000
12515
8
104.478
50.4745
#DATA
2.000000	 65.1317
2.084000	 65.1415
2.168000	 64.9861
2.252000	 65.8597
2.336000	 65.3205
2.420000	 65.1457
2.504000	 64.9548
2.588000	 65.2251
2.672000	 65.1733
2.756000	 65.093
2.840000	 65.2255
2.924000	 64.9902
3.008000	 65.2045
3.092000	 65.2537
3.176000	 65.0846
3.260000	 65.2434
3.344000	 65.3508
3.428000	 64.823
3.512000	 64.8686
3.596000	 65.3989
3.680000	 65.3434
3.764000	 65.4007
3.848000	 65.2942
3.932000	 65.4837
4.016000	 65.104
4.100000	 65.3509
4.184000	 65.3644
4.268000	 65.3846
4.352000	 65.3239
4.436000	 65.2467
4.520000	 65.3457
4.604000	 65.3501
4.688000	 65.4783
4.772000	 65.3568
4.856000	 65.4292
4.940000	 65.4259
5.024000	 65.4503
5.108000	 65.4557
5.192000	 65.3839
5.276000	 65.3393
5.359999	 65.3534
5.444000	 65.4775
5.528000	 65.3382
5.612000	 65.4081
5.696000	 65.3246
5.780000	 65.131
5.864000	 65.3562
5.948000	 65.3445
6.032000	 65.368
6.116000	 65.4146
6.200000	 65.3278
6.284000	 65.3881
6.368000	 65.171
6.452000	 65.202
6.536000	 65.2332
6.620000	 65.2
6.704000	 65.2065
6.788000	 65.196
6.872000	 65.3982
6.956000	 65.4546
7.040000	 65.3538
7.124000	 65.1646
7.208000	 65.143
7.292000	 65.0921
7.376000	 65.3573
7.460000	 65.1399
7.544000	 65.1406
7.628000	 65.1221
7.712000	 65.228
7.796000	 65.1849
7.880000	 65.2292
7.964000	 65.4294
8.048000	 65.1893
8.132000	 65.255
8.216000	 65.1789
8.300000	 65.173
8.384000	 65.1401
8.468000	 65.2063
8.552000	 65.0204
8.635999	 65.1854
8.719999	 65.1899
8.804000	 65.3016
8.888000	 65.2528
8.972000	 65.1506
9.056000	 65.2837
9.140000	 65.4737
9.224000	 65.4917
9.308000	 65.0211
9.391999	 64.9781
9.475999	 65.1543
9.560000	 65.1071
9.644000	 65.0539
9.728000	 65.3374
9.812000	 65.5561
9.896000	 65.0943
9.980000	 64.7921
10.064	65.0538
10.148	64.9399
10.232	65.1871
10.316	64.951
10.4	64.8011
10.484	65.3727
10.568	65.3618
10.652	65.0751
10.736	64.9623
10.82	65.1136
10.904	65.2147
10.988	65.1888
11.072	65.3015
11.156	65.2883
11.24	65.2552
11.324	65.2102
11.408	64.9198
11.492	64.8974
11.576	65.0644
11.66	65.0074
11.744	65.0806
11.828	65.2361
11.912	65.1795
11.996	65.2015
12.08	65.0596
12.164	64.8146
12.248	64.7887
12.332	64.8321
12.416	65.0127
12.5	65.2183
12.584	65.2967
12.668	65.2131
12.752	65.113
12.836	64.8552
12.92	64.7933
13.004	64.6749
13.088	64.6496
13.172	64.8797
13.256	64.9082
13.34	64.7649
13.424	64.684
13.508	64.8608
13.592	64.8926
13.676	64.8507
13.76	64.8641
13.844	64.8571
13.928	64.9564
14.012	65.0878
14.096	65.0876
14.18	64.9384
14.264	64.8248
14.348	64.6791
14.432	64.4186
14.516	64.3765
14.6	64.4774
14.684	64.3478
14.768	64.1865
14.852	64.4008
14.936	64.774
15.02	64.7246
15.104	64.366
15.188	64.2709
15.272	64.3814
15.356	64.3751
15.44	64.3054
15.524	64.2019
15.608	64.0876
15.692	64.1617
15.776	64.358
15.86	64.5123
15.944	64.6912
16.028	64.845
16.112	64.7965
16.196	64.5864
16.28	64.4349
16.364	64.4954
16.448	64.6433
16.532	64.5982
16.616	64.3852
16.7	64.3151
16.784	64.4376
16.868	64.5174
16.952	64.4802
17.036	64.4666
17.12	64.5297
17.204	64.5765
17.288	64.5669
17.372	64.5701
17.456	64.6122
17.54	64.5981
17.624	64.4576
17.708	64.2877
17.792	64.223
17.876	64.2263
17.96	64.1763
18.044	64.0979
18.128	64.1188
18.212	64.2642
18.296	64.42
18.38	64.4636
18.464	64.3607
18.548	64.1663
18.632	63.9804
18.716	63.8881
18.8	63.909
18.884	63.9934
18.968	64.0489
19.052	63.9868
19.136	63.8094
19.22	63.6437
19.304	63.6414
19.388	63.8378
19.472	64.1264
19.556	64.3542
19.64	64.4311
19.724	64.3504
19.808	64.1535
19.892	63.8862
19.976	63.5864
20.06	63.2821
20.144	63.0066
20.228	62.8102
20.312	62.7442
20.396	62.8221
20.48	62.9981
20.564	63.1906
20.648	63.3487
20.732	63.4778
20.816	63.6167
20.9	63.7768
20.984	63.931
21.068	64.0406
21.152	64.0955
21.236	64.1273
21.32	64.1887
21.404	64.3163
21.488	64.5014
21.572	64.6883
21.656	64.7929
21.74	64.7383
21.824	64.4944
21.908	64.0908
21.992	63.5992
22.076	63.1057
22.16	62.6748
22.244	62.3333
22.328	62.083
22.412	61.9176
22.496	61.8256
22.58	61.7758
22.664	61.7157
22.748	61.6051
22.832	61.4602
22.916	61.3455
23	61.2985
23.084	61.2738
23.168	61.1525
23.252	60.8289
23.336	60.2767
23.42	59.594
23.504	58.989
23.588	58.6521
23.672	58.6771
23.756	59.07
23.84	59.6826
23.924	60.3155
24.008	60.8103
24.092	61.078
24.176	61.0923
24.26	60.9556
24.344	60.8976
24.428	61.1152
24.512	61.5912
24.596	62.0395
24.68	62.0923
24.764	61.5697
24.848	60.6081
24.932	59.6195
25.016	59.1533
25.1	59.6728
25.184	61.8357
25.268	66.301
25.352	73.457
25.436	82.766
25.52	92.5235
25.604	100.385
25.688	104.25
25.772	103.34
25.856	98.5264
25.94	91.7478
26.024	85.2789
26.108	80.7735
26.192	79.0014
26.276	79.7922
26.36	82.3997
26.444	85.5494
26.528	87.8687
26.612	88.1858
26.696	85.9065
26.78	81.1803
26.864	74.9143
26.948	68.4998
27.028	63.7244

File: C-4040-8_t24_cm-1.asc
PE IR       SPECTRUM    SPECTRUM    ASCII       PEDS        1.60
  -1
C-9A6F~1.ASC
17/03/27
16:29:26.00
17/03/27
16:29:26.00
tln
$C-4040-8_t0024$<tbV0>[10.4,-7.8,8.0,0.0,27,1,0]
370
64

2002,4.07
MIRTGS : RIGHTBACK : INTERNAL 2
MIR : ON : INTERNAL 2
OPTKBR

0.200000
8
8.000000
FILLER
RATIO
SPECTRUM
UNLOCKED 256

DOUBLE
64
COMBINED
1
0
0

1.000000
RATIO

1
0
TRUE
51149
0
LEFT NOT FITTED RIGHT NOT FITTED 0
NONE
NONE
15600
12
4.427000
51148
TRUE
1 0 8 72 0 0 0 0

15798

#HDR
-1
-1
#GR
CM-1
%T
2.38419e-05
0.0
5000
-1.000000
4631
8
104.464
50.2246
#DATA
5000	65.1317
4984	64.7438
4968	64.7365
4952	65.6377
4936	65.4128
4920	65.0591
4904	65.6199
4888	65.3479
4872	65.3273
4856	64.8856
4840	64.8149
4824	65.3187
4808	64.8801
4792	65.3851
4776	64.8299
4760	65.0621
4744	64.8318
4728	64.5902
4712	65.0229
4696	64.7987
4680	64.6411
4664	65.1558
4648	64.6515
4632	64.8549
4616	64.8091
4600	65.0116
4584	64.7882
4568	65.214
4552	64.8996
4536	64.7324
4520	65.0296
4504	65.3401
4488	65.6498
4472	65.0783
4456	65.791
4440	65.8856
4424	65.221
4408	65.204
4392	66.0034
4376	50.7457
4360	65.9295
4344	66.0588
4328	65.4536
4312	65.7431
4296	65.662
4280	65.3102
4264	65.6317
4248	65.1655
4232	65.5747
4216	65.3376
4200	65.3398
4184	64.4402
4168	65.1935
4152	65.1719
4136	65.1205
4120	64.9635
4104	64.8599
4088	64.9026
4072	64.835
4056	64.9376
4040	65.1134
4024	65.1206
4008	64.9884
3992	64.9982
3976	65.0663
3960	65.0098
3944	65.135
3928	65.1319
3912	64.9883
3896	65.1673
3880	65.5396
3864	65.2245
3848	65.2055
3832	64.962
3816	65.0135
3800	65.0797
3784	65.0921
3768	65.1778
3752	65.1294
3736	65.1755
3720	65.0957
3704	65.1021
3688	65.0468
3672	65.1787
3656	65.275
3640	65.207
3624	65.0895
3608	65.2333
3592	65.1659
3576	65.167
3560	65.0684
3544	65.0686
3528	65.2545
3512	65.2103
3496	65.2617
3480	65.1443
3464	65.119
3448	65.36
3432	65.2846
3416	64.9234
3400	65.1229
3384	65.0967
3368	64.9573
3352	65.4355
3336	65.2721
3320	65.2383
3304	65.135
3288	65.2838
3272	65.2179
3256	65.1263
3240	65.2754
3224	65.1772
3208	65.1066
3192	65.3167
3176	65.3263
3160	65.1505
3144	65.1274
3128	65.4994
3112	65.5831
3096	65.2179
3080	65.3467
3064	65.195
3048	65.1514
3032	65.265
3016	65.3199
3000	65.0876
2984	65.3696
2968	65.3773
2952	65.0897
2936	65.1479
2920	64.857
2904	65.1865
2888	65.2105
2872	65.3217
2856	65.0427
2840	65.1895
2824	65.2339
2808	65.3005
2792	65.2933
2776	65.383
2760	65.3324
2744	65.3594
2728	65.4043
2712	65.2406
2696	65.2307
2680	65.2282
2664	65.4451
2648	65.391
2632	65.3733
2616	65.3523
2600	65.3043
2584	65.3769
2568	65.4052
2552	65.3815
2536	65.3915
2520	65.3113
2504	65.1062
2488	65.18
2472	65.3334
2456	65.3433
2440	65.38
2424	65.4293
2408	65.2452
2392	65.3501
2376	65.2827
2360	65.3293
2344	65.401
2328	65.1422
2312	65.3178
2296	65.3091
2280	65.3473
2264	65.1718
2248	65.2718
2232	65.304
2216	65.3091
2200	65.4269
2184	65.3934
2168	65.361
2152	65.4033
2136	65.4555
2120	65.5234
2104	65.3885
2088	65.3395
2072	65.2215
2056	65.4051
2040	65.4172
2024	65.4272
2008	65.4446
1992	65.4376
1976	65.382
1960	65.4564
1944	65.4249
1928	65.4066
1912	65.3611
1896	65.3306
1880	65.3717
1864	65.3537
1848	65.3421
1832	65.4253
1816	65.3363
1800	65.3833
1784	65.4084
1768	65.3625
1752	65.3059
1736	65.1631
1720	65.1218
1704	65.3589
1688	65.3989
1672	65.2722
1656	65.3479
1640	65.5013
1624	65.2449
1608	65.4742
1592	65.3881
1576	65.2588
1560	65.2574
1544	65.1603
1528	65.2395
1512	65.1942
1496	65.2071
1480	65.207
1464	65.1929
1448	65.4584
1432	65.34
1416	65.2614
1400	65.2133
1384	65.1899
1368	65.0941
1352	65.3592
1336	65.2644
1320	65.0963
1304	65.204
1288	65.0984
1272	65.248
1256	65.4351
1240	65.2136
1224	65.2993
1208	65.1676
1192	65.1353
1176	65.2043
1160	65.167
1144	65.2041
1128	65.2808
1112	65.1995
1096	65.4344
1080	65.3069
1064	64.9961
1048	65.1316
1032	65.2825
1016	65.5595
1000	64.9184
984	 65.0324
968	 64.8565
952	 65.4669
936	 65.0107
920	 65.2135
904	 65.2833
888	 65.2565
872	 64.8584
856	 64.9969
840	 65.1885
824	 64.8422
808	 64.9283
792	 65.2508
776	 64.7979
760	 64.8474
744	 64.7063
728	 64.8644
712	 65.1102
696	 64.619
680	 64.2881
664	 64.551
648	 64.3123
632	 64.4477
616	 64.4974
600	 64.3124
584	 64.5324
568	 64.4967
552	 64.1069
536	 63.941
520	 63.632
504	 64.0534
488	 63.0259
472	 64.1083
456	 63.9678
440	 61.6376
424	 58.6584
408	 61.5781
392	 91.4524
376	 88.3246
370	 63.7244

File: C-4040-8_t25.asc
PE IR       SPECTRUM    SPECTRUM    ASCII       PEDS        1.60
  -1
C-BD2E~1.ASC
17/03/27
16:34:03.00
17/03/27
16:34:29.00
tln
$C-4040-8_t0025$<tbV0>[7.8,-7.8,8.0,0.0,27,1,0]
27.028
64

2002,4.07
MIRTGS : RIGHTBACK : INTERNAL 2
MIR : ON : INTERNAL 2
OPTKBR

0.200000
8
8.000000
FILLER
RATIO
SPECTRUM
UNLOCKED 256

DOUBLE
64
COMBINED
1
0
0

0.002000
RATIO

1
0
TRUE
51149
0
LEFT NOT FITTED RIGHT NOT FITTED 0
NONE
NONE
15600
12
4.427000
51148
TRUE
1 0 8 72 0 0 0 0

15798

#HDR
-1
-1
#GR
µM
%T
2.38419e-05
0.0
2.000000
0.002000
12515
8
71.6589
2.845668
#DATA
2.000000	 62.5867
2.084000	 62.4927
2.168000	 62.0037
2.252000	 62.605
2.336000	 61.8306
2.420000	 61.1354
2.504000	 60.5152
2.588000	 60.1937
2.672000	 59.5385
2.756000	 58.8667
2.840000	 58.1729
2.924000	 57.394
3.008000	 56.7775
3.092000	 56.1382
3.176000	 55.3255
3.260000	 54.5232
3.344000	 53.8077
3.428000	 52.8433
3.512000	 52.2947
3.596000	 51.6222
3.680000	 50.9346
3.764000	 50.1832
3.848000	 49.4646
3.932000	 48.9064
4.016000	 48.1184
4.100000	 47.4061
4.184000	 46.8707
4.268000	 46.2609
4.352000	 45.567
4.436000	 45.1132
4.520000	 44.5822
4.604000	 43.8465
4.688000	 43.4062
4.772000	 42.9668
4.856000	 42.539
4.940000	 42.0301
5.024000	 41.6241
5.108000	 40.9518
5.192000	 40.6149
5.276000	 40.056
5.359999	 39.8067
5.444000	 39.3445
5.528000	 38.932
5.612000	 38.5716
5.696000	 38.1832
5.780000	 37.7171
5.864000	 37.3556
5.948000	 37.1067
6.032000	 36.8951
6.116000	 36.6265
6.200000	 36.2508
6.284000	 35.9327
6.368000	 35.6628
6.452000	 35.3847
6.536000	 35.0539
6.620000	 34.8403
6.704000	 34.5694
6.788000	 34.2609
6.872000	 34.0906
6.956000	 33.8375
7.040000	 33.5379
7.124000	 33.3469
7.208000	 33.1808
7.292000	 32.8566
7.376000	 32.673
7.460000	 32.5457
7.544000	 32.2994
7.628000	 32.1236
7.712000	 31.8992
7.796000	 31.6713
7.880000	 31.5938
7.964000	 31.6072
8.048000	 31.2049
8.132000	 31.0458
8.216000	 30.9109
8.300000	 30.6636
8.384000	 30.5591
8.468000	 30.4252
8.552000	 30.3154
8.635999	 30.113
8.719999	 30.0046
8.804000	 29.9552
8.888000	 29.7429
8.972000	 29.3474
9.056000	 29.1629
9.140000	 29.2014
9.224000	 29.0693
9.308000	 28.8247
9.391999	 28.7228
9.475999	 28.4136
9.560000	 28.6314
9.644000	 28.3787
9.728000	 28.4234
9.812000	 28.4025
9.896000	 27.6603
9.980000	 27.9657
10.064	27.9167
10.148	27.9206
10.232	27.8903
10.316	27.5945
10.4	27.3195
10.484	27.1321
10.568	27.6945
10.652	27.08
10.736	26.8609
10.82	26.6703
10.904	26.464
10.988	26.2559
11.072	26.0497
11.156	26.1655
11.24	26.1453
11.324	26.076
11.408	26.1
11.492	25.861
11.576	25.7336
11.66	25.6287
11.744	25.3855
11.828	25.1925
11.912	24.9401
11.996	24.9858
12.08	24.7973
12.164	24.7001
12.248	24.5084
12.332	24.3583
12.416	24.4036
12.5	24.2525
12.584	24.1992
12.668	24.1438
12.752	24.1672
12.836	23.99
12.92	23.7386
13.004	23.6613
13.088	23.6839
13.172	23.5291
13.256	23.3372
13.34	23.2983
13.424	23.1842
13.508	23.0583
13.592	22.9256
13.676	22.9725
13.76	23.034
13.844	23.0668
13.928	22.9747
14.012	22.5903
14.096	22.372
14.18	22.3114
14.264	22.2643
14.348	22.2585
14.432	22.1679
14.516	22.0769
14.6	21.9838
14.684	21.7736
14.768	21.5025
14.852	21.3291
14.936	21.3056
15.02	21.3433
15.104	21.3255
15.188	21.1508
15.272	20.8321
15.356	20.5328
15.44	20.4424
15.524	20.5274
15.608	20.5733
15.692	20.5566
15.776	20.5952
15.86	20.6254
15.944	20.4716
16.028	20.1279
16.112	19.7738
16.196	19.5805
16.28	19.5385
16.364	19.4867
16.448	19.3551
16.532	19.2607
16.616	19.2558
16.7	19.2373
16.784	19.2082
16.868	19.2688
16.952	19.3318
17.036	19.2267
17.12	19.01
17.204	18.8259
17.288	18.6271
17.372	18.332
17.456	18.0428
17.54	17.8824
17.624	17.8193
17.708	17.7744
17.792	17.723
17.876	17.6361
17.96	17.4842
18.044	17.3186
18.128	17.2464
18.212	17.3292
18.296	17.5333
18.38	17.7244
18.464	17.74
18.548	17.5282
18.632	17.2059
18.716	16.9393
18.8	16.7871
18.884	16.6982
18.968	16.6214
19.052	16.5565
19.136	16.5328
19.22	16.5687
19.304	16.6409
19.388	16.6894
19.472	16.6564
19.556	16.528
19.64	16.3465
19.724	16.1848
19.808	16.0999
19.892	16.0957
19.976	16.1148
20.06	16.0721
20.144	15.9295
20.228	15.7339
20.312	15.5632
20.396	15.4401
20.48	15.3188
20.564	15.1476
20.648	14.9342
20.732	14.7313
20.816	14.5752
20.9	14.4538
20.984	14.3446
21.068	14.2605
21.152	14.2489
21.236	14.3433
21.32	14.5324
21.404	14.7629
21.488	14.9625
21.572	15.0677
21.656	15.038
21.74	14.87
21.824	14.6013
21.908	14.3031
21.992	14.0493
22.076	13.877
22.16	13.77
22.244	13.6637
22.328	13.4936
22.412	13.2259
22.496	12.8898
22.58	12.5657
22.664	12.3476
22.748	12.2988
22.832	12.4131
22.916	12.6155
23	12.8241
23.084	12.977
23.168	13.0714
23.252	13.159
23.336	13.292
23.42	13.4777
23.504	13.6841
23.588	13.8644
23.672	14.01
23.756	14.1871
23.84	14.4439
23.924	14.8287
24.008	15.339
24.092	15.878
24.176	16.2954
24.26	16.4242
24.344	16.0839
24.428	15.1369
24.512	13.5303
24.596	11.3354
24.68	8.799766
24.764	6.339991
24.848	4.368579
24.932	3.222612
25.016	3.044998
25.1	3.737161
25.184	5.197439
25.268	7.442807
25.352	10.5944
25.436	14.8409
25.52	20.2125
25.604	26.4162
25.688	32.7054
25.772	38.0599
25.856	41.5513
25.94	42.5689
26.024	40.9968
26.108	37.2942
26.192	32.3268
26.276	27.0861
26.36	22.5641
26.444	19.2332
26.528	16.9643
26.612	15.3736
26.696	13.9036
26.78	12.034
26.864	9.524293
26.948	6.384585
27.028	2.845668

File: C-4040-8_t25_cm-1.asc
PE IR       SPECTRUM    SPECTRUM    ASCII       PEDS        1.60
  -1
C-9AEE~1.ASC
17/03/27
16:34:03.00
17/03/27
16:34:03.00
tln
$C-4040-8_t0025$<tbV0>[7.8,-7.8,8.0,0.0,27,1,0]
370
64

2002,4.07
MIRTGS : RIGHTBACK : INTERNAL 2
MIR : ON : INTERNAL 2
OPTKBR

0.200000
8
8.000000
FILLER
RATIO
SPECTRUM
UNLOCKED 256

DOUBLE
64
COMBINED
1
0
0

1.000000
RATIO

1
0
TRUE
51149
0
LEFT NOT FITTED RIGHT NOT FITTED 0
NONE
NONE
15600
12
4.427000
51148
TRUE
1 0 8 72 0 0 0 0

15798

#HDR
-1
-1
#GR
CM-1
%T
2.38419e-05
0.0
5000
-1.000000
4631
8
71.8786
2.845668
#DATA
5000	62.5867
4984	62.1202
4968	62.6762
4952	62.6169
4936	62.7156
4920	62.2955
4904	62.9748
4888	63.0726
4872	62.7228
4856	62.5887
4840	62.257
4824	62.8464
4808	62.4411
4792	62.6592
4776	62.2404
4760	62.4369
4744	62.1691
4728	62.2943
4712	62.2878
4696	62.3137
4680	61.953
4664	62.6378
4648	62.1508
4632	62.3738
4616	61.9731
4600	62.4827
4584	61.9027
4568	62.3807
4552	62.3036
4536	62.3647
4520	62.1633
4504	62.1051
4488	62.3783
4472	62.1067
4456	62.483
4440	62.5989
4424	62.3257
4408	61.802
4392	61.9316
4376	45.5762
4360	70.5231
4344	62.684
4328	62.1685
4312	62.3434
4296	62.1977
4280	61.8394
4264	61.7286
4248	61.831
4232	61.6611
4216	61.5404
4200	61.0531
4184	60.9817
4168	62.0617
4152	60.946
4136	61.4241
4120	60.7556
4104	60.7317
4088	60.7306
4072	60.6619
4056	60.5403
4040	60.6117
4024	60.6472
4008	60.4507
3992	60.5597
3976	60.792
3960	60.2776
3944	60.2711
3928	60.2033
3912	60.0819
3896	60.3359
3880	60.4509
3864	60.1937
3848	60.1372
3832	60.1541
3816	59.9522
3800	59.8659
3784	59.8203
3768	59.7171
3752	59.8161
3736	59.4652
3720	59.4349
3704	59.253
3688	59.2282
3672	58.9951
3656	58.992
3640	58.8175
3624	58.8125
3608	58.576
3592	58.8097
3576	58.4881
3560	58.3974
3544	58.2135
3528	58.2127
3512	58.072
3496	58.1515
3480	57.7736
3464	57.86
3448	57.9119
3432	57.8691
3416	57.3073
3400	57.3529
3384	57.299
3368	57.2105
3352	57.0156
3336	56.9353
3320	56.8093
3304	56.7587
3288	56.485
3272	56.3206
3256	56.2307
3240	56.2077
3224	55.8012
3208	55.6618
3192	55.6956
3176	55.613
3160	55.3793
3144	55.4129
3128	55.0879
3112	55.2797
3096	54.8675
3080	54.8912
3064	54.5602
3048	54.4329
3032	54.3509
3016	54.2216
3000	54.0328
2984	53.747
2968	53.6338
2952	53.4839
2936	53.184
2920	52.7941
2904	53.042
2888	52.7748
2872	52.6036
2856	52.2207
2840	52.3688
2824	52.1776
2808	52.0729
2792	51.7095
2776	51.525
2760	51.4113
2744	51.2315
2728	51.0243
2712	50.8307
2696	50.7463
2680	50.4338
2664	50.3322
2648	50.0948
2632	49.9925
2616	49.6517
2600	49.4716
2584	49.2123
2568	49.1889
2552	49.018
2536	48.7941
2520	48.6451
2504	48.2777
2488	48.0757
2472	47.8687
2456	47.7708
2440	47.4465
2424	47.7607
2408	47.0087
2392	46.8802
2376	46.733
2360	46.2447
2344	46.2588
2328	46.0286
2312	45.8436
2296	45.5263
2280	45.4112
2264	45.1062
2248	44.9973
2232	44.7614
2216	44.6545
2200	44.4566
2184	44.1235
2168	43.8605
2152	43.7444
2136	43.4486
2120	43.2752
2104	43.0133
2088	42.8311
2072	42.5335
2056	42.4165
2040	42.1363
2024	42.0262
2008	41.7226
1992	41.6423
1976	41.2158
1960	41.0289
1944	40.7771
1928	40.6599
1912	40.3705
1896	40.0636
1880	39.8826
1864	39.7848
1848	39.4551
1832	39.2953
1816	38.9278
1800	38.8099
1784	38.6129
1768	38.4293
1752	38.102
1736	37.802
1720	37.5262
1704	37.361
1688	37.1351
1672	37.0606
1656	36.8519
1640	36.6155
1624	36.437
1608	36.1947
1592	35.9405
1576	35.7588
1560	35.4992
1544	35.2838
1528	35.0253
1512	34.821
1496	34.6737
1480	34.3951
1464	34.028
1448	33.9847
1432	33.663
1416	33.5768
1400	33.2431
1384	33.1631
1368	32.7674
1352	32.663
1336	32.485
1320	32.2182
1304	32.0394
1288	31.8393
1272	31.6435
1256	31.6128
1240	31.1871
1224	31.0345
1208	30.7232
1192	30.5672
1176	30.3846
1160	30.1414
1144	29.9557
1128	29.8171
1112	29.2402
1096	29.2689
1080	29.0202
1064	28.7011
1048	28.7258
1032	28.3433
1016	28.0737
1000	28.0245
984	 27.9242
968	 27.6176
952	 27.3169
936	 26.9621
920	 26.5383
904	 26.0623
888	 26.0961
872	 25.9423
856	 25.5675
840	 24.9526
824	 24.7116
808	 24.3968
792	 24.1655
776	 23.8256
760	 23.5692
744	 23.1584
728	 23.0274
712	 22.4671
696	 22.2455
680	 21.7028
664	 21.3494
648	 20.4405
632	 20.6257
616	 19.5513
600	 19.2511
584	 19.0018
568	 17.8297
552	 17.2478
536	 17.116
520	 16.5769
504	 16.0904
488	 15.2984
472	 14.2743
456	 14.2304
440	 12.2937
424	 13.8585
408	 13.5802
392	 19.5358
376	 15.6597
370	 2.845668

File: C-4040-8_t26.asc
PE IR       SPECTRUM    SPECTRUM    ASCII       PEDS        1.60
  -1
C-BD22~1.ASC
17/03/27
16:38:40.00
17/03/27
16:39:06.00
tln
$C-4040-8_t0026$<tbV0>[5.2,-7.8,8.0,0.0,27,1,0]
27.028
64

2002,4.07
MIRTGS : RIGHTBACK : INTERNAL 2
MIR : ON : INTERNAL 2
OPTKBR

0.200000
8
8.000000
FILLER
RATIO
SPECTRUM
UNLOCKED 256

DOUBLE
64
COMBINED
1
0
0

0.002000
RATIO

1
0
TRUE
51149
0
LEFT NOT FITTED RIGHT NOT FITTED 0
NONE
NONE
15600
12
4.427000
51148
TRUE
1 0 8 72 0 0 0 0

15798

#HDR
-1
-1
#GR
µM
%T
2.38419e-05
0.0
2.000000
0.002000
12515
8
74.3162
-5.959939
#DATA
2.000000	 63.1969
2.084000	 62.7063
2.168000	 62.92
2.252000	 63.134
2.336000	 63.0208
2.420000	 61.9422
2.504000	 61.6698
2.588000	 61.0981
2.672000	 60.7929
2.756000	 60.0168
2.840000	 59.5555
2.924000	 59.0559
3.008000	 58.4073
3.092000	 57.7072
3.176000	 56.878
3.260000	 56.5543
3.344000	 55.7378
3.428000	 54.8859
3.512000	 54.3175
3.596000	 53.6694
3.680000	 53.1751
3.764000	 52.3277
3.848000	 51.7785
3.932000	 51.134
4.016000	 50.4412
4.100000	 49.945
4.184000	 49.372
4.268000	 48.8544
4.352000	 48.1088
4.436000	 47.6995
4.520000	 46.9911
4.604000	 46.6978
4.688000	 46.1541
4.772000	 45.6234
4.856000	 45.1597
4.940000	 44.7097
5.024000	 44.2494
5.108000	 43.7611
5.192000	 43.358
5.276000	 42.9913
5.359999	 42.5642
5.444000	 42.1718
5.528000	 41.6925
5.612000	 41.4003
5.696000	 41.0151
5.780000	 40.5468
5.864000	 40.3693
5.948000	 39.9542
6.032000	 39.7137
6.116000	 39.414
6.200000	 39.1558
6.284000	 38.8619
6.368000	 38.6041
6.452000	 38.2012
6.536000	 37.9941
6.620000	 37.726
6.704000	 37.4702
6.788000	 37.24
6.872000	 37.1082
6.956000	 36.855
7.040000	 36.4927
7.124000	 36.2071
7.208000	 36.1146
7.292000	 35.7455
7.376000	 35.6701
7.460000	 35.4436
7.544000	 35.1466
7.628000	 34.9213
7.712000	 34.8482
7.796000	 34.7479
7.880000	 34.4945
7.964000	 34.3057
8.048000	 34.085
8.132000	 33.834
8.216000	 33.7076
8.300000	 33.7242
8.384000	 33.4499
8.468000	 33.0831
8.552000	 33.012
8.635999	 32.9508
8.719999	 32.7146
8.804000	 32.6776
8.888000	 32.531
8.972000	 32.331
9.056000	 32.3499
9.140000	 32.0882
9.224000	 32.1207
9.308000	 31.594
9.391999	 31.9206
9.475999	 31.8557
9.560000	 31.4812
9.644000	 31.4696
9.728000	 31.0042
9.812000	 31.147
9.896000	 30.8723
9.980000	 30.6229
10.064	30.0663
10.148	30.6517
10.232	30.5128
10.316	30.2063
10.4	30.1042
10.484	29.8738
10.568	29.7248
10.652	29.6165
10.736	29.4862
10.82	29.2583
10.904	29.2633
10.988	29.0654
11.072	28.9858
11.156	28.9032
11.24	28.7044
11.324	28.7643
11.408	28.7563
11.492	28.4999
11.576	28.2359
11.66	28.1134
11.744	27.9613
11.828	28.031
11.912	28.0343
11.996	27.7922
12.08	27.5625
12.164	27.3472
12.248	27.2104
12.332	27.1311
12.416	27.1914
12.5	26.9655
12.584	26.8575
12.668	27.0018
12.752	26.6797
12.836	26.4286
12.92	26.2915
13.004	26.15
13.088	26.3413
13.172	26.3165
13.256	25.7407
13.34	25.2801
13.424	25.4518
13.508	25.5143
13.592	25.5118
13.676	25.5701
13.76	25.2514
13.844	24.8348
13.928	24.8329
14.012	24.9479
14.096	24.917
14.18	24.8582
14.264	24.741
14.348	24.5451
14.432	24.4652
14.516	24.4733
14.6	24.2109
14.684	23.94
14.768	23.9446
14.852	23.9033
14.936	23.8003
15.02	23.7369
15.104	23.6174
15.188	23.4711
15.272	23.3266
15.356	23.1524
15.44	22.9672
15.524	22.8026
15.608	22.6368
15.692	22.3712
15.776	22.0785
15.86	22.0081
15.944	22.1551
16.028	22.3114
16.112	22.4278
16.196	22.5339
16.28	22.5481
16.364	22.3782
16.448	22.1043
16.532	21.9202
16.616	21.8546
16.7	21.7665
16.784	21.6264
16.868	21.5184
16.952	21.4539
17.036	21.379
17.12	21.2755
17.204	21.1784
17.288	21.1565
17.372	21.2217
17.456	21.237
17.54	21.0454
17.624	20.7143
17.708	20.4686
17.792	20.3753
17.876	20.2655
17.96	20.0063
18.044	19.6846
18.128	19.4783
18.212	19.4407
18.296	19.482
18.38	19.4978
18.464	19.4592
18.548	19.3978
18.632	19.3352
18.716	19.2431
18.8	19.0907
18.884	18.9253
18.968	18.8647
19.052	18.9706
19.136	19.1471
19.22	19.2145
19.304	19.0866
19.388	18.8483
19.472	18.6472
19.556	18.5492
19.64	18.5138
19.724	18.4764
19.808	18.4074
19.892	18.2927
19.976	18.109
20.06	17.8586
20.144	17.6062
20.228	17.447
20.312	17.4194
20.396	17.4604
20.48	17.4555
20.564	17.3432
20.648	17.1668
20.732	17.0266
20.816	16.9775
20.9	16.9829
20.984	16.961
21.068	16.8588
21.152	16.6937
21.236	16.5206
21.32	16.3802
21.404	16.2876
21.488	16.2512
21.572	16.2921
21.656	16.4166
21.74	16.589
21.824	16.7441
21.908	16.8281
21.992	16.8236
22.076	16.7356
22.16	16.5563
22.244	16.2484
22.328	15.7944
22.412	15.2398
22.496	14.7226
22.58	14.4102
22.664	14.4167
22.748	14.7437
22.832	15.2936
22.916	15.9097
23	16.4254
23.084	16.7093
23.168	16.6913
23.252	16.3835
23.336	15.8676
23.42	15.283
23.504	14.7942
23.588	14.5424
23.672	14.6164
23.756	15.0423
23.84	15.7334
23.924	16.5211
24.008	17.1911
24.092	17.5251
24.176	17.3884
24.26	16.7987
24.344	15.96
24.428	15.1566
24.512	14.6057
24.596	14.3229
24.68	14.1588
24.764	13.9211
24.848	13.4537
24.932	12.737
25.016	11.9369
25.1	11.2812
25.184	11.1942
25.268	12.156
25.352	14.5124
25.436	18.183
25.52	22.5852
25.604	26.8909
25.688	30.1848
25.772	32.0051
25.856	32.606
25.94	32.6439
26.024	32.825
26.108	33.4936
26.192	34.6991
26.276	36.1814
26.36	37.6634
26.444	38.4523
26.528	37.6108
26.612	34.2074
26.696	27.8553
26.78	19.0596
26.864	9.313210
26.948	0.468560
27.028	-5.959939