Folder: Masteroppgave/Bakgrunnsmateriale/MATLAB/FTIR/ftir_data/subBb/Mapping_121 (part 21)

File: C-4040-8_t44.asc
PE IR       SPECTRUM    SPECTRUM    ASCII       PEDS        1.60
  -1
C-B53A~1.ASC
17/03/27
18:02:21.00
17/03/27
18:02:47.00
tln
$C-4040-8_t0044$<tbV0>[-13.0,-5.2,8.0,0.0,27,1,0]
27.028
64

2002,4.07
MIRTGS : RIGHTBACK : INTERNAL 2
MIR : ON : INTERNAL 2
OPTKBR

0.200000
8
8.000000
FILLER
RATIO
SPECTRUM
UNLOCKED 256

DOUBLE
64
COMBINED
1
0
0

0.002000
RATIO

1
0
TRUE
51149
0
LEFT NOT FITTED RIGHT NOT FITTED 0
NONE
NONE
15600
12
4.427000
51148
TRUE
1 0 8 72 0 0 0 0

15798

#HDR
-1
-1
#GR
µM
%T
2.38419e-05
0.0
2.000000
0.002000
12515
8
77.6732
26.0158
#DATA
2.000000	 64.718
2.084000	 65.0261
2.168000	 64.8057
2.252000	 65.4981
2.336000	 65.2474
2.420000	 65.3624
2.504000	 64.9516
2.588000	 65.0194
2.672000	 65.1862
2.756000	 65.2291
2.840000	 65.2713
2.924000	 65.0604
3.008000	 65.1607
3.092000	 65.3575
3.176000	 65.2465
3.260000	 65.2464
3.344000	 65.2972
3.428000	 64.9301
3.512000	 65.2225
3.596000	 65.4196
3.680000	 65.2276
3.764000	 65.3246
3.848000	 65.2075
3.932000	 65.3587
4.016000	 65.1419
4.100000	 64.9772
4.184000	 65.407
4.268000	 65.1446
4.352000	 65.2165
4.436000	 65.2705
4.520000	 65.2967
4.604000	 65.3932
4.688000	 65.3812
4.772000	 65.3098
4.856000	 65.0801
4.940000	 65.3191
5.024000	 65.4368
5.108000	 65.4277
5.192000	 65.4153
5.276000	 65.309
5.359999	 65.3872
5.444000	 65.329
5.528000	 65.3218
5.612000	 65.1631
5.696000	 65.3771
5.780000	 65.2177
5.864000	 65.3238
5.948000	 65.2716
6.032000	 65.2355
6.116000	 65.3222
6.200000	 65.3756
6.284000	 65.327
6.368000	 65.1225
6.452000	 65.0942
6.536000	 65.067
6.620000	 65.1953
6.704000	 65.2615
6.788000	 65.117
6.872000	 65.3484
6.956000	 65.1464
7.040000	 65.197
7.124000	 65.0499
7.208000	 65.0716
7.292000	 64.9641
7.376000	 65.0736
7.460000	 65.1515
7.544000	 65.1899
7.628000	 65.0758
7.712000	 65.1173
7.796000	 64.9995
7.880000	 65.1165
7.964000	 65.0173
8.048000	 65.1032
8.132000	 65.1085
8.216000	 65.0658
8.300000	 65.0489
8.384000	 64.9384
8.468000	 64.908
8.552000	 65.0782
8.635999	 64.9375
8.719999	 64.9186
8.804000	 64.8248
8.888000	 64.9032
8.972000	 64.7144
9.056000	 65.4763
9.140000	 65.352
9.224000	 64.8607
9.308000	 64.8111
9.391999	 64.6943
9.475999	 64.8134
9.560000	 65.2918
9.644000	 65.2167
9.728000	 65.0498
9.812000	 65.2845
9.896000	 65.1724
9.980000	 64.9654
10.064	64.7628
10.148	65.1766
10.232	64.8803
10.316	64.9407
10.4	64.651
10.484	64.9065
10.568	65.1592
10.652	64.6637
10.736	64.6989
10.82	64.7354
10.904	65.0044
10.988	64.828
11.072	64.8748
11.156	64.8251
11.24	64.8419
11.324	64.7085
11.408	64.6473
11.492	64.7821
11.576	64.7444
11.66	64.8873
11.744	64.8387
11.828	64.7932
11.912	64.5683
11.996	64.6363
12.08	64.6063
12.164	64.4563
12.248	64.4398
12.332	64.3067
12.416	64.5011
12.5	64.5751
12.584	64.514
12.668	64.5199
12.752	64.3597
12.836	64.2703
12.92	64.1607
13.004	64.1407
13.088	64.1638
13.172	63.504
13.256	62.9691
13.34	63.5209
13.424	63.9192
13.508	63.6356
13.592	63.9517
13.676	64.3427
13.76	64.2105
13.844	63.9698
13.928	63.7374
14.012	63.6098
14.096	63.7301
14.18	63.8976
14.264	63.8183
14.348	63.5112
14.432	63.4376
14.516	63.6076
14.6	63.6397
14.684	63.5567
14.768	63.4228
14.852	63.362
14.936	63.4241
15.02	63.3328
15.104	63.1935
15.188	63.265
15.272	63.3109
15.356	63.209
15.44	63.1802
15.524	63.2166
15.608	63.1749
15.692	63.1021
15.776	63.0616
15.86	63.0494
15.944	63.1324
16.028	63.3496
16.112	63.4704
16.196	63.2496
16.28	62.8944
16.364	62.7767
16.448	62.8895
16.532	63.0471
16.616	63.1771
16.7	63.2192
16.784	63.1814
16.868	63.2037
16.952	63.2984
17.036	63.2891
17.12	63.1148
17.204	62.907
17.288	62.7772
17.372	62.7316
17.456	62.725
17.54	62.6857
17.624	62.5682
17.708	62.4324
17.792	62.3918
17.876	62.4722
17.96	62.5822
18.044	62.6567
18.128	62.7416
18.212	62.8617
18.296	62.9065
18.38	62.7552
18.464	62.4581
18.548	62.1911
18.632	62.0617
18.716	62.066
18.8	62.1847
18.884	62.3959
18.968	62.6171
19.052	62.7345
19.136	62.697
19.22	62.5455
19.304	62.365
19.388	62.2414
19.472	62.2465
19.556	62.3868
19.64	62.5736
19.724	62.7014
19.808	62.7363
19.892	62.6921
19.976	62.5652
20.06	62.3379
20.144	62.0244
20.228	61.6876
20.312	61.4042
20.396	61.2205
20.48	61.1465
20.564	61.1636
20.648	61.2253
20.732	61.261
20.816	61.2173
20.9	61.0933
20.984	60.9358
21.068	60.8059
21.152	60.7591
21.236	60.8325
21.32	61.0255
21.404	61.2866
21.488	61.5203
21.572	61.6208
21.656	61.521
21.74	61.2244
21.824	60.8035
21.908	60.3713
21.992	60.033
22.076	59.849
22.16	59.8179
22.244	59.8755
22.328	59.9419
22.412	59.978
22.496	59.9987
22.58	60.0466
22.664	60.1285
22.748	60.1772
22.832	60.0993
22.916	59.8148
23	59.3518
23.084	58.8186
23.168	58.3833
23.252	58.192
23.336	58.3134
23.42	58.6944
23.504	59.2323
23.588	59.7805
23.672	60.1868
23.756	60.3426
23.84	60.1671
23.924	59.5544
24.008	58.4515
24.092	56.932
24.176	55.1389
24.26	53.2005
24.344	51.2091
24.428	49.2104
24.512	47.2179
24.596	45.2707
24.68	43.4657
24.764	41.9677
24.848	41.0439
24.932	41.0985
25.016	42.5232
25.1	45.541
25.184	50.0902
25.268	55.6425
25.352	61.2361
25.436	65.2283
25.52	65.9019
25.604	62.2631
25.688	54.5186
25.772	44.4396
25.856	34.7928
25.94	28.1608
26.024	26.0172
26.108	28.0965
26.192	33.1893
26.276	39.8766
26.36	47.1461
26.444	54.4783
26.528	61.6647
26.612	68.1596
26.696	73.3206
26.78	76.5576
26.864	77.6687
26.948	76.9536
27.028	75.187

File: C-4040-8_t44_cm-1.asc
PE IR       SPECTRUM    SPECTRUM    ASCII       PEDS        1.60
  -1
C-9B6F~1.ASC
17/03/27
18:02:21.00
17/03/27
18:02:21.00
tln
$C-4040-8_t0044$<tbV0>[-13.0,-5.2,8.0,0.0,27,1,0]
370
64

2002,4.07
MIRTGS : RIGHTBACK : INTERNAL 2
MIR : ON : INTERNAL 2
OPTKBR

0.200000
8
8.000000
FILLER
RATIO
SPECTRUM
UNLOCKED 256

DOUBLE
64
COMBINED
1
0
0

1.000000
RATIO

1
0
TRUE
51149
0
LEFT NOT FITTED RIGHT NOT FITTED 0
NONE
NONE
15600
12
4.427000
51148
TRUE
1 0 8 72 0 0 0 0

15798

#HDR
-1
-1
#GR
CM-1
%T
2.38419e-05
0.0
5000
-1.000000
4631
8
77.6596
26.1243
#DATA
5000	64.718
4984	64.2763
4968	65.0281
4952	65.1168
4936	64.8528
4920	64.6432
4904	65.0775
4888	64.7627
4872	65.4465
4856	64.6413
4840	64.8615
4824	65.1415
4808	65.1317
4792	65.0103
4776	64.9044
4760	64.8937
4744	65.1804
4728	64.7973
4712	65.3264
4696	64.7364
4680	64.8459
4664	64.8065
4648	65.1318
4632	64.8584
4616	64.9772
4600	64.6778
4584	65.0124
4568	64.8126
4552	65.1394
4536	64.9911
4520	64.6384
4504	64.9227
4488	64.9556
4472	65.1142
4456	65.5203
4440	65.4959
4424	64.4824
4408	65.0627
4392	65.3902
4376	66.6125
4360	60.2813
4344	65.6901
4328	64.8646
4312	65.0303
4296	65.4874
4280	65.2344
4264	65.3335
4248	64.781
4232	65.164
4216	64.9983
4200	65.0797
4184	65.1293
4168	64.7188
4152	65.2447
4136	65.41
4120	65.1184
4104	64.9318
4088	65.0368
4072	65.1195
4056	64.7836
4040	65.0485
4024	65.1769
4008	65.0737
3992	64.9612
3976	64.9957
3960	65.1771
3944	64.8362
3928	65.1871
3912	64.9406
3896	65.1057
3880	65.2809
3864	65.0192
3848	65.0378
3832	64.8797
3816	65.0464
3800	65.1979
3784	65.1964
3768	65.0964
3752	65.2312
3736	65.1059
3720	65.3286
3704	65.1318
3688	65.0058
3672	65.0816
3656	64.993
3640	65.1323
3624	65.2466
3608	65.0597
3592	65.1394
3576	65.0895
3560	65.1049
3544	65.1141
3528	65.0286
3512	65.3798
3496	65.3541
3480	65.0354
3464	65.1045
3448	65.2507
3432	65.3808
3416	65.1854
3400	64.9764
3384	65.2484
3368	65.2967
3352	65.284
3336	65.1907
3320	65.2222
3304	65.2369
3288	65.1186
3272	65.1325
3256	65.1512
3240	65.4577
3224	65.2652
3208	64.9634
3192	65.2721
3176	65.2449
3160	65.0024
3144	65.2142
3128	65.5042
3112	65.1853
3096	65.1248
3080	65.2893
3064	65.1745
3048	65.0773
3032	65.243
3016	65.1619
3000	65.1091
2984	65.2383
2968	65.1977
2952	65.1629
2936	65.1428
2920	64.9359
2904	65.2226
2888	65.3035
2872	65.1111
2856	65.1951
2840	65.1736
2824	65.2469
2808	65.2983
2792	65.1795
2776	65.4397
2760	65.3103
2744	65.2698
2728	65.2554
2712	65.3592
2696	65.29
2680	65.126
2664	65.3131
2648	65.293
2632	65.3402
2616	65.1878
2600	65.2061
2584	65.3308
2568	65.1174
2552	65.3171
2536	65.3754
2520	65.2997
2504	65.2142
2488	65.1728
2472	65.1934
2456	65.3305
2440	65.0235
2424	65.3415
2408	65.2874
2392	65.4032
2376	65.1936
2360	65.3842
2344	65.1418
2328	65.2814
2312	65.3463
2296	65.2045
2280	65.258
2264	65.2611
2248	65.3978
2232	65.3707
2216	65.2327
2200	65.3463
2184	65.4432
2168	65.4675
2152	64.8576
2136	65.3653
2120	65.3225
2104	65.3312
2088	65.4493
2072	65.5317
2056	65.3653
2040	65.2486
2024	65.3126
2008	65.4132
1992	65.4542
1976	65.2622
1960	65.3645
1944	65.3013
1928	65.4287
1912	65.2737
1896	65.3061
1880	65.2982
1864	65.4088
1848	65.2121
1832	65.4705
1816	65.3298
1800	65.3634
1784	65.1454
1768	65.2614
1752	65.3423
1736	65.2389
1720	65.0503
1704	65.3189
1688	65.323
1672	65.2704
1656	65.2424
1640	65.2498
1624	65.3144
1608	65.3658
1592	65.323
1576	65.0706
1560	65.0547
1544	65.1553
1528	65.1052
1512	65.1513
1496	65.3869
1480	65.2531
1464	65.0479
1448	65.3328
1432	65.2829
1416	65.261
1400	65.0567
1384	65.0206
1368	64.9282
1352	65.0948
1336	65.325
1320	65.1888
1304	65.1967
1288	65.096
1272	65.1065
1256	65.0237
1240	65.0791
1224	65.0987
1208	65.066
1192	64.9246
1176	65.0045
1160	64.9862
1144	64.9571
1128	64.913
1112	64.9943
1096	65.3221
1080	64.6804
1064	64.6563
1048	65.2358
1032	65.2015
1016	65.366
1000	64.9086
984	 65.2044
968	 64.9009
952	 65.0172
936	 64.5666
920	 64.8853
904	 64.8684
888	 64.8108
872	 64.7491
856	 64.9068
840	 64.5863
824	 64.4639
808	 64.3764
792	 64.532
776	 64.2177
760	 63.6503
744	 63.8754
728	 64.2773
712	 63.6317
696	 63.4578
680	 63.526
664	 63.2466
648	 63.1775
632	 63.0495
616	 63.0797
600	 63.2165
584	 63.1064
568	 62.5994
552	 62.7263
536	 62.0505
520	 62.5222
504	 62.7276
488	 61.1441
472	 60.7735
456	 60.2708
440	 60.173
424	 59.7623
408	 47.2697
392	 66.0414
376	 66.9924
370	 75.187

File: C-4040-8_t45.asc
PE IR       SPECTRUM    SPECTRUM    ASCII       PEDS        1.60
  -1
C-B53E~1.ASC
17/03/27
18:13:55.00
17/03/27
18:14:21.00
tln
$C-4040-8_t0045$<tbV0>[13.0,-2.6,8.0,0.0,27,1,0]
27.028
64

2002,4.07
MIRTGS : RIGHTBACK : INTERNAL 2
MIR : ON : INTERNAL 2
OPTKBR

0.200000
8
8.000000
FILLER
RATIO
SPECTRUM
UNLOCKED 256

DOUBLE
64
COMBINED
1
0
0

0.002000
RATIO

1
0
TRUE
51149
0
LEFT NOT FITTED RIGHT NOT FITTED 0
NONE
NONE
15600
12
4.427000
51148
TRUE
1 0 8 72 0 0 0 0

15798

#HDR
-1
-1
#GR
µM
%T
2.38419e-05
0.0
2.000000
0.002000
12515
8
75.8802
-14.9779
#DATA
2.000000	 64.9082
2.084000	 64.6505
2.168000	 64.4477
2.252000	 64.9819
2.336000	 65.5262
2.420000	 65.0171
2.504000	 64.929
2.588000	 65.158
2.672000	 65.2544
2.756000	 65.1547
2.840000	 65.0663
2.924000	 65.1053
3.008000	 65.5314
3.092000	 65.125
3.176000	 65.3533
3.260000	 65.1487
3.344000	 65.1968
3.428000	 64.9052
3.512000	 65.0332
3.596000	 65.1287
3.680000	 65.2062
3.764000	 65.332
3.848000	 65.2735
3.932000	 65.4087
4.016000	 65.0717
4.100000	 65.3674
4.184000	 65.1532
4.268000	 65.1492
4.352000	 65.3363
4.436000	 65.3261
4.520000	 65.3529
4.604000	 65.1255
4.688000	 65.3192
4.772000	 65.3936
4.856000	 65.2128
4.940000	 65.4608
5.024000	 65.343
5.108000	 65.1694
5.192000	 65.2919
5.276000	 65.312
5.359999	 65.3049
5.444000	 65.414
5.528000	 65.3885
5.612000	 65.2922
5.696000	 65.0909
5.780000	 64.9259
5.864000	 65.1945
5.948000	 65.3079
6.032000	 65.1973
6.116000	 64.9828
6.200000	 65.1205
6.284000	 65.0307
6.368000	 65.2188
6.452000	 65.0772
6.536000	 64.9974
6.620000	 65.0468
6.704000	 65.0398
6.788000	 65.046
6.872000	 64.5379
6.956000	 64.8414
7.040000	 65.1041
7.124000	 64.8656
7.208000	 65.143
7.292000	 64.8855
7.376000	 64.9595
7.460000	 64.9193
7.544000	 64.9072
7.628000	 64.9995
7.712000	 65.0913
7.796000	 64.9852
7.880000	 64.9925
7.964000	 64.938
8.048000	 64.9546
8.132000	 64.8565
8.216000	 64.9694
8.300000	 64.9196
8.384000	 65.0478
8.468000	 64.8868
8.552000	 64.8113
8.635999	 64.8997
8.719999	 64.8118
8.804000	 64.1876
8.888000	 64.9597
8.972000	 65.1728
9.056000	 64.506
9.140000	 64.4507
9.224000	 65.0496
9.308000	 64.3061
9.391999	 65.0751
9.475999	 65.0197
9.560000	 64.8811
9.644000	 64.7914
9.728000	 65.0426
9.812000	 64.0397
9.896000	 64.7076
9.980000	 64.6605
10.064	64.8133
10.148	64.6765
10.232	64.5406
10.316	64.446
10.4	64.6872
10.484	64.7171
10.568	64.5683
10.652	64.4238
10.736	64.4614
10.82	64.5199
10.904	64.5941
10.988	64.3393
11.072	64.2889
11.156	64.1988
11.24	64.3109
11.324	64.4983
11.408	64.2481
11.492	64.3704
11.576	64.5943
11.66	64.3462
11.744	64.1834
11.828	63.8349
11.912	64.0621
11.996	64.3839
12.08	64.0992
12.164	64.0833
12.248	64.1805
12.332	64.3629
12.416	64.1652
12.5	63.8081
12.584	63.5919
12.668	63.4926
12.752	63.7024
12.836	64.0132
12.92	64.1136
13.004	63.8978
13.088	63.8073
13.172	63.758
13.256	63.7811
13.34	64.3088
13.424	63.97
13.508	63.5108
13.592	63.9157
13.676	64.117
13.76	63.6157
13.844	63.2119
13.928	63.3884
14.012	63.6173
14.096	63.4488
14.18	63.3244
14.264	63.4369
14.348	63.3629
14.432	63.1038
14.516	62.9064
14.6	62.8259
14.684	62.8225
14.768	62.8217
14.852	62.8043
14.936	62.7553
15.02	62.5934
15.104	62.4836
15.188	62.6776
15.272	62.9659
15.356	62.9375
15.44	62.5458
15.524	62.1333
15.608	61.9947
15.692	62.0892
15.776	62.2594
15.86	62.4071
15.944	62.4777
16.028	62.4876
16.112	62.5084
16.196	62.5775
16.28	62.6638
16.364	62.7388
16.448	62.8153
16.532	62.8318
16.616	62.6704
16.7	62.3768
16.784	62.1327
16.868	61.9871
16.952	61.8562
17.036	61.7686
17.12	61.786
17.204	61.7625
17.288	61.5679
17.372	61.3686
17.456	61.3804
17.54	61.5481
17.624	61.6882
17.708	61.7352
17.792	61.7036
17.876	61.6112
17.96	61.4969
18.044	61.4302
18.128	61.4633
18.212	61.5511
18.296	61.5439
18.38	61.336
18.464	61.0134
18.548	60.783
18.632	60.7366
18.716	60.7791
18.8	60.8003
18.884	60.8054
18.968	60.8212
19.052	60.7798
19.136	60.6041
19.22	60.3621
19.304	60.2318
19.388	60.3072
19.472	60.501
19.556	60.6316
19.64	60.5884
19.724	60.4065
19.808	60.2032
19.892	60.0663
19.976	60.0148
20.06	60.0375
20.144	60.1298
20.228	60.2787
20.312	60.4289
20.396	60.491
20.48	60.3974
20.564	60.1527
20.648	59.8304
20.732	59.5245
20.816	59.3045
20.9	59.1924
20.984	59.1806
21.068	59.239
21.152	59.3227
21.236	59.3867
21.32	59.4002
21.404	59.3639
21.488	59.2962
21.572	59.2104
21.656	59.1098
21.74	58.9931
21.824	58.8673
21.908	58.74
21.992	58.5928
22.076	58.3791
22.16	58.0498
22.244	57.6058
22.328	57.1399
22.412	56.8081
22.496	56.7587
22.58	57.0455
22.664	57.6042
22.748	58.2525
22.832	58.779
22.916	59.0342
23	58.9522
23.084	58.56
23.168	57.9604
23.252	57.2686
23.336	56.5862
23.42	56.0376
23.504	55.7483
23.588	55.8167
23.672	56.2626
23.756	56.9639
23.84	57.6815
23.924	58.1515
24.008	58.1969
24.092	57.8348
24.176	57.3552
24.26	57.2721
24.344	58.1653
24.428	60.298
24.512	63.3941
24.596	66.5488
24.68	68.597
24.764	68.6921
24.848	66.6209
24.932	62.7963
25.016	58.064
25.1	53.3037
25.184	49.3405
25.268	46.7483
25.352	45.8483
25.436	46.6366
25.52	48.8165
25.604	51.9601
25.688	55.5699
25.772	59.2874
25.856	62.9448
25.94	66.4324
26.024	69.4142
26.108	71.172
26.192	70.7052
26.276	66.9625
26.36	59.2353
26.444	47.5829
26.528	33.0486
26.612	17.4309
26.696	3.021464
26.78	-7.926987
26.864	-13.9339
26.948	-14.6698
27.028	-11.3379

File: C-4040-8_t45_cm-1.asc
PE IR       SPECTRUM    SPECTRUM    ASCII       PEDS        1.60
  -1
C-9BEE~1.ASC
17/03/27
18:13:55.00
17/03/27
18:13:55.00
tln
$C-4040-8_t0045$<tbV0>[13.0,-2.6,8.0,0.0,27,1,0]
370
64

2002,4.07
MIRTGS : RIGHTBACK : INTERNAL 2
MIR : ON : INTERNAL 2
OPTKBR

0.200000
8
8.000000
FILLER
RATIO
SPECTRUM
UNLOCKED 256

DOUBLE
64
COMBINED
1
0
0

1.000000
RATIO

1
0
TRUE
51149
0
LEFT NOT FITTED RIGHT NOT FITTED 0
NONE
NONE
15600
12
4.427000
51148
TRUE
1 0 8 72 0 0 0 0

15798

#HDR
-1
-1
#GR
CM-1
%T
2.38419e-05
0.0
5000
-1.000000
4631
8
77.1355
-14.5438
#DATA
5000	64.9082
4984	64.7612
4968	65.296
4952	64.7666
4936	64.5775
4920	65.0666
4904	65.1433
4888	64.8456
4872	64.5077
4856	64.5985
4840	65.0923
4824	64.6112
4808	64.8756
4792	64.9998
4776	64.9998
4760	64.6149
4744	64.6997
4728	64.3664
4712	64.977
4696	64.9593
4680	65.131
4664	64.4952
4648	64.6005
4632	64.7136
4616	64.6881
4600	64.88
4584	64.949
4568	64.7894
4552	64.5119
4536	64.0023
4520	65.3563
4504	65.2362
4488	65.0999
4472	65.0714
4456	65.3827
4440	65.0025
4424	65.7135
4408	65.4276
4392	63.8255
4376	63.4291
4360	64.8936
4344	65.3962
4328	65.2627
4312	65.9242
4296	65.1848
4280	65.5075
4264	65.3548
4248	64.973
4232	65.0235
4216	65.3365
4200	64.975
4184	63.8765
4168	65.4253
4152	64.9907
4136	64.8747
4120	64.9421
4104	65.1415
4088	65.0607
4072	65.084
4056	64.9722
4040	64.9455
4024	65.15
4008	64.8523
3992	64.9436
3976	64.9779
3960	64.9024
3944	65.2498
3928	64.8871
3912	65.0654
3896	65.3271
3880	64.9685
3864	65.1585
3848	64.93
3832	64.7407
3816	64.8064
3800	65.2502
3784	65.2232
3768	65.2255
3752	65.0844
3736	65.0248
3720	65.1587
3704	64.971
3688	65.24
3672	65.2358
3656	65.2066
3640	65.2316
3624	65.1631
3608	64.9334
3592	65.0498
3576	65.4103
3560	64.9841
3544	65.1864
3528	65.1521
3512	65.2724
3496	65.2251
3480	65.1299
3464	65.0327
3448	65.3331
3432	65.0936
3416	65.0446
3400	65.1099
3384	65.1344
3368	65.2302
3352	64.9114
3336	65.2961
3320	65.4354
3304	64.7469
3288	65.1369
3272	65.1809
3256	65.2163
3240	65.1443
3224	65.1776
3208	65.2376
3192	64.8487
3176	65.2433
3160	65.0163
3144	65.3729
3128	65.0444
3112	64.9282
3096	65.2329
3080	65.0687
3064	65.1033
3048	65.1725
3032	65.0017
3016	65.15
3000	65.2077
2984	65.098
2968	65.2384
2952	65.1919
2936	65.1406
2920	64.9717
2904	65.1642
2888	65.1894
2872	65.089
2856	64.9934
2840	65.2042
2824	65.2506
2808	65.3331
2792	65.1409
2776	65.2174
2760	65.2776
2744	65.3269
2728	65.2169
2712	65.3325
2696	65.1635
2680	65.3033
2664	65.3181
2648	65.164
2632	65.3298
2616	65.3752
2600	65.248
2584	65.3662
2568	65.2948
2552	65.4452
2536	65.3799
2520	65.3536
2504	65.2641
2488	65.1363
2472	65.2334
2456	65.2975
2440	65.3869
2424	65.6571
2408	64.9476
2392	65.1745
2376	65.0856
2360	65.3269
2344	65.1171
2328	65.3094
2312	65.107
2296	65.3162
2280	65.1396
2264	65.2141
2248	65.3745
2232	65.2134
2216	65.3252
2200	65.098
2184	65.2218
2168	65.1599
2152	65.2899
2136	65.3742
2120	65.2781
2104	65.2716
2088	65.2342
2072	65.3193
2056	65.2327
2040	65.3483
2024	65.4522
2008	65.2647
1992	65.3006
1976	65.3889
1960	65.1678
1944	65.388
1928	65.3429
1912	65.3193
1896	65.2897
1880	65.3701
1864	65.3248
1848	65.3022
1832	65.4136
1816	65.2399
1800	65.1537
1784	65.2666
1768	65.3799
1752	65.1174
1736	64.9622
1720	64.8966
1704	65.2637
1688	65.2839
1672	65.2043
1656	65.2044
1640	65.0039
1624	65.1496
1608	65.1415
1592	65.0378
1576	65.0755
1560	65.003
1544	65.0731
1528	64.9558
1512	65.0682
1496	64.9938
1480	65.1651
1464	65.0183
1448	65.019
1432	64.9068
1416	65.0527
1400	64.9189
1384	65.1943
1368	64.9288
1352	64.8608
1336	65.007
1320	64.8029
1304	65.0624
1288	64.9879
1272	65.0231
1256	64.9402
1240	64.9508
1224	64.9281
1208	64.9141
1192	65.069
1176	64.8756
1160	64.861
1144	64.6518
1128	64.7145
1112	64.887
1096	64.5191
1080	64.6934
1064	65.1489
1048	64.9168
1032	64.9306
1016	63.9806
1000	64.7322
984	 64.6401
968	 64.4896
952	 64.7033
936	 64.4294
920	 64.6026
904	 64.2962
888	 64.3669
872	 64.2702
856	 64.2838
840	 64.0134
824	 64.0551
808	 64.3193
792	 63.514
776	 64.1128
760	 63.7864
744	 63.8202
728	 63.7926
712	 63.5894
696	 63.3075
680	 62.8246
664	 62.5125
648	 62.59
632	 62.3489
616	 62.6171
600	 62.4972
584	 61.7872
568	 61.6654
552	 61.4527
536	 60.7465
520	 60.3357
504	 60.1386
488	 60.3712
472	 59.3537
456	 58.705
440	 58.0968
424	 55.8073
408	 63.3095
392	 48.5062
376	 20.4117
370	 -11.3379

File: C-4040-8_t46.asc
PE IR       SPECTRUM    SPECTRUM    ASCII       PEDS        1.60
  -1
C-B532~1.ASC
17/03/27
18:18:32.00
17/03/27
18:18:58.00
tln
$C-4040-8_t0046$<tbV0>[10.4,-2.6,8.0,0.0,27,1,0]
27.028
64

2002,4.07
MIRTGS : RIGHTBACK : INTERNAL 2
MIR : ON : INTERNAL 2
OPTKBR

0.200000
8
8.000000
FILLER
RATIO
SPECTRUM
UNLOCKED 256

DOUBLE
64
COMBINED
1
0
0

0.002000
RATIO

1
0
TRUE
51149
0
LEFT NOT FITTED RIGHT NOT FITTED 0
NONE
NONE
15600
12
4.427000
51148
TRUE
1 0 8 72 0 0 0 0

15798

#HDR
-1
-1
#GR
µM
%T
2.38419e-05
0.0
2.000000
0.002000
12515
8
125.078
44.9934
#DATA
2.000000	 64.9106
2.084000	 64.8616
2.168000	 63.8732
2.252000	 65.612
2.336000	 66.295
2.420000	 64.9812
2.504000	 64.9283
2.588000	 65.1102
2.672000	 65.422
2.756000	 64.9591
2.840000	 65.4167
2.924000	 65.4019
3.008000	 65.3697
3.092000	 65.1762
3.176000	 65.2312
3.260000	 65.2955
3.344000	 65.2643
3.428000	 64.9859
3.512000	 65.1355
3.596000	 65.1752
3.680000	 65.1985
3.764000	 65.3676
3.848000	 65.36
3.932000	 65.3146
4.016000	 65.2029
4.100000	 65.4859
4.184000	 65.3451
4.268000	 65.2939
4.352000	 65.3546
4.436000	 65.4622
4.520000	 65.3734
4.604000	 65.3407
4.688000	 65.508
4.772000	 65.3951
4.856000	 65.5052
4.940000	 65.3786
5.024000	 65.4017
5.108000	 65.1206
5.192000	 65.3202
5.276000	 65.4224
5.359999	 65.2726
5.444000	 65.4434
5.528000	 65.3038
5.612000	 65.2938
5.696000	 65.2193
5.780000	 64.9631
5.864000	 65.345
5.948000	 65.2696
6.032000	 65.3801
6.116000	 65.2513
6.200000	 65.3389
6.284000	 65.1409
6.368000	 65.2779
6.452000	 65.1064
6.536000	 65.2357
6.620000	 65.171
6.704000	 65.1127
6.788000	 65.191
6.872000	 64.9429
6.956000	 65.0449
7.040000	 65.1981
7.124000	 65.0933
7.208000	 65.1714
7.292000	 65.1545
7.376000	 65.103
7.460000	 65.1935
7.544000	 65.1256
7.628000	 65.1112
7.712000	 65.0601
7.796000	 65.0141
7.880000	 65.0268
7.964000	 64.9577
8.048000	 65.1166
8.132000	 64.8811
8.216000	 64.9057
8.300000	 65.2064
8.384000	 64.9589
8.468000	 64.8447
8.552000	 64.726
8.635999	 64.987
8.719999	 65.5112
8.804000	 64.7096
8.888000	 65.0331
8.972000	 64.9244
9.056000	 64.5827
9.140000	 64.9341
9.224000	 65.1816
9.308000	 64.8402
9.391999	 64.998
9.475999	 65.0088
9.560000	 64.8072
9.644000	 64.4986
9.728000	 64.5792
9.812000	 64.6792
9.896000	 64.8881
9.980000	 64.7266
10.064	64.7657
10.148	64.7999
10.232	64.8436
10.316	64.2944
10.4	64.5822
10.484	64.5939
10.568	64.8327
10.652	64.5021
10.736	64.4963
10.82	64.5309
10.904	64.5896
10.988	64.6011
11.072	64.6099
11.156	64.5697
11.24	64.4433
11.324	64.4674
11.408	64.3343
11.492	64.4965
11.576	64.549
11.66	64.4569
11.744	64.5583
11.828	64.6376
11.912	64.4489
11.996	64.3405
12.08	64.3695
12.164	64.331
12.248	64.1457
12.332	64.5048
12.416	64.4653
12.5	64.3049
12.584	64.3256
12.668	64.1243
12.752	64.0724
12.836	64.1968
12.92	64.1185
13.004	64.1376
13.088	64.2848
13.172	63.932
13.256	63.4539
13.34	63.642
13.424	63.8883
13.508	63.768
13.592	63.8072
13.676	63.7039
13.76	63.5001
13.844	63.3914
13.928	63.5185
14.012	63.6953
14.096	63.553
14.18	63.5177
14.264	63.8424
14.348	63.9254
14.432	63.7065
14.516	63.3898
14.6	63.1475
14.684	63.2302
14.768	63.4401
14.852	63.5538
14.936	63.543
15.02	63.3773
15.104	63.2183
15.188	63.2478
15.272	63.2512
15.356	63.015
15.44	62.7006
15.524	62.5565
15.608	62.7412
15.692	63.1339
15.776	63.4191
15.86	63.4576
15.944	63.2973
16.028	63.1079
16.112	63.0558
16.196	63.1333
16.28	63.2258
16.364	63.2198
16.448	63.1197
16.532	63.0334
16.616	62.9546
16.7	62.7906
16.784	62.6005
16.868	62.4666
16.952	62.2991
17.036	62.042
17.12	61.8514
17.204	61.8785
17.288	62.073
17.372	62.2871
17.456	62.4301
17.54	62.4837
17.624	62.4478
17.708	62.3207
17.792	62.1475
17.876	62.0443
17.96	62.0988
18.044	62.26
18.128	62.3916
18.212	62.4319
18.296	62.3996
18.38	62.2851
18.464	62.0705
18.548	61.8232
18.632	61.6461
18.716	61.5584
18.8	61.5169
18.884	61.5044
18.968	61.5106
19.052	61.4612
19.136	61.2863
19.22	61.0455
19.304	60.8844
19.388	60.8479
19.472	60.8231
19.556	60.6929
19.64	60.501
19.724	60.4062
19.808	60.4916
19.892	60.6737
19.976	60.807
20.06	60.8412
20.144	60.8432
20.228	60.8837
20.312	60.9332
20.396	60.8893
20.48	60.6914
20.564	60.3875
20.648	60.0744
20.732	59.8176
20.816	59.6264
20.9	59.4857
20.984	59.3939
21.068	59.3601
21.152	59.3865
21.236	59.4624
21.32	59.5736
21.404	59.6953
21.488	59.7834
21.572	59.8015
21.656	59.7792
21.74	59.8274
21.824	60.06
21.908	60.4735
21.992	60.9064
22.076	61.1273
22.16	60.9968
22.244	60.5862
22.328	60.1182
22.412	59.8155
22.496	59.7532
22.58	59.8528
22.664	59.9871
22.748	60.0669
22.832	60.0775
22.916	60.0612
23	60.0588
23.084	60.1012
23.168	60.2273
23.252	60.477
23.336	60.8656
23.42	61.3091
23.504	61.7096
23.588	61.9267
23.672	61.8378
23.756	61.4572
23.84	60.8213
23.924	59.986
24.008	59.0448
24.092	58.1809
24.176	57.6903
24.26	57.8791
24.344	58.9404
24.428	60.8089
24.512	63.1468
24.596	65.3789
24.68	66.9171
24.764	67.4899
24.848	67.2335
24.932	67.0098
25.016	68.1886
25.1	72.083
25.184	79.4142
25.268	89.7121
25.352	101.368
25.436	112.142
25.52	120.111
25.604	124.347
25.688	124.863
25.772	122.566
25.856	118.794
25.94	114.985
26.024	112.233
26.108	110.88
26.192	110.334
26.276	109.265
26.36	106.011
26.444	99.5299
26.528	89.9408
26.612	78.5527
26.696	67.3139
26.78	58.1023
26.864	51.8262
26.948	48.1564
27.028	45.8837