Folder: Masteroppgave/Bakgrunnsmateriale/MATLAB/FTIR/ftir_data/subBb/Mapping_36 (part 10)

File: C-4040-8_t20.asc
PE IR       SPECTRUM    SPECTRUM    ASCII       PEDS        1.60
  -1
C-AD2A~1.ASC
17/05/02
12:32:00.00
17/05/02
12:32:26.00
tln
$C-4040-8_t0020$<tbV0>[7.5,2.0,8.0,0.0,22,1,0]
27.028
64

2002,4.07
MIRTGS : RIGHTBACK : INTERNAL 2
MIR : ON : INTERNAL 2
OPTKBR

0.200000
8
8.000000
FILLER
RATIO
SPECTRUM
UNLOCKED 256

DOUBLE
64
COMBINED
1
0
0

0.002000
RATIO

1
0
TRUE
51149
0
LEFT NOT FITTED RIGHT NOT FITTED 0
NONE
NONE
15600
12
4.427000
51148
TRUE
1 0 8 72 0 0 0 0

15798

#HDR
-1
-1
#GR
µM
%T
2.38419e-05
0.0
1.282000
0.002000
12874
8
103.23
45.7311
#DATA
1.282000	 68.0326
1.368000	 62.7811
1.454000	 66.4069
1.540000	 65.0127
1.626000	 64.3128
1.712000	 64.6292
1.798000	 64.4637
1.884000	 64.4368
1.970000	 64.6642
2.056000	 64.4559
2.142000	 65.4318
2.228000	 63.6494
2.314000	 63.573
2.400000	 64.9985
2.486000	 65.3612
2.572000	 65.304
2.658000	 65.0781
2.744000	 65.1644
2.830000	 65.0817
2.916000	 65.0715
3.002000	 65.0809
3.088000	 65.0982
3.174000	 65.0627
3.260000	 65.2595
3.346000	 64.9338
3.432000	 64.7517
3.518000	 64.9337
3.604000	 65.0535
3.690000	 65.1841
3.776000	 65.2153
3.862000	 65.1994
3.948000	 65.144
4.034000	 65.2135
4.120000	 65.243
4.206000	 65.1763
4.292000	 65.254
4.378000	 65.1633
4.464000	 65.2722
4.550000	 65.1964
4.636000	 65.1648
4.722000	 65.1315
4.808000	 65.1558
4.894000	 65.1536
4.980000	 65.1325
5.066000	 65.1984
5.152000	 65.2412
5.238000	 65.2333
5.324000	 65.2962
5.410000	 65.2076
5.496000	 65.206
5.582000	 65.1724
5.668000	 65.1399
5.754000	 64.9847
5.840000	 65.1681
5.926000	 65.1471
6.012000	 65.1076
6.098000	 64.9777
6.184000	 65.2315
6.270000	 65.0657
6.356000	 64.9593
6.442000	 64.8263
6.528000	 64.8912
6.614000	 64.9485
6.700000	 64.8982
6.786000	 65.0993
6.872000	 64.8593
6.958000	 64.8829
7.044000	 64.8816
7.130000	 64.9223
7.216000	 64.8622
7.302000	 64.9658
7.388000	 65.0763
7.474000	 64.9079
7.560000	 64.8705
7.646000	 64.8924
7.732000	 64.8567
7.818000	 64.8779
7.904000	 64.7727
7.990000	 64.821
8.076000	 64.792
8.161999	 64.8548
8.248000	 64.9118
8.334000	 64.7773
8.420000	 64.5783
8.506000	 64.7266
8.592000	 64.7002
8.678000	 64.6217
8.763999	 64.5737
8.850000	 64.5837
8.936000	 64.6066
9.022000	 64.5985
9.108000	 64.467
9.193999	 64.6569
9.280000	 64.5027
9.366000	 64.5764
9.452000	 64.454
9.538000	 64.6009
9.624000	 64.5938
9.710000	 64.3904
9.795999	 64.418
9.882000	 64.4859
9.968000	 64.4437
10.054	64.4778
10.14	64.431
10.226	64.5006
10.312	64.4013
10.398	64.6284
10.484	64.3733
10.57	64.2853
10.656	64.078
10.742	63.6958
10.828	64.3496
10.914	64.6357
11	64.1163
11.086	63.6768
11.172	63.8276
11.258	63.3387
11.344	64.2641
11.43	64.8069
11.516	64.5093
11.602	64.4691
11.688	64.389
11.774	64.3107
11.86	64.1427
11.946	63.9807
12.032	64.0769
12.118	63.8429
12.204	63.5948
12.29	63.4709
12.376	63.4151
12.462	63.5712
12.548	63.685
12.634	63.7539
12.72	63.7563
12.806	63.7592
12.892	63.7323
12.978	63.6144
13.064	63.7587
13.15	63.6928
13.236	63.4067
13.322	63.2987
13.408	63.2225
13.494	63.239
13.58	63.2384
13.666	63.1189
13.752	63.0375
13.838	62.9882
13.924	63.134
14.01	63.2326
14.096	63.0476
14.182	62.9945
14.268	63.0189
14.354	62.9477
14.44	62.9284
14.526	62.8086
14.612	62.5271
14.698	62.368
14.784	62.3986
14.87	62.5669
14.956	62.7215
15.042	62.6967
15.128	62.6322
15.214	62.6838
15.3	62.6883
15.386	62.5788
15.472	62.4851
15.558	62.333
15.644	62.1224
15.73	62.052
15.816	62.1199
15.902	62.23
15.988	62.3128
16.074	62.2465
16.16	62.0414
16.246	61.8802
16.332	61.8644
16.418	61.9174
16.504	61.8896
16.59	61.7506
16.676	61.6713
16.762	61.7363
16.848	61.8055
16.934	61.6961
17.02	61.4304
17.106	61.255
17.192	61.2538
17.278	61.2219
17.364	61.065
17.45	60.9717
17.536	61.0718
17.622	61.2328
17.708	61.2993
17.794	61.2811
17.88	61.2625
17.966	61.278
18.052	61.3152
18.138	61.3385
18.224	61.2954
18.31	61.1741
18.396	61.0384
18.482	60.9423
18.568	60.8645
18.654	60.7684
18.74	60.657
18.826	60.5383
18.912	60.4117
18.998	60.305
19.084	60.2826
19.17	60.3882
19.256	60.5767
19.342	60.7344
19.428	60.7787
19.514	60.709
19.6	60.5599
19.686	60.3615
19.772	60.1505
19.858	59.9589
19.944	59.7801
20.03	59.5853
20.116	59.3701
20.202	59.1639
20.288	58.9997
20.374	58.8885
20.46	58.816
20.546	58.7558
20.632	58.6969
20.718	58.6623
20.804	58.6958
20.89	58.8235
20.976	59.019
21.062	59.2001
21.148	59.2642
21.234	59.1576
21.32	58.927
21.406	58.6933
21.492	58.5556
21.578	58.5177
21.664	58.5188
21.75	58.5106
21.836	58.4975
21.922	58.5067
22.008	58.5316
22.094	58.5162
22.18	58.3992
22.266	58.1707
22.352	57.8893
22.438	57.6413
22.524	57.4728
22.61	57.3677
22.696	57.262
22.782	57.0844
22.868	56.8018
22.954	56.4382
23.04	56.0488
23.126	55.7059
23.212	55.4481
23.298	55.267
23.384	55.121
23.47	54.966
23.556	54.7678
23.642	54.5067
23.728	54.1692
23.814	53.7456
23.9	53.2358
23.986	52.6725
24.072	52.1423
24.158	51.7879
24.244	51.7762
24.33	52.2604
24.416	53.305
24.502	54.8055
24.588	56.4917
24.674	58.0178
24.76	59.0382
24.846	59.3447
24.932	58.9294
25.018	57.9986
25.104	56.8736
25.19	55.8888
25.276	55.2607
25.362	55.0685
25.448	55.1719
25.534	55.3353
25.62	55.3413
25.706	55.0406
25.792	54.3535
25.878	53.3376
25.964	52.3324
26.05	51.8663
26.136	52.3694
26.222	53.922
26.308	56.0933
26.394	58.1049
26.48	59.308
26.566	59.3237
26.652	58.2111
26.738	56.1309
26.824	53.3336
26.91	49.9732
26.996	46.5941
27.028	45.7311

File: C-4040-8_t20_cm-1.asc
PE IR       SPECTRUM    SPECTRUM    ASCII       PEDS        1.60
  -1
C-9A61~1.ASC
17/05/02
12:32:00.00
17/05/02
12:32:00.00
tln
$C-4040-8_t0020$<tbV0>[7.5,2.0,8.0,0.0,22,1,0]
370
64

2002,4.07
MIRTGS : RIGHTBACK : INTERNAL 2
MIR : ON : INTERNAL 2
OPTKBR

0.200000
8
8.000000
FILLER
RATIO
SPECTRUM
UNLOCKED 256

DOUBLE
64
COMBINED
1
0
0

1.000000
RATIO

1
0
TRUE
51149
0
LEFT NOT FITTED RIGHT NOT FITTED 0
NONE
NONE
15600
12
4.427000
51148
TRUE
1 0 8 72 0 0 0 0

15798

#HDR
-1
-1
#GR
CM-1
%T
2.38419e-05
0.0
7800
-1.000000
7431
8
106.724
45.7311
#DATA
7800	68.0326
7775	70.6619
7750	64.7899
7725	66.5064
7700	71.4958
7675	65.0049
7650	60.6254
7625	64.5443
7600	64.0921
7575	66.2912
7550	64.4962
7525	63.5287
7500	66.8719
7475	62.0143
7450	69.1089
7425	65.6235
7400	65.74
7375	66.2232
7350	66.1984
7325	68.7072
7300	64.0982
7275	68.8852
7250	64.0983
7225	65.7628
7200	64.8649
7175	65.6382
7150	64.62
7125	64.3431
7100	65.4994
7075	63.73
7050	62.3199
7025	69.6173
7000	64.5307
6975	62.4282
6950	63.6179
6925	65.1327
6900	64.3839
6875	65.6677
6850	64.2349
6825	65.1509
6800	62.6428
6775	63.1265
6750	63.7434
6725	64.3595
6700	64.5067
6675	62.8968
6650	64.0086
6625	65.4061
6600	64.8879
6575	64.7225
6550	65.8555
6525	63.0242
6500	65.151
6475	64.647
6450	63.5277
6425	64.1668
6400	64.6065
6375	64.2594
6350	64.1061
6325	63.6901
6300	64.8666
6275	63.0146
6250	63.4617
6225	64.9732
6200	65.2048
6175	64.9784
6150	64.3207
6125	64.4141
6100	64.2347
6075	64.6957
6050	64.7914
6025	64.0341
6000	65.7784
5975	65.2528
5950	64.8821
5925	64.6654
5900	64.7948
5875	65.9985
5850	65.358
5825	64.299
5800	65.1022
5775	64.8784
5750	64.8724
5725	65.2153
5700	64.7827
5675	64.6485
5650	64.6379
5625	66.5618
5600	64.932
5575	65.2612
5550	64.2606
5525	65.334
5500	65.0237
5475	65.3866
5450	64.8028
5425	64.3237
5400	64.8441
5375	64.2879
5350	64.1221
5325	62.8589
5300	65.579
5275	64.0889
5250	66.5541
5225	64.6959
5200	64.9216
5175	65.1945
5150	64.9288
5125	65.3484
5100	65.1095
5075	64.6287
5050	64.5977
5025	64.7715
5000	64.6556
4975	64.5957
4950	64.6317
4925	64.5844
4900	64.7268
4875	64.4115
4850	64.6805
4825	65.0327
4800	64.7196
4775	65.5283
4750	65.1342
4725	64.7452
4700	64.9687
4675	65.3707
4650	65.2432
4625	64.776
4600	64.9321
4575	64.4847
4550	64.3907
4525	64.0988
4500	63.8183
4475	63.8883
4450	63.6361
4425	63.4063
4400	63.4722
4375	63.0642
4350	64.4518
4325	63.413
4300	63.5793
4275	64.2035
4250	64.0014
4225	64.7359
4200	64.637
4175	64.8531
4150	65.2446
4125	64.9915
4100	65.3531
4075	65.1026
4050	65.4662
4025	65.3885
4000	65.176
3975	65.2995
3950	64.86
3925	65.1323
3900	64.8072
3875	64.9033
3850	64.9222
3825	65.0493
3800	64.9408
3775	64.9943
3750	65.2496
3725	64.9368
3700	65.1989
3675	65.1293
3650	65.1033
3625	65.2586
3600	65.0896
3575	65.2174
3550	65.2963
3525	64.9594
3500	64.963
3475	64.9846
3450	65.4068
3425	64.9873
3400	64.9203
3375	64.9186
3350	64.9202
3325	65.2211
3300	65.157
3275	65.0849
3250	64.9911
3225	65.2462
3200	65.1829
3175	65.1507
3150	65.0611
3125	65.2064
3100	65.082
3075	65.2575
3050	65.1367
3025	65.0178
3000	65.1797
2975	64.9315
2950	64.9471
2925	64.5876
2900	64.9734
2875	65.1323
2850	64.727
2825	65.1217
2800	65.0952
2775	65.0547
2750	65.1873
2725	65.1634
2700	65.1594
2675	65.0645
2650	65.2083
2625	65.2152
2600	65.1962
2575	65.1392
2550	65.1431
2525	65.1412
2500	65.0842
2475	65.2112
2450	65.1264
2425	65.2342
2400	65.0662
2375	65.1776
2350	65.1706
2325	65.2434
2300	65.3125
2275	65.2334
2250	65.2891
2225	65.2602
2200	65.191
2175	65.1428
2150	65.279
2125	65.1087
2100	65.1907
2075	65.1076
2050	65.2779
2025	65.1394
2000	65.0733
1975	65.2142
1950	65.1757
1925	65.1783
1900	65.267
1875	65.2584
1850	65.2205
1825	65.1825
1800	65.1435
1775	65.2241
1750	65.0395
1725	64.9527
1700	65.0677
1675	65.0344
1650	65.0213
1625	65.0932
1600	65.0625
1575	64.9646
1550	64.8673
1525	65.0695
1500	65.0138
1475	65.0778
1450	64.8362
1425	64.915
1400	64.969
1375	64.977
1350	65.0138
1325	64.8786
1300	64.852
1275	64.7849
1250	64.8309
1225	64.8554
1200	64.7762
1175	64.7412
1150	64.6375
1125	64.582
1100	64.5107
1075	64.4739
1050	64.5502
1025	64.3988
1000	64.4403
975	 64.491
950	 64.2735
925	 64.1902
900	 63.8158
875	 64.8103
850	 64.3061
825	 63.831
800	 63.6147
775	 63.7154
750	 63.2893
725	 63.0036
700	 63.0081
675	 62.4466
650	 62.5806
625	 62.3149
600	 61.6722
575	 61.017
550	 61.3275
525	 60.2775
500	 59.6562
475	 59.1846
450	 58.2989
425	 54.8351
400	 58.2195
375	 57.9218
370	 45.7311

File: C-4040-8_t21.asc
PE IR       SPECTRUM    SPECTRUM    ASCII       PEDS        1.60
  -1
C-AD2E~1.ASC
17/05/02
12:36:41.00
17/05/02
12:37:07.00
tln
$C-4040-8_t0021$<tbV0>[2.5,2.0,8.0,0.0,22,1,0]
27.028
64

2002,4.07
MIRTGS : RIGHTBACK : INTERNAL 2
MIR : ON : INTERNAL 2
OPTKBR

0.200000
8
8.000000
FILLER
RATIO
SPECTRUM
UNLOCKED 256

DOUBLE
64
COMBINED
1
0
0

0.002000
RATIO

1
0
TRUE
51149
0
LEFT NOT FITTED RIGHT NOT FITTED 0
NONE
NONE
15600
12
4.427000
51148
TRUE
1 0 8 72 0 0 0 0

15798

#HDR
-1
-1
#GR
µM
%T
2.38419e-05
0.0
1.282000
0.002000
12874
8
135.936
46.1038
#DATA
1.282000	 63.7466
1.368000	 64.3922
1.454000	 64.4326
1.540000	 67.1096
1.626000	 65.1782
1.712000	 64.3938
1.798000	 65.1343
1.884000	 64.0237
1.970000	 65.1791
2.056000	 65.157
2.142000	 65.524
2.228000	 63.7907
2.314000	 63.5196
2.400000	 65.0365
2.486000	 65.2665
2.572000	 64.9849
2.658000	 65.2654
2.744000	 65.5268
2.830000	 65.2587
2.916000	 65.0907
3.002000	 65.2549
3.088000	 65.3326
3.174000	 65.0887
3.260000	 65.1975
3.346000	 65.3046
3.432000	 64.9371
3.518000	 65.0884
3.604000	 65.2584
3.690000	 65.3228
3.776000	 65.2866
3.862000	 65.2317
3.948000	 65.3138
4.034000	 65.3805
4.120000	 65.4419
4.206000	 65.3107
4.292000	 65.2966
4.378000	 65.2727
4.464000	 65.3687
4.550000	 65.2528
4.636000	 65.3779
4.722000	 65.3242
4.808000	 65.2385
4.894000	 65.3207
4.980000	 65.3791
5.066000	 65.3377
5.152000	 65.2468
5.238000	 65.2263
5.324000	 65.3036
5.410000	 65.2958
5.496000	 65.2636
5.582000	 65.2824
5.668000	 65.1887
5.754000	 65.119
5.840000	 65.1353
5.926000	 65.1953
6.012000	 65.1551
6.098000	 65.2173
6.184000	 65.1782
6.270000	 65.1448
6.356000	 65.0787
6.442000	 65.0996
6.528000	 65.0369
6.614000	 65.08
6.700000	 65.2345
6.786000	 65.0273
6.872000	 64.9543
6.958000	 64.9002
7.044000	 65.0694
7.130000	 65.0368
7.216000	 65.0642
7.302000	 65.0413
7.388000	 65.0631
7.474000	 65.1197
7.560000	 64.9918
7.646000	 65.0982
7.732000	 64.9124
7.818000	 65.0444
7.904000	 64.9744
7.990000	 64.8916
8.076000	 64.8681
8.161999	 65.0809
8.248000	 64.9522
8.334000	 64.8574
8.420000	 64.9818
8.506000	 64.9243
8.592000	 64.919
8.678000	 64.8177
8.763999	 64.7223
8.850000	 64.6553
8.936000	 64.7457
9.022000	 64.8917
9.108000	 64.7969
9.193999	 64.6181
9.280000	 64.7003
9.366000	 64.8776
9.452000	 64.7311
9.538000	 64.9878
9.624000	 64.926
9.710000	 64.742
9.795999	 64.7474
9.882000	 64.7409
9.968000	 64.8322
10.054	64.77
10.14	65.0793
10.226	64.7231
10.312	64.5252
10.398	64.7846
10.484	64.8087
10.57	64.9035
10.656	64.3961
10.742	64.3241
10.828	64.8
10.914	64.5693
11	64.2366
11.086	64.2456
11.172	64.5287
11.258	65.0273
11.344	64.9964
11.43	64.4824
11.516	65.1755
11.602	64.7458
11.688	63.9987
11.774	63.9073
11.86	63.9963
11.946	64.0313
12.032	64.0352
12.118	64.0234
12.204	63.9326
12.29	64.2434
12.376	64.1985
12.462	64.0212
12.548	63.9263
12.634	64.0362
12.72	63.9877
12.806	63.9216
12.892	63.8566
12.978	63.7419
13.064	63.7136
13.15	63.6898
13.236	63.5814
13.322	63.6983
13.408	63.8519
13.494	63.7828
13.58	63.6976
13.666	63.5538
13.752	63.4188
13.838	63.3572
13.924	63.3762
14.01	63.2886
14.096	63.1758
14.182	63.1343
14.268	63.0085
14.354	62.9756
14.44	63.1219
14.526	63.1611
14.612	62.9808
14.698	62.7612
14.784	62.6698
14.87	62.778
14.956	62.8982
15.042	62.8428
15.128	62.7901
15.214	62.8653
15.3	62.8176
15.386	62.6076
15.472	62.4807
15.558	62.5086
15.644	62.5925
15.73	62.6312
15.816	62.7012
15.902	62.8734
15.988	62.9304
16.074	62.7522
16.16	62.5063
16.246	62.2944
16.332	62.0793
16.418	61.8448
16.504	61.6623
16.59	61.6708
16.676	61.868
16.762	62.0084
16.848	61.9364
16.934	61.7689
17.02	61.6694
17.106	61.6709
17.192	61.6832
17.278	61.6501
17.364	61.6309
17.45	61.6807
17.536	61.7705
17.622	61.8423
17.708	61.8863
17.794	61.9272
17.88	61.9548
17.966	61.923
18.052	61.8049
18.138	61.6038
18.224	61.3391
18.31	61.0774
18.396	60.9275
18.482	60.9142
18.568	60.9432
18.654	60.9494
18.74	60.9654
18.826	61.0174
18.912	61.0579
18.998	61.0421
19.084	60.9995
19.17	60.9978
19.256	61.0602
19.342	61.1462
19.428	61.1804
19.514	61.0933
19.6	60.8666
19.686	60.5936
19.772	60.4519
19.858	60.5473
19.944	60.7894
20.03	60.9703
20.116	60.9559
20.202	60.7705
20.288	60.5331
20.374	60.3543
20.46	60.2806
20.546	60.2913
20.632	60.314
20.718	60.2629
20.804	60.1
20.89	59.8693
20.976	59.6625
21.062	59.5461
21.148	59.5248
21.234	59.5589
21.32	59.6
21.406	59.6025
21.492	59.5313
21.578	59.3709
21.664	59.1603
21.75	58.9928
21.836	58.9568
21.922	59.066
22.008	59.2355
22.094	59.3362
22.18	59.275
22.266	59.041
22.352	58.7087
22.438	58.3903
22.524	58.1744
22.61	58.0721
22.696	58.0058
22.782	57.8647
22.868	57.5698
22.954	57.1325
23.04	56.6488
23.126	56.2634
23.212	56.0945
23.298	56.1828
23.384	56.46
23.47	56.7884
23.556	57.0214
23.642	57.0894
23.728	57.0162
23.814	56.8982
23.9	56.8252
23.986	56.8281
24.072	56.8888
24.158	56.9504
24.244	56.9737
24.33	56.971
24.416	56.996
24.502	57.095
24.588	57.2883
24.674	57.5566
24.76	57.8417
24.846	58.0841
24.932	58.2458
25.018	58.3307
25.104	58.3901
25.19	58.4544
25.276	58.5123
25.362	58.5275
25.448	58.3316
25.534	57.761
25.62	56.7371
25.706	55.1887
25.792	53.1037
25.878	50.6351
25.964	48.2717
26.05	46.6139
26.136	46.1171
26.222	46.9988
26.308	49.0175
26.394	51.5575
26.48	54.0038
26.566	55.8704
26.652	56.9542
26.738	57.2999
26.824	57.186
26.91	56.9562
26.996	57.2493
27.028	57.4448

File: C-4040-8_t21_cm-1.asc
PE IR       SPECTRUM    SPECTRUM    ASCII       PEDS        1.60
  -1
C-9AE4~1.ASC
17/05/02
12:36:41.00
17/05/02
12:36:41.00
tln
$C-4040-8_t0021$<tbV0>[2.5,2.0,8.0,0.0,22,1,0]
370
64

2002,4.07
MIRTGS : RIGHTBACK : INTERNAL 2
MIR : ON : INTERNAL 2
OPTKBR

0.200000
8
8.000000
FILLER
RATIO
SPECTRUM
UNLOCKED 256

DOUBLE
64
COMBINED
1
0
0

1.000000
RATIO

1
0
TRUE
51149
0
LEFT NOT FITTED RIGHT NOT FITTED 0
NONE
NONE
15600
12
4.427000
51148
TRUE
1 0 8 72 0 0 0 0

15798

#HDR
-1
-1
#GR
CM-1
%T
2.38419e-05
0.0
7800
-1.000000
7431
8
139.33
46.1224
#DATA
7800	63.7466
7775	71.4052
7750	67.9951
7725	73.1707
7700	71.0865
7675	70.3033
7650	62.9445
7625	67.3203
7600	66.9434
7575	63.8768
7550	62.7222
7525	68.2657
7500	67.5692
7475	63.3868
7450	63.876
7425	68.897
7400	66.0097
7375	67.8899
7350	68.1823
7325	68.8659
7300	65.1006
7275	62.8952
7250	68.1794
7225	64.9444
7200	65.24
7175	65.9444
7150	65.4556
7125	62.3041
7100	62.8135
7075	62.948
7050	62.6382
7025	63.6055
7000	63.553
6975	63.8057
6950	64.2786
6925	63.6652
6900	65.8067
6875	64.2653
6850	63.5896
6825	66.5643
6800	63.753
6775	62.5215
6750	64.4117
6725	62.5145
6700	63.5898
6675	64.0627
6650	64.2263
6625	66.7267
6600	65.2086
6575	63.5705
6550	66.8496
6525	63.9938
6500	66.7219
6475	64.7149
6450	64.4244
6425	64.6613
6400	66.0831
6375	65.2975
6350	64.7274
6325	65.2241
6300	65.4355
6275	63.938
6250	63.8272
6225	65.9318
6200	64.0889
6175	63.9086
6150	65.1944
6125	65.2448
6100	64.4129
6075	66.2178
6050	65.7202
6025	64.7769
6000	65.5936
5975	65.1647
5950	65.0223
5925	64.0337
5900	65.1825
5875	64.4935
5850	64.863
5825	65.4199
5800	64.7173
5775	64.9494
5750	65.3342
5725	65.5748
5700	64.5643
5675	64.9337
5650	65.2291
5625	65.404
5600	65.8339
5575	64.8601
5550	64.4236
5525	65.4358
5500	65.2284
5475	65.3323
5450	65.3003
5425	64.8863
5400	64.9315
5375	65.2488
5350	64.2782
5325	65.77
5300	64.8241
5275	64.1271
5250	69.4179
5225	65.608
5200	64.4093
5175	65.4705
5150	65.1304
5125	65.3902
5100	65.4352
5075	65.1903
5050	64.5465
5025	64.5102
5000	64.9187
4975	64.8081
4950	64.7708
4925	64.833
4900	64.9251
4875	64.9237
4850	64.9416
4825	65.3077
4800	64.8646
4775	65.3923
4750	65.5324
4725	65.282
4700	65.4949
4675	65.1347
4650	65.5106
4625	65.2211
4600	64.9295
4575	64.6037
4550	64.2343
4525	63.8148
4500	64.0004
4475	64.0909
4450	64.0595
4425	64.1098
4400	64.0845
4375	64.3934
4350	64.5226
4325	63.498
4300	64.2884
4275	64.305
4250	64.2523
4225	64.7668
4200	64.8819
4175	64.6858
4150	65.0886
4125	65.237
4100	65.6558
4075	65.1438
4050	65.637
4025	65.2898
4000	65.3979
3975	65.1636
3950	65.1701
3925	65.1774
3900	64.9096
3875	65.0924
3850	64.9473
3825	65.0502
3800	64.9564
3775	65.1406
3750	65.3229
3725	65.0573
3700	65.0933
3675	65.5066
3650	65.3046
3625	65.444
3600	65.2646
3575	65.4802
3550	65.3279
3525	65.2595
3500	65.2034
3475	65.1411
3450	65.3009
3425	65.0573
3400	64.9954
3375	65.0054
3350	65.121
3325	65.1734
3300	65.3364
3275	65.2628
3250	65.1466
3225	65.0007
3200	65.2231
3175	65.2411
3150	65.091
3125	65.2958
3100	65.3477
3075	65.1905
3050	65.3177
3025	65.1439
3000	65.2017
2975	65.1602
2950	64.9017
2925	64.8802
2900	65.0302
2875	65.1922
2850	65.015
2825	65.3458
2800	65.1859
2775	65.2553
2750	65.1665
2725	65.3177
2700	65.2441
2675	65.2016
2650	65.2742
2625	65.2173
2600	65.3725
2575	65.2935
2550	65.3664
2525	65.3188
2500	65.315
2475	65.3979
2450	65.2827
2425	65.435
2400	65.2871
2375	65.3057
2350	65.3636
2325	65.3317
2300	65.3398
2275	65.3621
2250	65.3229
2225	65.2872
2200	65.2396
2175	65.3112
2150	65.3031
2125	65.2254
2100	65.2932
2075	65.2612
2050	65.2912
2025	65.2754
2000	65.3185
1975	65.3461
1950	65.2787
1925	65.2917
1900	65.2309
1875	65.2682
1850	65.3152
1825	65.3392
1800	65.1882
1775	65.2718
1750	65.2091
1725	65.0762
1700	65.1331
1675	65.1503
1650	65.1256
1625	65.1469
1600	65.148
1575	65.1108
1550	65.109
1525	65.0872
1500	65.2477
1475	65.0232
1450	64.8623
1425	65.0234
1400	65.0138
1375	64.9846
1350	65.1046
1325	65.0257
1300	64.8846
1275	64.8735
1250	64.8921
1225	65.0823
1200	64.8556
1175	64.9238
1150	64.795
1125	64.6792
1100	64.8432
1075	64.6558
1050	64.9132
1025	64.7549
1000	64.7383
975	 64.5897
950	 64.9374
925	 64.7092
900	 64.3229
875	 64.4793
850	 63.8964
825	 64.0162
800	 63.9562
775	 63.8419
750	 63.7284
725	 63.3772
700	 62.9846
675	 62.6889
650	 62.6109
625	 62.9177
600	 61.8442
575	 61.639
550	 61.4744
525	 61.0163
500	 60.9257
475	 59.5538
450	 59.1789
425	 56.9659
400	 58.3166
375	 57.0634
370	 57.4448

File: C-4040-8_t22.asc
PE IR       SPECTRUM    SPECTRUM    ASCII       PEDS        1.60
  -1
C-AD22~1.ASC
17/05/02
12:41:22.00
17/05/02
12:41:48.00
tln
$C-4040-8_t0022$<tbV0>[-2.5,2.0,8.0,0.0,22,1,0]
27.028
64

2002,4.07
MIRTGS : RIGHTBACK : INTERNAL 2
MIR : ON : INTERNAL 2
OPTKBR

0.200000
8
8.000000
FILLER
RATIO
SPECTRUM
UNLOCKED 256

DOUBLE
64
COMBINED
1
0
0

0.002000
RATIO

1
0
TRUE
51149
0
LEFT NOT FITTED RIGHT NOT FITTED 0
NONE
NONE
15600
12
4.427000
51148
TRUE
1 0 8 72 0 0 0 0

15798

#HDR
-1
-1
#GR
µM
%T
2.38419e-05
0.0
1.282000
0.002000
12874
8
83.2162
47.4951
#DATA
1.282000	 73.2663
1.368000	 63.6728
1.454000	 65.4141
1.540000	 65.7964
1.626000	 65.9745
1.712000	 64.6133
1.798000	 64.8879
1.884000	 64.2399
1.970000	 64.8551
2.056000	 64.5669
2.142000	 65.1281
2.228000	 64.7133
2.314000	 64.942
2.400000	 65.2193
2.486000	 65.3233
2.572000	 65.1406
2.658000	 65.2853
2.744000	 65.3628
2.830000	 65.1724
2.916000	 65.1765
3.002000	 65.2811
3.088000	 65.3681
3.174000	 65.1779
3.260000	 65.1731
3.346000	 65.2566
3.432000	 64.9637
3.518000	 65.1511
3.604000	 65.223
3.690000	 65.3368
3.776000	 65.3188
3.862000	 65.27
3.948000	 65.342
4.034000	 65.3247
4.120000	 65.312
4.206000	 65.3137
4.292000	 65.3209
4.378000	 65.3117
4.464000	 65.4067
4.550000	 65.2456
4.636000	 65.3811
4.722000	 65.3332
4.808000	 65.2865
4.894000	 65.3115
4.980000	 65.2353
5.066000	 65.3947
5.152000	 65.3154
5.238000	 65.2804
5.324000	 65.3306
5.410000	 65.29
5.496000	 65.1511
5.582000	 65.2886
5.668000	 65.2957
5.754000	 65.0929
5.840000	 65.2052
5.926000	 65.2023
6.012000	 65.2262
6.098000	 65.2376
6.184000	 65.2326
6.270000	 65.1477
6.356000	 65.0163
6.442000	 65.036
6.528000	 65.1023
6.614000	 65.1896
6.700000	 65.2583
6.786000	 65.0077
6.872000	 65.0098
6.958000	 65.1774
7.044000	 65.1246
7.130000	 65.0201
7.216000	 65.0606
7.302000	 65.0601
7.388000	 65.0135
7.474000	 65.0696
7.560000	 64.9675
7.646000	 65.0568
7.732000	 65.1581
7.818000	 64.9776
7.904000	 64.9477
7.990000	 64.9625
8.076000	 64.9589
8.161999	 64.9476
8.248000	 64.9327
8.334000	 64.8667
8.420000	 64.9749
8.506000	 65.1037
8.592000	 64.995
8.678000	 64.8152
8.763999	 64.9002
8.850000	 64.7405
8.936000	 64.7546
9.022000	 64.7767
9.108000	 64.9282
9.193999	 64.9432
9.280000	 64.8254
9.366000	 64.9614
9.452000	 64.7954
9.538000	 64.9019
9.624000	 64.9429
9.710000	 64.8686
9.795999	 64.7665
9.882000	 64.6387
9.968000	 64.7624
10.054	64.8074
10.14	64.7379
10.226	64.8531
10.312	64.8159
10.398	65.0378
10.484	64.886
10.57	65.0497
10.656	64.6068
10.742	64.2599
10.828	64.8114
10.914	64.949
11	64.9123
11.086	64.8612
11.172	64.9209
11.258	64.1362
11.344	64.326
11.43	64.6335
11.516	64.7641
11.602	64.8862
11.688	64.2564
11.774	64.2822
11.86	64.4725
11.946	64.4459
12.032	64.4307
12.118	64.5761
12.204	64.1779
12.29	63.8872
12.376	63.7832
12.462	64.0517
12.548	64.4116
12.634	64.6401
12.72	64.4915
12.806	64.1888
12.892	64.0503
12.978	64.0769
13.064	64.161
13.15	64.2633
13.236	64.2053
13.322	63.9859
13.408	63.8801
13.494	63.8781
13.58	63.7543
13.666	63.7905
13.752	63.9354
13.838	63.9214
13.924	63.6828
14.01	63.4622
14.096	63.4872
14.182	63.6261
14.268	63.6029
14.354	63.4969
14.44	63.485
14.526	63.4246
14.612	63.1664
14.698	62.9642
14.784	62.9526
14.87	62.9911
14.956	62.9927
15.042	62.9682
15.128	62.9701
15.214	63.0596
15.3	63.1818
15.386	63.2545
15.472	63.2368
15.558	63.1005
15.644	62.936
15.73	62.848
15.816	62.8278
15.902	62.8944
15.988	63.03
16.074	63.0345
16.16	62.8487
16.246	62.7101
16.332	62.7596
16.418	62.8546
16.504	62.8053
16.59	62.6056
16.676	62.4438
16.762	62.4341
16.848	62.4587
16.934	62.368
17.02	62.1898
17.106	62.0717
17.192	62.1001
17.278	62.1938
17.364	62.2161
17.45	62.1615
17.536	62.1235
17.622	62.1561
17.708	62.245
17.794	62.3396
17.88	62.3887
17.966	62.3749
18.052	62.321
18.138	62.2568
18.224	62.2274
18.31	62.2829
18.396	62.397
18.482	62.4418
18.568	62.2947
18.654	61.9572
18.74	61.5614
18.826	61.274
18.912	61.1954
18.998	61.3026
19.084	61.4717
19.17	61.5876
19.256	61.6229
19.342	61.6247
19.428	61.6506
19.514	61.7167
19.6	61.7819
19.686	61.7994
19.772	61.7704
19.858	61.7014
19.944	61.557
20.03	61.309
20.116	61.0093
20.202	60.7541
20.288	60.6064
20.374	60.5697
20.46	60.6032
20.546	60.6503
20.632	60.6574
20.718	60.599
20.804	60.4911
20.89	60.3824
20.976	60.3197
21.062	60.3218
21.148	60.3817
21.234	60.4751
21.32	60.5443
21.406	60.4976
21.492	60.2577
21.578	59.8271
21.664	59.3195
21.75	58.9128
21.836	58.7555
21.922	58.8878
22.008	59.2326
22.094	59.655
22.18	60.029
22.266	60.2781
22.352	60.3904
22.438	60.4128
22.524	60.3963
22.61	60.353
22.696	60.2282
22.782	59.9466
22.868	59.4864
22.954	58.9237
23.04	58.3927
23.126	58.0359
23.212	57.9177
23.298	58.0069
23.384	58.197
23.47	58.3743
23.556	58.4525
23.642	58.3913
23.728	58.1615
23.814	57.735
23.9	57.0852
23.986	56.2105
24.072	55.1828
24.158	54.183
24.244	53.4588
24.33	53.2706
24.416	53.7842
24.502	54.9397
24.588	56.4558
24.674	57.945
24.76	59.0139
24.846	59.4294
24.932	59.1908
25.018	58.5156
25.104	57.6896
25.19	56.926
25.276	56.267
25.362	55.6262
25.448	54.836
25.534	53.8365
25.62	52.7546
25.706	51.805
25.792	51.1523
25.878	50.93
25.964	51.3814
26.05	52.8242
26.136	55.4404
26.222	59.0253
26.308	62.9242
26.394	66.2225
26.48	68.1317
26.566	68.1967
26.652	66.5206
26.738	63.3683
26.824	59.1225
26.91	54.1103
26.996	48.8877
27.028	47.4951