Folder: Masteroppgave/Bakgrunnsmateriale/MATLAB/FTIR/ftir_data/subBb/Mapping_36 (part 2)

File: C-4040-8_e39.asc
PE IR       SPECTRUM    SPECTRUM    ASCII       PEDS        1.60
  -1
C-A138~1.ASC
17/05/02
12:56:27.00
17/05/02
12:56:53.00
tln
$C-4040-8_e0039$<ebV0>[-23.3,12.1,10.0,0.0,22,1,0]
27.028
64

2002,4.07
MIRTGS : RIGHTBACK : INTERNAL 2
MIR : ON : INTERNAL 2
OPTKBR

0.200000
8
8.000000
FILLER
SINGLE
SPECTRUM
UNLOCKED 256

DOUBLE

COMBINED
1
0
0

0.002000
BACKG

1
0
TRUE
51149
0
LEFT NOT FITTED RIGHT NOT FITTED 0
NONE
NONE
15600
12
4.427000
51148
TRUE
1 0 8 72 0 0 0 0

15798

#HDR
-1
-1
#GR
µM
EGY
2.38419e-05
0.0
1.282000
0.002000
12874
8
2.449373
0.006222
#DATA
1.282000	 0.030851
1.368000	 0.108903
1.454000	 0.166136
1.540000	 0.220191
1.626000	 0.309725
1.712000	 0.393093
1.798000	 0.462371
1.884000	 0.576318
1.970000	 0.720958
2.056000	 0.831885
2.142000	 0.909342
2.228000	 1.005463
2.314000	 1.092680
2.400000	 1.216547
2.486000	 1.367371
2.572000	 1.437557
2.658000	 1.556659
2.744000	 1.580202
2.830000	 1.622866
2.916000	 1.584785
3.002000	 1.674435
3.088000	 1.777712
3.174000	 1.809192
3.260000	 1.928131
3.346000	 2.027503
3.432000	 1.879712
3.518000	 2.052037
3.604000	 2.222800
3.690000	 2.250327
3.776000	 2.224071
3.862000	 2.233427
3.948000	 2.303871
4.034000	 2.323311
4.120000	 2.278040
4.206000	 2.247627
4.292000	 2.281071
4.378000	 2.353332
4.464000	 2.375508
4.550000	 2.352626
4.636000	 2.331931
4.722000	 2.332596
4.808000	 2.340518
4.894000	 2.408953
4.980000	 2.445042
5.066000	 2.434396
5.152000	 2.407974
5.238000	 2.375216
5.324000	 2.368003
5.410000	 2.383560
5.496000	 2.411804
5.582000	 2.417724
5.668000	 2.403726
5.754000	 2.327896
5.840000	 2.291618
5.926000	 2.245578
6.012000	 2.205637
6.098000	 2.147855
6.184000	 2.042119
6.270000	 2.003750
6.356000	 1.974903
6.442000	 1.941020
6.528000	 2.074709
6.614000	 2.082870
6.700000	 1.670709
6.786000	 1.969309
6.872000	 1.787221
6.958000	 1.857678
7.044000	 1.849052
7.130000	 1.719288
7.216000	 1.781368
7.302000	 1.809169
7.388000	 1.809379
7.474000	 1.814807
7.560000	 1.843637
7.646000	 1.847868
7.732000	 1.847316
7.818000	 1.835377
7.904000	 1.723072
7.990000	 1.794431
8.076000	 1.826773
8.161999	 1.810305
8.248000	 1.758319
8.334000	 1.738872
8.420000	 1.728079
8.506000	 1.694096
8.592000	 1.642848
8.678000	 1.607731
8.763999	 1.587237
8.850000	 1.543822
8.936000	 1.488513
9.022000	 1.439844
9.108000	 1.419692
9.193999	 1.421674
9.280000	 1.422001
9.366000	 1.431721
9.452000	 1.393317
9.538000	 1.298432
9.624000	 1.378419
9.710000	 1.368303
9.795999	 1.353460
9.882000	 1.368408
9.968000	 1.388369
10.054	1.392236
10.14	1.379381
10.226	1.361858
10.312	1.342115
10.398	1.314267
10.484	1.287520
10.57	1.267096
10.656	1.251941
10.742	1.233591
10.828	1.215668
10.914	1.195758
11	1.167439
11.086	1.153680
11.172	1.142685
11.258	1.115813
11.344	1.058310
11.43	1.025013
11.516	1.056714
11.602	1.085506
11.688	1.087104
11.774	1.077802
11.86	1.066685
11.946	1.031965
12.032	0.938701
12.118	0.843472
12.204	0.873376
12.29	0.932129
12.376	0.943877
12.462	0.940933
12.548	0.944176
12.634	0.956060
12.72	0.970040
12.806	0.975059
12.892	0.972799
12.978	0.970320
13.064	0.965978
13.15	0.960007
13.236	0.955483
13.322	0.950064
13.408	0.942614
13.494	0.932999
13.58	0.921127
13.666	0.908693
13.752	0.895653
13.838	0.882683
13.924	0.870000
14.01	0.856894
14.096	0.843565
14.182	0.829889
14.268	0.815233
14.354	0.793723
14.44	0.761741
14.526	0.733864
14.612	0.727403
14.698	0.731593
14.784	0.730293
14.87	0.723537
14.956	0.714577
15.042	0.704987
15.128	0.695508
15.214	0.686346
15.3	0.677429
15.386	0.668306
15.472	0.659240
15.558	0.650050
15.644	0.639543
15.73	0.628671
15.816	0.619549
15.902	0.611776
15.988	0.603414
16.074	0.594138
16.16	0.583773
16.246	0.570937
16.332	0.554405
16.418	0.536858
16.504	0.524090
16.59	0.519438
16.676	0.519889
16.762	0.519945
16.848	0.517256
16.934	0.512913
17.02	0.508728
17.106	0.505630
17.192	0.503395
17.278	0.501210
17.364	0.498835
17.45	0.496606
17.536	0.494129
17.622	0.490605
17.708	0.485993
17.794	0.481178
17.88	0.476781
17.966	0.472596
18.052	0.468297
18.138	0.463664
18.224	0.458798
18.31	0.453967
18.396	0.449218
18.482	0.444421
18.568	0.439625
18.654	0.434927
18.74	0.430250
18.826	0.425215
18.912	0.419491
18.998	0.413451
19.084	0.407646
19.17	0.402337
19.256	0.397134
19.342	0.391863
19.428	0.386419
19.514	0.380805
19.6	0.375022
19.686	0.369051
19.772	0.362758
19.858	0.356060
19.944	0.349067
20.03	0.341882
20.116	0.334767
20.202	0.327779
20.288	0.320848
20.374	0.313838
20.46	0.306597
20.546	0.299079
20.632	0.291514
20.718	0.284248
20.804	0.277525
20.89	0.271499
20.976	0.265867
21.062	0.260284
21.148	0.254451
21.234	0.248340
21.32	0.241997
21.406	0.235555
21.492	0.229081
21.578	0.222563
21.664	0.215962
21.75	0.209160
21.836	0.202210
21.922	0.195118
22.008	0.188212
22.094	0.181768
22.18	0.176094
22.266	0.171289
22.352	0.167059
22.438	0.163067
22.524	0.158952
22.61	0.154597
22.696	0.150114
22.782	0.145590
22.868	0.141121
22.954	0.136657
23.04	0.132045
23.126	0.127194
23.212	0.122098
23.298	0.116771
23.384	0.111263
23.47	0.105653
23.556	0.100070
23.642	0.094640
23.728	0.089440
23.814	0.084611
23.9	0.080199
23.986	0.076076
24.072	0.072236
24.158	0.068568
24.244	0.065005
24.33	0.061571
24.416	0.058229
24.502	0.054981
24.588	0.051871
24.674	0.048980
24.76	0.046339
24.846	0.043900
24.932	0.041565
25.018	0.039285
25.104	0.036937
25.19	0.034515
25.276	0.031994
25.362	0.029494
25.448	0.027132
25.534	0.024983
25.62	0.023124
25.706	0.021545
25.792	0.020109
25.878	0.018833
25.964	0.017640
26.05	0.016404
26.136	0.015202
26.222	0.013968
26.308	0.012809
26.394	0.011690
26.48	0.010655
26.566	0.009721
26.652	0.008883
26.738	0.008129
26.824	0.007474
26.91	0.006881
26.996	0.006365
27.028	0.006222

File: C-4040-8_e39_cm-1.asc
PE IR       SPECTRUM    SPECTRUM    ASCII       PEDS        1.60
  -1
C-1B25~1.ASC
17/05/02
12:56:27.00
17/05/02
12:56:27.00
tln
$C-4040-8_e0039$<ebV0>[-23.3,12.1,10.0,0.0,22,1,0]
370
64

2002,4.07
MIRTGS : RIGHTBACK : INTERNAL 2
MIR : ON : INTERNAL 2
OPTKBR

0.200000
8
8.000000
FILLER
SINGLE
SPECTRUM
UNLOCKED 256

DOUBLE

COMBINED
1
0
0

1.000000
BACKG

1
0
TRUE
51149
0
LEFT NOT FITTED RIGHT NOT FITTED 0
NONE
NONE
15600
12
4.427000
51148
TRUE
1 0 8 72 0 0 0 0

15798

#HDR
-1
-1
#GR
CM-1
EGY
2.38419e-05
0.0
7800
-1.000000
7431
8
2.449369
0.006222
#DATA
7800	0.030851
7775	0.039172
7750	0.043630
7725	0.048470
7700	0.054645
7675	0.055408
7650	0.060296
7625	0.064611
7600	0.068426
7575	0.068664
7550	0.074458
7525	0.078010
7500	0.083398
7475	0.086736
7450	0.089097
7425	0.090503
7400	0.096988
7375	0.100731
7350	0.100827
7325	0.105690
7300	0.112223
7275	0.110411
7250	0.114679
7225	0.115990
7200	0.120997
7175	0.127387
7150	0.128841
7125	0.133514
7100	0.136804
7075	0.140619
7050	0.142288
7025	0.148248
7000	0.150084
6975	0.155711
6950	0.158405
6925	0.160813
6900	0.164508
6875	0.166296
6850	0.169444
6825	0.173425
6800	0.177955
6775	0.180602
6750	0.185441
6725	0.191879
6700	0.189137
6675	0.195240
6650	0.195789
6625	0.197577
6600	0.202322
6575	0.205159
6550	0.210070
6525	0.216150
6500	0.217461
6475	0.226354
6450	0.230431
6425	0.236392
6400	0.238370
6375	0.245523
6350	0.251078
6325	0.258445
6300	0.266218
6275	0.272321
6250	0.282621
6225	0.288534
6200	0.294923
6175	0.304126
6150	0.309729
6125	0.316858
6100	0.324034
6075	0.335526
6050	0.338125
6025	0.350666
6000	0.356912
5975	0.362706
5950	0.370573
5925	0.374579
5900	0.378847
5875	0.385999
5850	0.390982
5825	0.396132
5800	0.407290
5775	0.411534
5750	0.415706
5725	0.423955
5700	0.428175
5675	0.431752
5650	0.434255
5625	0.440454
5600	0.445246
5575	0.454282
5550	0.466871
5525	0.478672
5500	0.488567
5475	0.498461
5450	0.505256
5425	0.513124
5400	0.523424
5375	0.533175
5350	0.547933
5325	0.567007
5300	0.595307
5275	0.607800
5250	0.616359
5225	0.638413
5200	0.647377
5175	0.662922
5150	0.675392
5125	0.689506
5100	0.703883
5075	0.721716
5050	0.740551
5025	0.754189
5000	0.769472
4975	0.780844
4950	0.794649
4925	0.800609
4900	0.812983
4875	0.826406
4850	0.837993
4825	0.849795
4800	0.867819
4775	0.878024
4750	0.892615
4725	0.900578
4700	0.907230
4675	0.908708
4650	0.914573
4625	0.925016
4600	0.937271
4575	0.952363
4550	0.974822
4525	0.986766
4500	1.001572
4475	1.006507
4450	1.011228
4425	1.012468
4400	1.017189
4375	1.056885
4350	1.066589
4325	1.090192
4300	1.116514
4275	1.143693
4250	1.167464
4225	1.184487
4200	1.197171
4175	1.210951
4150	1.222443
4125	1.239848
4100	1.263642
4075	1.299166
4050	1.328611
4025	1.364064
4000	1.388406
3975	1.409220
3950	1.418495
3925	1.428270
3900	1.434493
3875	1.450538
3850	1.462960
3825	1.491713
3800	1.517534
3775	1.549625
3750	1.547145
3725	1.570701
3700	1.579403
3675	1.568698
3650	1.572728
3625	1.585316
3600	1.598668
3575	1.609277
3550	1.619005
3525	1.625275
3500	1.622486
3475	1.614570
3450	1.595044
3425	1.584267
3400	1.595926
3375	1.614165
3350	1.646137
3325	1.683235
3300	1.718831
3275	1.747941
3250	1.770401
3225	1.781487
3200	1.790046
3175	1.792287
3150	1.809525
3125	1.836895
3100	1.871633
3075	1.919770
3050	1.955819
3025	1.963591
3000	2.018165
2975	1.999235
2950	1.916599
2925	1.767873
2900	1.963591
2875	1.999187
2850	1.984548
2825	2.122282
2800	2.177500
2775	2.222299
2750	2.249526
2725	2.255058
2700	2.243852
2675	2.237725
2650	2.224421
2625	2.220797
2600	2.226591
2575	2.253937
2550	2.282762
2525	2.311706
2500	2.321600
2475	2.319884
2450	2.300953
2425	2.275657
2400	2.258443
2375	2.244257
2350	2.261567
2325	2.291822
2300	2.333259
2275	2.363944
2250	2.373743
2225	2.373218
2200	2.354764
2175	2.336311
2150	2.330374
2125	2.331018
2100	2.333664
2075	2.348256
2050	2.398705
2025	2.433943
2000	2.448129
1975	2.435231
1950	2.414703
1925	2.393531
1900	2.365612
1875	2.368235
1850	2.383542
1825	2.403569
1800	2.419137
1775	2.407860
1750	2.372479
1725	2.318525
1700	2.252912
1675	2.226519
1650	2.155399
1625	2.101659
1600	1.985502
1575	1.976060
1550	1.948833
1525	2.104735
1500	1.845741
1475	1.969408
1450	1.760864
1425	1.859712
1400	1.727271
1375	1.805925
1350	1.807904
1325	1.841855
1300	1.847028
1275	1.819729
1250	1.805782
1225	1.809835
1200	1.738858
1175	1.692128
1150	1.605129
1125	1.519298
1100	1.421403
1075	1.422786
1050	1.294445
1025	1.357936
1000	1.391792
975	 1.355242
950	 1.276540
925	 1.218914
900	 1.151371
875	 1.024937
850	 1.078748
825	 0.842142
800	 0.941157
775	 0.972414
750	 0.949168
725	 0.889348
700	 0.811648
675	 0.728273
650	 0.668454
625	 0.602173
600	 0.519776
575	 0.498104
550	 0.461196
525	 0.410056
500	 0.344419
475	 0.260901
450	 0.173640
425	 0.101780
400	 0.039768
375	 0.008749
370	 0.006222

File: C-4040-8_t01.asc
PE IR       SPECTRUM    SPECTRUM    ASCII       PEDS        1.60
  -1
C-4040~4.ASC
17/05/02
10:54:46.00
17/05/02
10:55:12.00
tln
$C-4040-8_t0001$<tbV0>[12.5,-13.0,8.0,0.0,22,1,0]
27.028
64

2002,4.07
MIRTGS : RIGHTBACK : INTERNAL 2
MIR : ON : INTERNAL 2
OPTKBR

0.200000
8
8.000000
FILLER
RATIO
SPECTRUM
UNLOCKED 256

DOUBLE
64
COMBINED
1
0
0

0.002000
RATIO

1
0
TRUE
51149
0
LEFT NOT FITTED RIGHT NOT FITTED 0
NONE
NONE
15600
12
4.427000
51148
TRUE
1 0 8 72 0 0 0 0

15798

#HDR
-1
-1
#GR
µM
%T
2.38419e-05
0.0
1.282000
0.002000
12874
8
80.0974
52.3091
#DATA
1.282000	 74.1576
1.368000	 67.576
1.454000	 63.7621
1.540000	 64.7605
1.626000	 64.6666
1.712000	 63.3802
1.798000	 65.288
1.884000	 65.2215
1.970000	 64.5126
2.056000	 64.5987
2.142000	 64.7244
2.228000	 64.7562
2.314000	 64.6701
2.400000	 64.6485
2.486000	 64.5398
2.572000	 64.7765
2.658000	 64.9302
2.744000	 65.015
2.830000	 64.8177
2.916000	 64.7664
3.002000	 64.7804
3.088000	 64.8728
3.174000	 64.8103
3.260000	 64.8438
3.346000	 64.8177
3.432000	 64.6428
3.518000	 64.7104
3.604000	 65.0081
3.690000	 64.8437
3.776000	 64.8968
3.862000	 64.8055
3.948000	 65.0323
4.034000	 64.9447
4.120000	 65.0086
4.206000	 64.8761
4.292000	 65.0673
4.378000	 64.946
4.464000	 64.9669
4.550000	 64.8858
4.636000	 65.0644
4.722000	 64.8061
4.808000	 64.9551
4.894000	 64.9673
4.980000	 65.0262
5.066000	 64.8968
5.152000	 64.9837
5.238000	 65.0411
5.324000	 64.9944
5.410000	 64.8571
5.496000	 64.9779
5.582000	 65.0122
5.668000	 64.8839
5.754000	 64.7714
5.840000	 64.8514
5.926000	 64.7946
6.012000	 64.8621
6.098000	 64.8651
6.184000	 64.7758
6.270000	 64.7746
6.356000	 64.7061
6.442000	 64.782
6.528000	 64.7064
6.614000	 64.7077
6.700000	 64.8276
6.786000	 64.6714
6.872000	 64.9985
6.958000	 64.8826
7.044000	 64.798
7.130000	 64.7382
7.216000	 64.7038
7.302000	 64.7031
7.388000	 64.6864
7.474000	 64.8871
7.560000	 64.697
7.646000	 64.6039
7.732000	 64.8395
7.818000	 64.5586
7.904000	 64.5802
7.990000	 64.5116
8.076000	 64.6064
8.161999	 64.574
8.248000	 64.7003
8.334000	 64.7244
8.420000	 64.6251
8.506000	 64.5001
8.592000	 64.5386
8.678000	 64.5971
8.763999	 64.3398
8.850000	 64.4389
8.936000	 64.4696
9.022000	 64.4531
9.108000	 64.5433
9.193999	 64.3208
9.280000	 64.4903
9.366000	 64.346
9.452000	 64.3786
9.538000	 64.326
9.624000	 64.3434
9.710000	 64.4318
9.795999	 64.2105
9.882000	 64.3003
9.968000	 64.1731
10.054	64.2765
10.14	64.0975
10.226	64.1872
10.312	63.9858
10.398	64.3728
10.484	64.2013
10.57	64.2204
10.656	64.1052
10.742	64.252
10.828	64.3623
10.914	64.4291
11	64.0987
11.086	64.0629
11.172	64.1087
11.258	63.6597
11.344	64.1675
11.43	64.5836
11.516	64.3292
11.602	63.5968
11.688	63.7958
11.774	64.4453
11.86	64.0305
11.946	64.1127
12.032	63.9537
12.118	63.6106
12.204	63.5218
12.29	63.3625
12.376	63.5376
12.462	63.7059
12.548	63.1746
12.634	63.3472
12.72	63.5382
12.806	63.6082
12.892	63.7151
12.978	63.7307
13.064	63.5905
13.15	63.4422
13.236	63.3884
13.322	63.5662
13.408	63.7381
13.494	63.4592
13.58	63.2376
13.666	63.1998
13.752	63.1689
13.838	63.3369
13.924	63.634
14.01	63.5818
14.096	63.2182
14.182	62.9589
14.268	62.8107
14.354	62.7434
14.44	62.759
14.526	62.7357
14.612	62.6779
14.698	62.6203
14.784	62.5815
14.87	62.7391
14.956	62.8638
15.042	62.7986
15.128	62.6865
15.214	62.4411
15.3	62.1562
15.386	62.1732
15.472	62.3443
15.558	62.2021
15.644	61.8975
15.73	61.9316
15.816	62.2236
15.902	62.3649
15.988	62.3081
16.074	62.2846
16.16	62.3347
16.246	62.297
16.332	62.1548
16.418	62.125
16.504	62.2765
16.59	62.3864
16.676	62.3192
16.762	62.1639
16.848	62.0416
16.934	62.0101
17.02	62.0603
17.106	62.1051
17.192	62.0578
17.278	61.9829
17.364	61.9841
17.45	61.9854
17.536	61.876
17.622	61.7322
17.708	61.6776
17.794	61.6889
17.88	61.6831
17.966	61.659
18.052	61.6253
18.138	61.5234
18.224	61.3231
18.31	61.0868
18.396	60.8718
18.482	60.6716
18.568	60.4852
18.654	60.3603
18.74	60.3461
18.826	60.4408
18.912	60.6064
18.998	60.8069
19.084	60.9994
19.17	61.1031
19.256	61.034
19.342	60.8017
19.428	60.5504
19.514	60.4555
19.6	60.5535
19.686	60.7048
19.772	60.7333
19.858	60.5896
19.944	60.3762
20.03	60.2313
20.116	60.1881
20.202	60.1388
20.288	59.9395
20.374	59.5559
20.46	59.1207
20.546	58.8364
20.632	58.8075
20.718	58.9546
20.804	59.0924
20.89	59.0834
20.976	58.9333
21.062	58.7523
21.148	58.6552
21.234	58.6925
21.32	58.8412
21.406	59.0464
21.492	59.2548
21.578	59.4199
21.664	59.4941
21.75	59.4352
21.836	59.2254
21.922	58.8836
22.008	58.4564
22.094	57.993
22.18	57.5417
22.266	57.1615
22.352	56.9255
22.438	56.9003
22.524	57.1018
22.61	57.461
22.696	57.8366
22.782	58.0909
22.868	58.1534
22.954	58.0483
23.04	57.8457
23.126	57.6138
23.212	57.3851
23.298	57.15
23.384	56.8819
23.47	56.5696
23.556	56.2291
23.642	55.9101
23.728	55.6849
23.814	55.6105
23.9	55.7011
23.986	55.9196
24.072	56.197
24.158	56.4754
24.244	56.7432
24.33	57.0433
24.416	57.4403
24.502	57.9362
24.588	58.4318
24.674	58.7431
24.76	58.6463
24.846	57.9974
24.932	56.8146
25.018	55.3157
25.104	53.848
25.19	52.7725
25.276	52.3169
25.362	52.5466
25.448	53.3235
25.534	54.4023
25.62	55.532
25.706	56.5704
25.792	57.4283
25.878	58.0835
25.964	58.7001
26.05	59.5585
26.136	60.8733
26.222	62.6575
26.308	64.5907
26.394	66.1462
26.48	66.9232
26.566	66.8042
26.652	66.088
26.738	64.9943
26.824	63.7116
26.91	62.3409
26.996	61.4208
27.028	61.2886

File: C-4040-8_t01_cm-1.asc
PE IR       SPECTRUM    SPECTRUM    ASCII       PEDS        1.60
  -1
C-4040~3.ASC
17/05/02
10:54:46.00
17/05/02
10:54:46.00
tln
$C-4040-8_t0001$<tbV0>[12.5,-13.0,8.0,0.0,22,1,0]
370
64

2002,4.07
MIRTGS : RIGHTBACK : INTERNAL 2
MIR : ON : INTERNAL 2
OPTKBR

0.200000
8
8.000000
FILLER
RATIO
SPECTRUM
UNLOCKED 256

DOUBLE
64
COMBINED
1
0
0

1.000000
RATIO

1
0
TRUE
51149
0
LEFT NOT FITTED RIGHT NOT FITTED 0
NONE
NONE
15600
12
4.427000
51148
TRUE
1 0 8 72 0 0 0 0

15798

#HDR
-1
-1
#GR
CM-1
%T
2.38419e-05
0.0
7800
-1.000000
7431
8
80.4978
52.3418
#DATA
7800	74.1576
7775	66.5333
7750	69.8815
7725	64.9711
7700	61.2588
7675	70.1574
7650	66.1051
7625	66.8941
7600	60.0641
7575	69.8527
7550	66.8622
7525	64.1074
7500	62.4108
7475	65.0326
7450	68.5417
7425	67.9136
7400	67.1909
7375	63.8438
7350	65.4823
7325	63.3329
7300	65.4895
7275	65.7354
7250	64.5494
7225	65.1664
7200	65.1947
7175	62.7994
7150	62.562
7125	64.1856
7100	65.2076
7075	63.3093
7050	65.8812
7025	62.6766
7000	63.7207
6975	64.59
6950	62.6818
6925	63.6031
6900	63.3087
6875	63.9849
6850	65.3248
6825	64.3713
6800	64.2449
6775	65.0069
6750	63.9868
6725	66.1296
6700	65.7567
6675	62.72
6650	62.0843
6625	62.1636
6600	65.7888
6575	65.6016
6550	64.5792
6525	64.9405
6500	64.4453
6475	63.9087
6450	66.1063
6425	64.8922
6400	62.7368
6375	63.6805
6350	65.4939
6325	63.9466
6300	62.9003
6275	64.9101
6250	64.0725
6225	64.3056
6200	64.0246
6175	65.2297
6150	64.6579
6125	63.9334
6100	65.2043
6075	64.6369
6050	64.2498
6025	64.593
6000	64.6615
5975	64.0621
5950	64.1911
5925	63.6345
5900	64.2127
5875	64.8974
5850	64.4674
5825	64.1477
5800	65.1239
5775	64.2356
5750	64.1769
5725	64.6062
5700	64.5765
5675	65.303
5650	64.9049
5625	64.5133
5600	64.6631
5575	65.1142
5550	64.5144
5525	64.7449
5500	64.6936
5475	64.2273
5450	64.6498
5425	63.8696
5400	64.5598
5375	64.7639
5350	63.6818
5325	64.1878
5300	66.3384
5275	65.1316
5250	62.6965
5225	60.2689
5200	62.3298
5175	65.7311
5150	64.1363
5125	64.6395
5100	64.4005
5075	64.4897
5050	64.4754
5025	64.1497
5000	64.5041
4975	64.1814
4950	64.8591
4925	64.686
4900	64.6496
4875	64.4687
4850	63.8693
4825	64.4689
4800	64.3037
4775	64.523
4750	64.5016
4725	64.6565
4700	65.0226
4675	64.4422
4650	64.4748
4625	64.7048
4600	64.9343
4575	64.5489
4550	65.261
4525	64.0012
4500	64.8976
4475	64.6431
4450	64.8754
4425	64.1031
4400	80.4978
4375	64.6176
4350	65.1114
4325	64.6569
4300	64.1701
4275	65.0043
4250	64.7973
4225	64.7025
4200	64.5093
4175	64.6966
4150	64.5572
4125	64.8127
4100	64.7184
4075	64.7515
4050	64.6872
4025	64.6201
4000	64.7174
3975	64.9265
3950	64.6882
3925	64.8738
3900	64.8681
3875	64.8689
3850	64.695
3825	64.6956
3800	64.8951
3775	64.6995
3750	64.7799
3725	64.8301
3700	64.8698
3675	64.7829
3650	64.9628
3625	64.8566
3600	64.8422
3575	64.9532
3550	64.7775
3525	64.8719
3500	64.7221
3475	64.9007
3450	64.6827
3425	64.7855
3400	64.7836
3375	64.8416
3350	64.8132
3325	64.7296
3300	64.8176
3275	64.7712
3250	64.836
3225	64.7743
3200	64.8232
3175	64.8421
3150	64.8028
3125	64.7561
3100	64.8546
3075	64.8823
3050	64.7751
3025	64.871
3000	64.8973
2975	64.7759
2950	64.618
2925	64.5563
2900	64.7689
2875	64.7264
2850	64.7532
2825	64.9836
2800	64.9205
2775	65.0101
2750	64.8852
2725	64.9706
2700	64.9748
2675	64.9162
2650	64.8783
2625	64.8369
2600	64.8403
2575	64.8707
2550	64.9362
2525	64.9562
2500	64.974
2475	64.9852
2450	64.8462
2425	65.0792
2400	65.0561
2375	64.9149
2350	64.9919
2325	65.0311
2300	64.9892
2275	64.8859
2250	64.8302
2225	64.9035
2200	64.8862
2175	64.9624
2150	64.8881
2125	64.811
2100	64.9902
2075	65.0297
2050	65.0067
2025	64.9057
2000	64.977
1975	64.8794
1950	64.9665
1925	64.9713
1900	64.9673
1875	65.0061
1850	64.8444
1825	65.0415
1800	65.0271
1775	64.9377
1750	64.8169
1725	64.8123
1700	64.931
1675	64.8597
1650	64.8445
1625	64.7677
1600	64.7803
1575	64.7249
1550	64.7704
1525	64.7954
1500	64.7541
1475	64.6965
1450	64.7087
1425	64.7384
1400	64.772
1375	64.7338
1350	64.7408
1325	64.6968
1300	64.7093
1275	64.5578
1250	64.5332
1225	64.5714
1200	64.7264
1175	64.5017
1150	64.5998
1125	64.4504
1100	64.5261
1075	64.502
1050	64.3096
1025	64.2858
1000	64.1883
975	 64.1114
950	 64.1601
925	 64.3125
900	 64.1261
875	 64.581
850	 64.4174
825	 63.607
800	 63.4672
775	 63.7249
750	 63.604
725	 63.2164
700	 62.7892
675	 62.6162
650	 62.1705
625	 62.2984
600	 62.3332
575	 61.9921
550	 61.4312
525	 60.9231
500	 60.2685
475	 58.7693
450	 57.342
425	 56.3352
400	 55.6379
375	 65.9257
370	 61.2886

File: C-4040-8_t02.asc
PE IR       SPECTRUM    SPECTRUM    ASCII       PEDS        1.60
  -1
C-A522~1.ASC
17/05/02
10:59:27.00
17/05/02
10:59:53.00
tln
$C-4040-8_t0002$<tbV0>[7.5,-13.0,8.0,0.0,22,1,0]
27.028
64

2002,4.07
MIRTGS : RIGHTBACK : INTERNAL 2
MIR : ON : INTERNAL 2
OPTKBR

0.200000
8
8.000000
FILLER
RATIO
SPECTRUM
UNLOCKED 256

DOUBLE
64
COMBINED
1
0
0

0.002000
RATIO

1
0
TRUE
51149
0
LEFT NOT FITTED RIGHT NOT FITTED 0
NONE
NONE
15600
12
4.427000
51148
TRUE
1 0 8 72 0 0 0 0

15798

#HDR
-1
-1
#GR
µM
%T
2.38419e-05
0.0
1.282000
0.002000
12874
8
70.9828
12.3582
#DATA
1.282000	 64.4936
1.368000	 61.0991
1.454000	 64.1893
1.540000	 64.3787
1.626000	 63.2452
1.712000	 63.6544
1.798000	 62.9009
1.884000	 62.2971
1.970000	 63.342
2.056000	 63.026
2.142000	 63.0717
2.228000	 62.7061
2.314000	 62.3617
2.400000	 61.9985
2.486000	 61.8525
2.572000	 61.5237
2.658000	 60.9003
2.744000	 60.5977
2.830000	 59.6814
2.916000	 59.2001
3.002000	 58.4806
3.088000	 57.7148
3.174000	 57.2589
3.260000	 56.4152
3.346000	 55.7918
3.432000	 54.8189
3.518000	 54.3019
3.604000	 53.8036
3.690000	 53.151
3.776000	 52.3137
3.862000	 51.7646
3.948000	 51.1567
4.034000	 50.5876
4.120000	 49.8526
4.206000	 49.2944
4.292000	 48.8073
4.378000	 48.2549
4.464000	 47.6376
4.550000	 47.0753
4.636000	 46.7958
4.722000	 46.0341
4.808000	 45.4695
4.894000	 45.0077
4.980000	 44.5777
5.066000	 44.124
5.152000	 43.8223
5.238000	 43.3009
5.324000	 42.9151
5.410000	 42.4791
5.496000	 42.1942
5.582000	 41.7649
5.668000	 41.3549
5.754000	 40.9814
5.840000	 40.6078
5.926000	 40.4505
6.012000	 39.9952
6.098000	 39.7694
6.184000	 39.3728
6.270000	 39.0065
6.356000	 38.6763
6.442000	 38.5316
6.528000	 38.1655
6.614000	 38.0704
6.700000	 37.6245
6.786000	 37.4487
6.872000	 37.1718
6.958000	 37.058
7.044000	 36.6847
7.130000	 36.3848
7.216000	 36.3479
7.302000	 36.0745
7.388000	 35.8528
7.474000	 35.6829
7.560000	 35.4328
7.646000	 35.2624
7.732000	 35.0444
7.818000	 34.7891
7.904000	 34.5795
7.990000	 34.5284
8.076000	 34.3268
8.161999	 33.9675
8.248000	 33.9874
8.334000	 33.7717
8.420000	 33.5756
8.506000	 33.4788
8.592000	 33.1841
8.678000	 33.242
8.763999	 32.9398
8.850000	 32.8402
8.936000	 32.7214
9.022000	 32.5802
9.108000	 32.417
9.193999	 32.3184
9.280000	 32.2173
9.366000	 32.037
9.452000	 31.8105
9.538000	 31.8079
9.624000	 31.6384
9.710000	 31.4072
9.795999	 31.2679
9.882000	 31.303
9.968000	 31.1111
10.054	31.007
10.14	30.7894
10.226	30.7769
10.312	30.7212
10.398	30.4858
10.484	30.137
10.57	29.9109
10.656	30.0678
10.742	30.177
10.828	29.6922
10.914	29.5443
11	29.5523
11.086	29.1568
11.172	29.1482
11.258	29.1692
11.344	29.3767
11.43	29.1314
11.516	28.4688
11.602	28.2217
11.688	28.376
11.774	28.4532
11.86	28.6727
11.946	28.6982
12.032	28.3879
12.118	27.8836
12.204	27.8988
12.29	28.0065
12.376	28.3974
12.462	28.2072
12.548	27.5492
12.634	27.1959
12.72	27.1075
12.806	26.9538
12.892	26.9459
12.978	26.9951
13.064	27.0487
13.15	26.9546
13.236	26.836
13.322	26.533
13.408	26.2495
13.494	26.1745
13.58	26.0915
13.666	25.8511
13.752	25.7672
13.838	25.6883
13.924	25.538
14.01	25.4648
14.096	25.3614
14.182	25.1738
14.268	25.1113
14.354	25.1118
14.44	25.0022
14.526	24.874
14.612	24.7237
14.698	24.5644
14.784	24.4503
14.87	24.3492
14.956	24.2366
15.042	24.1773
15.128	24.1013
15.214	23.9503
15.3	23.8511
15.386	23.831
15.472	23.7412
15.558	23.5076
15.644	23.3243
15.73	23.2897
15.816	23.2075
15.902	23.0953
15.988	23.0867
16.074	23.0353
16.16	22.8864
16.246	22.771
16.332	22.7086
16.418	22.7211
16.504	22.7923
16.59	22.7276
16.676	22.4892
16.762	22.2702
16.848	22.1747
16.934	22.1487
17.02	22.0858
17.106	21.8794
17.192	21.5564
17.278	21.3253
17.364	21.3376
17.45	21.4794
17.536	21.5016
17.622	21.3309
17.708	21.1077
17.794	20.9666
17.88	20.9173
17.966	20.893
18.052	20.8036
18.138	20.5873
18.224	20.3026
18.31	20.0871
18.396	19.9877
18.482	19.9282
18.568	19.8567
18.654	19.8148
18.74	19.836
18.826	19.8669
18.912	19.8144
18.998	19.6233
19.084	19.3032
19.17	18.9459
19.256	18.6927
19.342	18.6318
19.428	18.7148
19.514	18.8026
19.6	18.7858
19.686	18.6625
19.772	18.5025
19.858	18.3536
19.944	18.2098
20.03	18.0551
20.116	17.8991
20.202	17.7515
20.288	17.6023
20.374	17.4422
20.46	17.2931
20.546	17.187
20.632	17.1148
20.718	17.0156
20.804	16.8341
20.89	16.5836
20.976	16.3385
21.062	16.1705
21.148	16.1104
21.234	16.1504
21.32	16.2671
21.406	16.4354
21.492	16.6266
21.578	16.8087
21.664	16.9513
21.75	17.0411
21.836	17.0952
21.922	17.1563
22.008	17.262
22.094	17.4066
22.18	17.5256
22.266	17.5184
22.352	17.3073
22.438	16.9027
22.524	16.4103
22.61	15.9932
22.696	15.784
22.782	15.8209
22.868	16.041
22.954	16.3067
23.04	16.4833
23.126	16.4847
23.212	16.2969
23.298	15.969
23.384	15.5815
23.47	15.2037
23.556	14.8895
23.642	14.6698
23.728	14.5553
23.814	14.5178
23.9	14.4931
23.986	14.3977
24.072	14.1698
24.158	13.7932
24.244	13.3082
24.33	12.8178
24.416	12.4643
24.502	12.3627
24.588	12.5965
24.674	13.1979
24.76	14.1335
24.846	15.3135
24.932	16.5481
25.018	17.5901
25.104	18.2537
25.19	18.4668
25.276	18.3256
25.362	18.0724
25.448	17.919
25.534	17.9538
25.62	18.1217
25.706	18.1838
25.792	17.9314
25.878	17.3639
25.964	16.7705
26.05	16.6208
26.136	17.3246
26.222	19.0281
26.308	21.5207
26.394	24.3387
26.48	26.9587
26.566	29.0369
26.652	30.5731
26.738	31.9054
26.824	33.5161
26.91	35.8111
26.996	39.131
27.028	40.1771