Folder: Masteroppgave/Bakgrunnsmateriale/MATLAB/FTIR/ftir_data/subBb/Mapping_121 (part 37)

File: C-4040-8_t84.asc
PE IR       SPECTRUM    SPECTRUM    ASCII       PEDS        1.60
  -1
C-B54A~1.ASC
17/03/27
21:21:52.00
17/03/27
21:22:18.00
tln
$C-4040-8_t0084$<tbV0>[-2.6,5.2,8.0,0.0,27,1,0]
27.028
64

2002,4.07
MIRTGS : RIGHTBACK : INTERNAL 2
MIR : ON : INTERNAL 2
OPTKBR

0.200000
8
8.000000
FILLER
RATIO
SPECTRUM
UNLOCKED 256

DOUBLE
64
COMBINED
1
0
0

0.002000
RATIO

1
0
TRUE
51149
0
LEFT NOT FITTED RIGHT NOT FITTED 0
NONE
NONE
15600
12
4.427000
51148
TRUE
1 0 8 72 0 0 0 0

15798

#HDR
-1
-1
#GR
µM
%T
2.38419e-05
0.0
2.000000
0.002000
12515
8
87.6911
52.7446
#DATA
2.000000	 65.1016
2.084000	 64.8379
2.168000	 65.3264
2.252000	 64.7653
2.336000	 65.2598
2.420000	 65.3337
2.504000	 65.2449
2.588000	 65.4683
2.672000	 65.3499
2.756000	 65.2595
2.840000	 65.3245
2.924000	 65.2846
3.008000	 65.0229
3.092000	 65.1551
3.176000	 65.4114
3.260000	 65.2843
3.344000	 65.1579
3.428000	 64.8336
3.512000	 65.1277
3.596000	 65.335
3.680000	 65.5093
3.764000	 65.4455
3.848000	 65.2955
3.932000	 65.3112
4.016000	 65.2121
4.100000	 65.438
4.184000	 65.4998
4.268000	 65.425
4.352000	 65.4151
4.436000	 65.4592
4.520000	 65.4506
4.604000	 65.5032
4.688000	 65.309
4.772000	 65.4635
4.856000	 65.2637
4.940000	 65.4514
5.024000	 65.4154
5.108000	 65.3595
5.192000	 65.404
5.276000	 65.4303
5.359999	 65.4586
5.444000	 65.5249
5.528000	 65.5252
5.612000	 65.4806
5.696000	 65.5373
5.780000	 65.1632
5.864000	 65.2082
5.948000	 65.3662
6.032000	 65.3369
6.116000	 65.3292
6.200000	 65.144
6.284000	 65.0365
6.368000	 65.151
6.452000	 65.0779
6.536000	 65.2371
6.620000	 65.0817
6.704000	 65.2475
6.788000	 65.2741
6.872000	 64.9426
6.956000	 65.1752
7.040000	 65.3308
7.124000	 65.0897
7.208000	 65.1097
7.292000	 65.0971
7.376000	 65.0514
7.460000	 65.2913
7.544000	 65.1807
7.628000	 65.0354
7.712000	 65.0211
7.796000	 65.167
7.880000	 65.0794
7.964000	 65.0892
8.048000	 65.0721
8.132000	 65.0744
8.216000	 65.1986
8.300000	 65.0919
8.384000	 65.0767
8.468000	 64.9456
8.552000	 64.8396
8.635999	 64.8718
8.719999	 64.8373
8.804000	 64.9632
8.888000	 64.9697
8.972000	 64.7283
9.056000	 64.8885
9.140000	 64.3668
9.224000	 64.9139
9.308000	 64.9189
9.391999	 65.0853
9.475999	 65.0456
9.560000	 65.0125
9.644000	 65.0624
9.728000	 65.0281
9.812000	 65.0503
9.896000	 64.6564
9.980000	 64.9655
10.064	65.0809
10.148	64.9229
10.232	64.8061
10.316	64.5659
10.4	64.6997
10.484	65.1182
10.568	64.9101
10.652	64.7598
10.736	64.3615
10.82	64.2871
10.904	64.5384
10.988	64.5949
11.072	64.6833
11.156	64.7553
11.24	64.8597
11.324	64.8582
11.408	64.8097
11.492	64.8675
11.576	64.8565
11.66	64.5814
11.744	64.2619
11.828	64.4488
11.912	64.7362
11.996	64.9669
12.08	64.7371
12.164	64.3863
12.248	64.3965
12.332	64.5184
12.416	64.4484
12.5	64.4507
12.584	64.2904
12.668	64.4016
12.752	64.5867
12.836	64.6295
12.92	64.4719
13.004	64.338
13.088	64.1631
13.172	64.3466
13.256	64.6611
13.34	64.5667
13.424	64.3266
13.508	64.4341
13.592	64.0431
13.676	63.3701
13.76	63.1564
13.844	63.5058
13.928	63.9025
14.012	63.8599
14.096	63.6709
14.18	63.7386
14.264	64.0856
14.348	64.1072
14.432	63.8482
14.516	63.7663
14.6	63.6567
14.684	63.5164
14.768	63.3443
14.852	63.0608
14.936	62.9838
15.02	63.1584
15.104	63.246
15.188	63.2502
15.272	63.4297
15.356	63.6863
15.44	63.6601
15.524	63.2706
15.608	62.8393
15.692	62.6843
15.776	62.8222
15.86	63.1198
15.944	63.3893
16.028	63.3593
16.112	63.0076
16.196	62.6912
16.28	62.6444
16.364	62.8252
16.448	63.2546
16.532	63.8236
16.616	64.105
16.7	63.8839
16.784	63.4362
16.868	63.0618
16.952	62.8031
17.036	62.6517
17.12	62.6458
17.204	62.7432
17.288	62.85
17.372	62.9794
17.456	63.1678
17.54	63.2651
17.624	63.0754
17.708	62.6885
17.792	62.4181
17.876	62.4039
17.96	62.4646
18.044	62.3947
18.128	62.2345
18.212	62.1575
18.296	62.2117
18.38	62.273
18.464	62.2488
18.548	62.1927
18.632	62.1937
18.716	62.2311
18.8	62.2002
18.884	62.0485
18.968	61.8709
19.052	61.8668
19.136	62.1709
19.22	62.6904
19.304	63.1092
19.388	63.1342
19.472	62.7474
19.556	62.1993
19.64	61.762
19.724	61.5335
19.808	61.4531
19.892	61.4324
19.976	61.4279
20.06	61.4268
20.144	61.411
20.228	61.3697
20.312	61.3321
20.396	61.3552
20.48	61.4746
20.564	61.6539
20.648	61.798
20.732	61.8023
20.816	61.6162
20.9	61.2797
20.984	60.9059
21.068	60.6394
21.152	60.5938
21.236	60.7967
21.32	61.1646
21.404	61.5452
21.488	61.7907
21.572	61.8253
21.656	61.6591
21.74	61.3472
21.824	60.9497
21.908	60.5188
21.992	60.1202
22.076	59.8447
22.16	59.7616
22.244	59.8641
22.328	60.0648
22.412	60.2595
22.496	60.4279
22.58	60.6463
22.664	61.0166
22.748	61.5593
22.832	62.1494
22.916	62.5725
23	62.6094
23.084	62.1927
23.168	61.411
23.252	60.4205
23.336	59.3832
23.42	58.4234
23.504	57.5926
23.588	56.9371
23.672	56.556
23.756	56.5917
23.84	57.1549
23.924	58.24
24.008	59.6905
24.092	61.236
24.176	62.6088
24.26	63.659
24.344	64.4707
24.428	65.3798
24.512	66.8957
24.596	69.4285
24.68	72.9029
24.764	76.5535
24.848	79.168
24.932	79.5282
25.016	77.1063
25.1	72.2859
25.184	66.3542
25.268	60.9269
25.352	57.2212
25.436	55.8976
25.52	56.8386
25.604	59.3727
25.688	62.5546
25.772	65.584
25.856	68.088
25.94	70.0593
26.024	71.7452
26.108	73.4306
26.192	75.3812
26.276	77.7236
26.36	80.5011
26.444	83.3607
26.528	85.5588
26.612	86.1553
26.696	84.3152
26.78	79.7476
26.864	72.6159
26.948	63.3127
27.028	52.7446

File: C-4040-8_t84_cm-1.asc
PE IR       SPECTRUM    SPECTRUM    ASCII       PEDS        1.60
  -1
C-9D6F~1.ASC
17/03/27
21:21:52.00
17/03/27
21:21:52.00
tln
$C-4040-8_t0084$<tbV0>[-2.6,5.2,8.0,0.0,27,1,0]
370
64

2002,4.07
MIRTGS : RIGHTBACK : INTERNAL 2
MIR : ON : INTERNAL 2
OPTKBR

0.200000
8
8.000000
FILLER
RATIO
SPECTRUM
UNLOCKED 256

DOUBLE
64
COMBINED
1
0
0

1.000000
RATIO

1
0
TRUE
51149
0
LEFT NOT FITTED RIGHT NOT FITTED 0
NONE
NONE
15600
12
4.427000
51148
TRUE
1 0 8 72 0 0 0 0

15798

#HDR
-1
-1
#GR
CM-1
%T
2.38419e-05
0.0
5000
-1.000000
4631
8
88.9569
52.7446
#DATA
5000	65.1016
4984	65.5258
4968	64.0293
4952	65.4397
4936	64.5275
4920	65.1923
4904	65.477
4888	65.3904
4872	65.5707
4856	65.0091
4840	64.5835
4824	65.4883
4808	65.1639
4792	64.9809
4776	65.1365
4760	65.5199
4744	65.3322
4728	65.1119
4712	65.2773
4696	64.8984
4680	65.5012
4664	65.0348
4648	65.0709
4632	65.3995
4616	65.4116
4600	64.9578
4584	65.3878
4568	64.9941
4552	64.6787
4536	65.4309
4520	65.476
4504	64.6503
4488	64.6375
4472	64.9867
4456	64.8654
4440	64.7756
4424	64.4484
4408	64.4124
4392	67.0462
4376	82.4577
4360	64.2955
4344	65.0829
4328	64.9614
4312	65.4588
4296	65.2735
4280	65.2073
4264	64.9584
4248	64.72
4232	65.0456
4216	64.7284
4200	64.438
4184	65.1176
4168	65.6233
4152	64.878
4136	65.3959
4120	65.1781
4104	65.2825
4088	65.0739
4072	65.0894
4056	65.2784
4040	65.1486
4024	65.2325
4008	65.1864
3992	65.2563
3976	65.2988
3960	65.265
3944	65.0577
3928	65.1668
3912	65.4807
3896	65.5675
3880	65.5078
3864	65.4687
3848	65.2255
3832	65.2339
3816	65.1941
3800	65.0911
3784	65.2395
3768	65.0788
3752	65.3686
3736	65.3301
3720	65.4792
3704	65.3286
3688	65.2953
3672	65.3625
3656	65.3697
3640	65.3462
3624	65.5376
3608	65.2126
3592	65.4695
3576	65.4418
3560	65.265
3544	65.1335
3528	65.5873
3512	65.271
3496	65.3056
3480	65.3226
3464	65.1633
3448	65.3504
3432	65.4512
3416	65.2698
3400	65.3871
3384	65.4409
3368	65.2564
3352	65.0667
3336	65.3044
3320	65.0175
3304	65.313
3288	65.2271
3272	65.4164
3256	65.149
3240	65.1981
3224	65.1721
3208	65.3915
3192	65.4739
3176	65.1565
3160	65.2598
3144	65.4741
3128	65.5555
3112	64.9315
3096	65.3312
3080	65.2911
3064	65.1402
3048	65.2589
3032	65.5055
3016	65.239
3000	65.2453
2984	65.0604
2968	65.2696
2952	65.1627
2936	65.2663
2920	64.8399
2904	65.1314
2888	65.3119
2872	65.1633
2856	65.0155
2840	65.1382
2824	65.1582
2808	65.3433
2792	65.3172
2776	65.4128
2760	65.3466
2744	65.3965
2728	65.2476
2712	65.5049
2696	65.518
2680	65.2466
2664	65.3419
2648	65.3371
2632	65.4424
2616	65.357
2600	65.3054
2584	65.3722
2568	65.2582
2552	65.3532
2536	65.3524
2520	65.3556
2504	65.1011
2488	65.2586
2472	65.4298
2456	65.2541
2440	65.4375
2424	65.1057
2408	64.9998
2392	65.5033
2376	65.5137
2360	65.3724
2344	65.4238
2328	65.4359
2312	65.4138
2296	65.4255
2280	65.477
2264	65.4421
2248	65.4818
2232	65.5248
2216	65.4973
2200	65.4498
2184	65.3237
2168	65.5653
2152	65.0743
2136	65.2371
2120	65.1844
2104	65.3712
2088	65.5781
2072	65.6013
2056	65.1716
2040	65.4787
2024	65.4453
2008	65.4475
1992	65.4168
1976	65.3414
1960	65.3653
1944	65.3543
1928	65.3795
1912	65.4468
1896	65.4198
1880	65.4686
1864	65.4487
1848	65.3951
1832	65.4799
1816	65.5703
1800	65.4671
1784	65.5219
1768	65.339
1752	65.4317
1736	65.2095
1720	65.3772
1704	65.2652
1688	65.361
1672	65.3462
1656	65.3746
1640	65.3634
1624	65.2244
1608	65.1917
1592	65.0315
1576	65.2344
1560	64.9641
1544	65.1272
1528	65.2434
1512	65.0836
1496	65.2817
1480	65.2284
1464	65.2659
1448	64.9695
1432	65.2801
1416	65.2116
1400	65.1625
1384	65.1598
1368	65.068
1352	65.0211
1336	65.3041
1320	65.0946
1304	65.1369
1288	65.0344
1272	65.1003
1256	65.0832
1240	65.0803
1224	65.1113
1208	65.1852
1192	65.0789
1176	64.8276
1160	64.8612
1144	64.8446
1128	64.9458
1112	64.7458
1096	64.3138
1080	64.9142
1064	65.0853
1048	64.9135
1032	65.0039
1016	65.0185
1000	64.9656
984	 64.863
968	 64.5288
952	 65.0355
936	 64.6592
920	 64.4546
904	 64.6616
888	 64.8715
872	 64.8524
856	 64.4643
840	 64.7069
824	 64.4773
808	 64.4745
792	 64.3114
776	 64.5358
760	 64.2902
744	 64.3361
728	 63.1552
712	 63.778
696	 64.0461
680	 63.4836
664	 63.2246
648	 63.6805
632	 62.9775
616	 62.6372
600	 64.0214
584	 62.6483
568	 63.1427
552	 62.2559
536	 62.2051
520	 62.757
504	 61.4415
488	 61.4977
472	 60.6494
456	 60.4086
440	 61.4141
424	 56.9569
408	 66.8437
392	 56.6349
376	 86.2231
370	 52.7446

File: C-4040-8_t85.asc
PE IR       SPECTRUM    SPECTRUM    ASCII       PEDS        1.60
  -1
C-B54E~1.ASC
17/03/27
21:26:29.00
17/03/27
21:26:55.00
tln
$C-4040-8_t0085$<tbV0>[-5.2,5.2,8.0,0.0,27,1,0]
27.028
64

2002,4.07
MIRTGS : RIGHTBACK : INTERNAL 2
MIR : ON : INTERNAL 2
OPTKBR

0.200000
8
8.000000
FILLER
RATIO
SPECTRUM
UNLOCKED 256

DOUBLE
64
COMBINED
1
0
0

0.002000
RATIO

1
0
TRUE
51149
0
LEFT NOT FITTED RIGHT NOT FITTED 0
NONE
NONE
15600
12
4.427000
51148
TRUE
1 0 8 72 0 0 0 0

15798

#HDR
-1
-1
#GR
µM
%T
2.38419e-05
0.0
2.000000
0.002000
12515
8
73.0757
7.047163
#DATA
2.000000	 65.412
2.084000	 65.0666
2.168000	 64.7533
2.252000	 65.908
2.336000	 65.9934
2.420000	 65.0086
2.504000	 65.2346
2.588000	 65.4747
2.672000	 65.4365
2.756000	 65.2274
2.840000	 65.2695
2.924000	 65.2973
3.008000	 65.2723
3.092000	 65.1095
3.176000	 65.1742
3.260000	 65.247
3.344000	 65.2123
3.428000	 64.8983
3.512000	 65.0506
3.596000	 65.3021
3.680000	 65.3602
3.764000	 65.2015
3.848000	 65.1482
3.932000	 65.1883
4.016000	 65.2707
4.100000	 65.3397
4.184000	 65.4042
4.268000	 65.4159
4.352000	 65.3363
4.436000	 65.3373
4.520000	 65.4598
4.604000	 65.3243
4.688000	 65.1747
4.772000	 65.4695
4.856000	 65.2938
4.940000	 65.2575
5.024000	 65.392
5.108000	 65.3901
5.192000	 65.3426
5.276000	 65.3297
5.359999	 65.3421
5.444000	 65.4034
5.528000	 65.3174
5.612000	 65.3979
5.696000	 65.3995
5.780000	 65.3867
5.864000	 65.2085
5.948000	 65.2448
6.032000	 65.2018
6.116000	 65.3016
6.200000	 65.16
6.284000	 65.1075
6.368000	 65.0106
6.452000	 64.9046
6.536000	 65.1362
6.620000	 65.1524
6.704000	 65.0235
6.788000	 65.2189
6.872000	 64.7963
6.956000	 65.1502
7.040000	 64.9584
7.124000	 65.0944
7.208000	 65.049
7.292000	 64.9993
7.376000	 65.0114
7.460000	 65.0463
7.544000	 65.0185
7.628000	 65.0458
7.712000	 65.1806
7.796000	 65.1859
7.880000	 65.1958
7.964000	 65.2726
8.048000	 65.0704
8.132000	 65.0992
8.216000	 64.96
8.300000	 65.1239
8.384000	 64.8546
8.468000	 65.0265
8.552000	 64.8867
8.635999	 64.8839
8.719999	 64.7826
8.804000	 65.0365
8.888000	 64.8494
8.972000	 64.883
9.056000	 64.8248
9.140000	 64.5285
9.224000	 64.7494
9.308000	 65.0775
9.391999	 64.9136
9.475999	 64.8689
9.560000	 65.1089
9.644000	 64.9816
9.728000	 64.6561
9.812000	 64.7188
9.896000	 64.5759
9.980000	 64.6508
10.064	64.7387
10.148	64.8926
10.232	64.7748
10.316	64.9301
10.4	64.5004
10.484	64.6888
10.568	64.9996
10.652	64.9579
10.736	64.948
10.82	65.1008
10.904	64.2928
10.988	64.319
11.072	64.2758
11.156	64.2555
11.24	64.3175
11.324	64.2386
11.408	64.3937
11.492	64.446
11.576	64.541
11.66	64.5266
11.744	64.3231
11.828	64.2803
11.912	64.2868
11.996	64.3292
12.08	64.488
12.164	64.3689
12.248	64.3954
12.332	64.4929
12.416	64.2433
12.5	64.269
12.584	64.2894
12.668	64.2575
12.752	64.0739
12.836	64.084
12.92	64.0545
13.004	64.0105
13.088	64.334
13.172	64.2822
13.256	63.9237
13.34	63.6802
13.424	63.3717
13.508	63.4458
13.592	63.6273
13.676	63.6428
13.76	63.6965
13.844	63.8749
13.928	63.9523
14.012	63.8094
14.096	63.5564
14.18	63.5976
14.264	64.0887
14.348	64.2715
14.432	63.9873
14.516	63.7455
14.6	63.5508
14.684	63.4631
14.768	63.4555
14.852	63.2438
14.936	63.0428
15.02	63.174
15.104	63.3069
15.188	63.1271
15.272	62.9301
15.356	62.9707
15.44	63.1072
15.524	63.131
15.608	62.9421
15.692	62.6463
15.776	62.5342
15.86	62.6713
15.944	62.7559
16.028	62.5895
16.112	62.3285
16.196	62.2686
16.28	62.5538
16.364	62.9835
16.448	63.231
16.532	63.24
16.616	63.1654
16.7	63.0426
16.784	62.8515
16.868	62.7344
16.952	62.7974
17.036	62.857
17.12	62.7339
17.204	62.5755
17.288	62.5338
17.372	62.4709
17.456	62.2513
17.54	62.0041
17.624	61.9208
17.708	62.0277
17.792	62.2424
17.876	62.4747
17.96	62.6673
18.044	62.8396
18.128	63.0393
18.212	63.1899
18.296	63.105
18.38	62.7209
18.464	62.2114
18.548	61.7864
18.632	61.4921
18.716	61.2941
18.8	61.2383
18.884	61.3814
18.968	61.6244
19.052	61.7757
19.136	61.7858
19.22	61.7904
19.304	61.892
19.388	62.0004
19.472	61.9539
19.556	61.7177
19.64	61.4174
19.724	61.2017
19.808	61.1053
19.892	61.025
19.976	60.8161
20.06	60.4147
20.144	59.8958
20.228	59.4377
20.312	59.2358
20.396	59.4095
20.48	59.9482
20.564	60.6958
20.648	61.3984
20.732	61.8098
20.816	61.8152
20.9	61.4938
20.984	61.0425
21.068	60.639
21.152	60.3384
21.236	60.0913
21.32	59.8326
21.404	59.564
21.488	59.3388
21.572	59.1889
21.656	59.0793
21.74	58.9369
21.824	58.7378
21.908	58.5595
21.992	58.5291
22.076	58.721
22.16	59.0722
22.244	59.4191
22.328	59.6069
22.412	59.5847
22.496	59.4525
22.58	59.3755
22.664	59.476
22.748	59.7489
22.832	60.0661
22.916	60.25
23	60.1873
23.084	59.8894
23.168	59.4674
23.252	59.0319
23.336	58.6272
23.42	58.2189
23.504	57.6962
23.588	57.0206
23.672	56.294
23.756	55.7099
23.84	55.5067
23.924	55.8044
24.008	56.5278
24.092	57.4193
24.176	58.1152
24.26	58.3158
24.344	57.8916
24.428	56.969
24.512	55.9351
24.596	55.2342
24.68	55.1489
24.764	55.6128
24.848	56.246
24.932	56.3195
25.016	55.0399
25.1	51.8947
25.184	46.826
25.268	40.3254
25.352	33.2374
25.436	26.5269
25.52	20.9258
25.604	16.7699
25.688	14.1415
25.772	12.9516
25.856	13.0145
25.94	13.8717
26.024	14.8278
26.108	15.1562
26.192	14.3517
26.276	12.4044
26.36	9.919387
26.444	7.832697
26.528	7.054972
26.612	8.254307
26.696	11.5978
26.78	16.6219
26.864	22.4585
26.948	28.0643
27.028	32.2693

File: C-4040-8_t85_cm-1.asc
PE IR       SPECTRUM    SPECTRUM    ASCII       PEDS        1.60
  -1
C-9DEE~1.ASC
17/03/27
21:26:29.00
17/03/27
21:26:29.00
tln
$C-4040-8_t0085$<tbV0>[-5.2,5.2,8.0,0.0,27,1,0]
370
64

2002,4.07
MIRTGS : RIGHTBACK : INTERNAL 2
MIR : ON : INTERNAL 2
OPTKBR

0.200000
8
8.000000
FILLER
RATIO
SPECTRUM
UNLOCKED 256

DOUBLE
64
COMBINED
1
0
0

1.000000
RATIO

1
0
TRUE
51149
0
LEFT NOT FITTED RIGHT NOT FITTED 0
NONE
NONE
15600
12
4.427000
51148
TRUE
1 0 8 72 0 0 0 0

15798

#HDR
-1
-1
#GR
CM-1
%T
2.38419e-05
0.0
5000
-1.000000
4631
8
73.1815
7.049942
#DATA
5000	65.412
4984	65.0473
4968	65.0122
4952	66.0214
4936	64.7516
4920	65.203
4904	65.2719
4888	64.0096
4872	65.3916
4856	65.3012
4840	65.1937
4824	64.7543
4808	64.9902
4792	64.533
4776	64.6152
4760	64.7305
4744	64.7281
4728	64.783
4712	65.0246
4696	64.487
4680	64.7312
4664	64.724
4648	64.8593
4632	65.1634
4616	64.7058
4600	64.9839
4584	65.2332
4568	65.175
4552	65.4654
4536	65.8271
4520	65.7898
4504	65.6088
4488	65.8993
4472	65.8201
4456	65.9674
4440	65.937
4424	65.5161
4408	65.7318
4392	62.7369
4376	70.805
4360	65.2559
4344	66.0239
4328	66.4783
4312	66.1348
4296	66.5216
4280	66.0484
4264	65.5312
4248	65.6632
4232	65.5017
4216	65.2875
4200	65.2705
4184	65.3265
4168	64.7094
4152	64.7509
4136	65.1813
4120	65.0193
4104	64.7556
4088	64.8546
4072	64.8427
4056	64.9268
4040	64.9528
4024	65.1389
4008	65.1762
3992	65.1991
3976	65.1661
3960	65.054
3944	65.0063
3928	65.4057
3912	65.3287
3896	65.2066
3880	65.1011
3864	65.4752
3848	65.0889
3832	65.0741
3816	65.4915
3800	65.202
3784	65.2852
3768	65.122
3752	65.148
3736	65.1638
3720	65.2515
3704	65.3327
3688	65.1812
3672	65.2549
3656	65.0575
3640	65.1959
3624	65.2714
3608	64.962
3592	65.1349
3576	65.2658
3560	65.1926
3544	65.2168
3528	65.2762
3512	65.1757
3496	65.1795
3480	65.326
3464	65.5812
3448	65.2948
3432	65.3756
3416	65.3611
3400	65.025
3384	65.481
3368	65.3662
3352	65.1581
3336	65.3105
3320	65.3535
3304	65.2681
3288	65.2221
3272	65.3081
3256	65.2005
3240	65.017
3224	65.0765
3208	65.1559
3192	65.1143
3176	64.9348
3160	65.2523
3144	65.2033
3128	65.1755
3112	64.9232
3096	65.1138
3080	65.2441
3064	65.1801
3048	65.3294
3032	65.3321
3016	65.1116
3000	65.113
2984	65.1867
2968	64.942
2952	65.0032
2936	65.1263
2920	64.9297
2904	65.1678
2888	65.0817
2872	65.3815
2856	65.1372
2840	65.1517
2824	65.2526
2808	65.2886
2792	65.2434
2776	65.3198
2760	65.2188
2744	65.3573
2728	65.2306
2712	65.4399
2696	65.3914
2680	65.3747
2664	65.3002
2648	65.2195
2632	65.3424
2616	65.2384
2600	65.162
2584	65.2623
2568	65.229
2552	65.285
2536	65.2431
2520	65.3064
2504	65.171
2488	65.3012
2472	65.4728
2456	65.3942
2440	65.3536
2424	65.231
2408	65.3101
2392	65.3826
2376	65.5002
2360	65.3168
2344	65.4249
2328	65.4118
2312	65.4356
2296	65.3177
2280	65.4233
2264	65.3232
2248	65.4013
2232	65.3891
2216	65.483
2200	65.2762
2184	65.3171
2168	65.3718
2152	65.1928
2136	65.1534
2120	65.4215
2104	65.3599
2088	65.3097
2072	65.2878
2056	65.3567
2040	65.3744
2024	65.2443
2008	65.4
1992	65.4143
1976	65.3861
1960	65.3769
1944	65.4049
1928	65.3214
1912	65.3763
1896	65.3274
1880	65.3491
1864	65.3102
1848	65.2055
1832	65.2922
1816	65.4205
1800	65.3052
1784	65.4122
1768	65.1777
1752	65.3642
1736	65.2321
1720	65.2053
1704	65.2121
1688	65.269
1672	65.3053
1656	65.205
1640	65.3456
1624	65.2234
1608	65.1262
1592	65.104
1576	65.0054
1560	65.0405
1544	65.138
1528	65.1357
1512	65.1712
1496	65.1116
1480	65.1901
1464	65.0988
1448	64.5502
1432	65.0206
1416	65.1025
1400	65.0176
1384	65.0675
1368	64.9773
1352	65.0116
1336	65.0187
1320	65.0546
1304	65.1245
1288	65.2761
1272	65.1963
1256	65.2731
1240	65.112
1224	64.9329
1208	65.0126
1192	64.8654
1176	64.9536
1160	64.8921
1144	64.8562
1128	64.8552
1112	64.8842
1096	64.5894
1080	64.8897
1064	64.89
1048	65.017
1032	64.7412
1016	64.8593
1000	64.713
984	 64.8407
968	 64.8697
952	 64.716
936	 64.8336
920	 64.5638
904	 64.3149
888	 64.2512
872	 64.4651
856	 64.4315
840	 64.2782
824	 64.4531
808	 64.3478
792	 64.2895
776	 64.0984
760	 64.338
744	 63.3506
728	 63.6647
712	 63.7094
696	 64.225
680	 63.4664
664	 63.2716
648	 63.0968
632	 62.5948
616	 62.358
600	 63.1011
584	 62.7268
568	 61.921
552	 63.01
536	 61.4238
520	 61.7978
504	 61.0804
488	 60.0452
472	 60.2354
456	 58.5321
440	 59.6709
424	 57.0469
408	 55.9589
392	 21.5067
376	 7.847976
370	 32.2693

File: C-4040-8_t86.asc
PE IR       SPECTRUM    SPECTRUM    ASCII       PEDS        1.60
  -1
C-B542~1.ASC
17/03/27
21:31:06.00
17/03/27
21:31:32.00
tln
$C-4040-8_t0086$<tbV0>[-7.8,5.2,8.0,0.0,27,1,0]
27.028
64

2002,4.07
MIRTGS : RIGHTBACK : INTERNAL 2
MIR : ON : INTERNAL 2
OPTKBR

0.200000
8
8.000000
FILLER
RATIO
SPECTRUM
UNLOCKED 256

DOUBLE
64
COMBINED
1
0
0

0.002000
RATIO

1
0
TRUE
51149
0
LEFT NOT FITTED RIGHT NOT FITTED 0
NONE
NONE
15600
12
4.427000
51148
TRUE
1 0 8 72 0 0 0 0

15798

#HDR
-1
-1
#GR
µM
%T
2.38419e-05
0.0
2.000000
0.002000
12515
8
117.117
-4.198217
#DATA
2.000000	 64.5016
2.084000	 65.0136
2.168000	 64.8729
2.252000	 63.9891
2.336000	 64.1232
2.420000	 64.8942
2.504000	 65.3116
2.588000	 65.0834
2.672000	 65.1856
2.756000	 65.3064
2.840000	 65.3479
2.924000	 65.2101
3.008000	 65.2272
3.092000	 65.1926
3.176000	 65.3953
3.260000	 65.3832
3.344000	 65.2172
3.428000	 64.9615
3.512000	 65.2132
3.596000	 65.3835
3.680000	 65.4552
3.764000	 65.4057
3.848000	 65.3429
3.932000	 65.3726
4.016000	 65.2153
4.100000	 65.3686
4.184000	 65.3593
4.268000	 65.3596
4.352000	 65.372
4.436000	 65.4125
4.520000	 65.4114
4.604000	 65.4137
4.688000	 65.386
4.772000	 65.3779
4.856000	 65.1655
4.940000	 65.5278
5.024000	 65.3049
5.108000	 65.3844
5.192000	 65.3909
5.276000	 65.4658
5.359999	 65.4307
5.444000	 65.4171
5.528000	 65.5792
5.612000	 65.4799
5.696000	 65.4586
5.780000	 65.2913
5.864000	 65.2753
5.948000	 65.3478
6.032000	 65.316
6.116000	 65.1815
6.200000	 65.1373
6.284000	 65.0853
6.368000	 65.2008
6.452000	 65.0844
6.536000	 65.0722
6.620000	 65.2094
6.704000	 65.184
6.788000	 65.034
6.872000	 65.1825
6.956000	 65.142
7.040000	 65.2269
7.124000	 65.1011
7.208000	 65.2456
7.292000	 65.1966
7.376000	 65.1944
7.460000	 65.3173
7.544000	 65.1606
7.628000	 65.1422
7.712000	 65.153
7.796000	 65.0685
7.880000	 65.0057
7.964000	 65.0104
8.048000	 64.9533
8.132000	 65.2361
8.216000	 64.9935
8.300000	 65.109
8.384000	 64.8686
8.468000	 64.7922
8.552000	 65.0225
8.635999	 64.9139
8.719999	 64.7996
8.804000	 64.9595
8.888000	 64.7896
8.972000	 64.8259
9.056000	 64.7076
9.140000	 64.5583
9.224000	 65.0367
9.308000	 65.2431
9.391999	 64.8198
9.475999	 64.5726
9.560000	 64.5387
9.644000	 64.7709
9.728000	 64.7872
9.812000	 64.3518
9.896000	 64.7894
9.980000	 64.9344
10.064	65.1585
10.148	64.955
10.232	64.8273
10.316	64.8686
10.4	64.5719
10.484	64.785
10.568	64.9164
10.652	64.8141
10.736	65.2569
10.82	65.3433
10.904	65.3144
10.988	65.6741
11.072	65.893
11.156	65.2477
11.24	64.8779
11.324	64.7543
11.408	64.986
11.492	64.9021
11.576	64.6067
11.66	64.3582
11.744	64.3374
11.828	64.7919
11.912	64.785
11.996	64.7694
12.08	64.891
12.164	64.5004
12.248	64.2498
12.332	64.1335
12.416	64.0491
12.5	64.2944
12.584	64.3678
12.668	64.4043
12.752	64.226
12.836	63.8925
12.92	63.9323
13.004	63.9359
13.088	63.6733
13.172	64.0027
13.256	64.7623
13.34	65.0649
13.424	64.8405
13.508	64.6466
13.592	64.2754
13.676	64.1104
13.76	63.9017
13.844	63.5711
13.928	63.5731
14.012	63.7907
14.096	63.8349
14.18	63.5935
14.264	63.5277
14.348	63.719
14.432	63.5357
14.516	63.0669
14.6	63.0345
14.684	63.3464
14.768	63.4978
14.852	63.3988
14.936	63.2149
15.02	63.1407
15.104	63.2321
15.188	63.3695
15.272	63.4049
15.356	63.3527
15.44	63.248
15.524	63.0308
15.608	62.788
15.692	62.6643
15.776	62.6445
15.86	62.6889
15.944	62.7513
16.028	62.7357
16.112	62.6471
16.196	62.6129
16.28	62.7139
16.364	62.917
16.448	63.1794
16.532	63.4908
16.616	63.7413
16.7	63.7374
16.784	63.4758
16.868	63.1693
16.952	62.956
17.036	62.8531
17.12	62.9004
17.204	63.0382
17.288	63.0114
17.372	62.7105
17.456	62.3618
17.54	62.1913
17.624	62.1648
17.708	62.1448
17.792	62.0573
17.876	61.9046
17.96	61.7975
18.044	61.9052
18.128	62.2255
18.212	62.499
18.296	62.489
18.38	62.2598
18.464	62.0611
18.548	62.0132
18.632	62.0148
18.716	61.9356
18.8	61.7722
18.884	61.6084
18.968	61.5019
19.052	61.4752
19.136	61.5662
19.22	61.8153
19.304	62.1875
19.388	62.5466
19.472	62.7407
19.556	62.7016
19.64	62.4733
19.724	62.1527
19.808	61.8187
19.892	61.5049
19.976	61.2282
20.06	61.0232
20.144	60.9336
20.228	60.9703
20.312	61.0714
20.396	61.1263
20.48	61.0469
20.564	60.8269
20.648	60.5426
20.732	60.2918
20.816	60.1473
20.9	60.1205
20.984	60.1557
21.068	60.156
21.152	60.0424
21.236	59.8138
21.32	59.5583
21.404	59.4221
21.488	59.5211
21.572	59.865
21.656	60.3379
21.74	60.7387
21.824	60.8744
21.908	60.6627
21.992	60.1652
22.076	59.5405
22.16	58.9582
22.244	58.5019
22.328	58.1752
22.412	57.9674
22.496	57.9221
22.58	58.1237
22.664	58.6164
22.748	59.3181
22.832	60.0204
22.916	60.4466
23	60.4199
23.084	59.9358
23.168	59.1851
23.252	58.4485
23.336	57.9824
23.42	57.9019
23.504	58.1861
23.588	58.686
23.672	59.2217
23.756	59.6832
23.84	60.0419
23.924	60.3646
24.008	60.698
24.092	60.9668
24.176	61.0176
24.26	60.6154
24.344	59.533
24.428	57.7071
24.512	55.3266
24.596	52.6838
24.68	50.1428
24.764	48.1006
24.848	46.7971
24.932	46.425
25.016	47.0999
25.1	48.7283
25.184	51.1765
25.268	54.2804
25.352	57.8027
25.436	61.435
25.52	64.9434
25.604	68.3153
25.688	71.8756
25.772	76.1662
25.856	81.5607
25.94	87.7687
26.024	93.6144
26.108	97.3284
26.192	97.296
26.276	92.6803
26.36	84.0442
26.444	72.7994
26.528	60.5545
26.612	48.6022
26.696	37.5047
26.78	27.0697
26.864	16.7155
26.948	6.030593
27.028	-4.198217