Folder: Masteroppgave/Bakgrunnsmateriale/MATLAB/FTIR/ftir_data/subBb/Mapping_121 (part 10)

File: C-4040-8_t16_cm-1.asc
PE IR       SPECTRUM    SPECTRUM    ASCII       PEDS        1.60
  -1
C-1A6E~1.ASC
17/03/27
15:45:23.00
17/03/27
15:45:23.00
tln
$C-4040-8_t0016$<tbV0>[2.6,-10.4,8.0,0.0,27,1,0]
370
64

2002,4.07
MIRTGS : RIGHTBACK : INTERNAL 2
MIR : ON : INTERNAL 2
OPTKBR

0.200000
8
8.000000
FILLER
RATIO
SPECTRUM
UNLOCKED 256

DOUBLE
64
COMBINED
1
0
0

1.000000
RATIO

1
0
TRUE
51149
0
LEFT NOT FITTED RIGHT NOT FITTED 0
NONE
NONE
15600
12
4.427000
51148
TRUE
1 0 8 72 0 0 0 0

15798

#HDR
-1
-1
#GR
CM-1
%T
2.38419e-05
0.0
5000
-1.000000
4631
8
70.3482
6.412982
#DATA
5000	63.7287
4984	63.8809
4968	63.7287
4952	63.646
4936	63.058
4920	63.2587
4904	64.7751
4888	63.7637
4872	63.8204
4856	63.8246
4840	64.2658
4824	63.7334
4808	63.7856
4792	63.5473
4776	63.557
4760	63.54
4744	63.7826
4728	63.5432
4712	62.9499
4696	63.1126
4680	63.8439
4664	63.8374
4648	63.5046
4632	63.6384
4616	63.3419
4600	63.92
4584	63.742
4568	63.6169
4552	63.4782
4536	62.9818
4520	63.8914
4504	64.0887
4488	63.5527
4472	64.1382
4456	65.1426
4440	66.844
4424	63.0294
4408	62.8646
4392	63.333
4376	62.4165
4360	66.3183
4344	63.9209
4328	63.4907
4312	63.3018
4296	63.7522
4280	63.4809
4264	63.4251
4248	63.38
4232	63.3342
4216	63.4942
4200	63.0881
4184	62.7156
4168	63.4864
4152	63.0611
4136	63.0662
4120	63.0827
4104	62.8826
4088	63.1898
4072	63.011
4056	63.0819
4040	62.9931
4024	63.1739
4008	62.8583
3992	63.1142
3976	62.8208
3960	62.8908
3944	63.0793
3928	62.8132
3912	62.8461
3896	62.8726
3880	62.9043
3864	62.9184
3848	62.9424
3832	62.7282
3816	62.8205
3800	63.0119
3784	62.4993
3768	62.8906
3752	62.9519
3736	62.9173
3720	62.6454
3704	62.6006
3688	62.5015
3672	62.7752
3656	62.5198
3640	62.2016
3624	62.3252
3608	62.2639
3592	62.3539
3576	62.1223
3560	62.2401
3544	61.9826
3528	61.878
3512	61.8332
3496	61.8678
3480	61.7915
3464	61.7717
3448	61.6148
3432	61.6188
3416	61.6207
3400	61.3974
3384	61.4185
3368	61.3597
3352	61.2545
3336	61.184
3320	61.1807
3304	61.1774
3288	61.0702
3272	61.1167
3256	60.8659
3240	60.7193
3224	60.811
3208	60.8498
3192	60.4875
3176	60.6103
3160	60.5941
3144	60.5834
3128	60.3214
3112	60.6157
3096	60.3233
3080	60.2322
3064	60.1974
3048	60.1874
3032	60.0399
3016	59.8858
3000	60.0301
2984	59.705
2968	59.5105
2952	59.4763
2936	59.4863
2920	59.2441
2904	59.2129
2888	59.3363
2872	59.1742
2856	59.1194
2840	59.0694
2824	59.0377
2808	58.9955
2792	58.7742
2776	58.7917
2760	58.5994
2744	58.6316
2728	58.441
2712	58.3365
2696	58.3205
2680	58.0661
2664	58.0859
2648	57.8193
2632	57.8936
2616	57.6392
2600	57.7359
2584	57.5397
2568	57.5028
2552	57.2792
2536	57.2296
2520	57.1845
2504	57.0204
2488	56.9898
2472	56.846
2456	56.654
2440	56.7074
2424	56.5127
2408	56.2174
2392	56.2819
2376	56.2598
2360	56.1352
2344	55.8089
2328	55.9174
2312	55.6841
2296	55.5386
2280	55.513
2264	55.4049
2248	55.3576
2232	55.0818
2216	54.943
2200	54.8241
2184	54.7606
2168	54.6718
2152	54.3964
2136	54.2985
2120	54.2532
2104	54.1158
2088	54.0818
2072	53.7814
2056	53.7389
2040	53.7443
2024	53.4916
2008	53.3379
1992	53.3507
1976	53.1098
1960	52.959
1944	52.8722
1928	52.7807
1912	52.7059
1896	52.5115
1880	52.3724
1864	52.214
1848	52.0789
1832	51.9553
1816	51.7682
1800	51.7767
1784	51.7002
1768	51.4289
1752	51.4293
1736	51.2445
1720	51.1765
1704	51.1146
1688	50.9693
1672	50.7064
1656	50.6838
1640	50.4355
1624	50.1441
1608	50.0072
1592	49.8336
1576	49.7663
1560	49.8732
1544	49.6696
1528	49.4186
1512	49.33
1496	48.9164
1480	48.8013
1464	48.8019
1448	48.317
1432	48.192
1416	48.3183
1400	48.0382
1384	47.9303
1368	47.7555
1352	47.6596
1336	47.3891
1320	47.3979
1304	47.2775
1288	47.1629
1272	46.7942
1256	46.7327
1240	46.4398
1224	46.5482
1208	46.34
1192	46.1693
1176	45.9199
1160	45.8001
1144	45.6061
1128	45.4635
1112	45.3226
1096	44.9206
1080	44.8136
1064	44.7922
1048	44.6973
1032	44.4631
1016	44.1393
1000	44.2334
984	 43.9222
968	 43.6327
952	 43.5244
936	 43.4437
920	 42.6086
904	 42.5867
888	 42.2657
872	 42.1866
856	 42.1881
840	 42.1117
824	 41.8611
808	 41.4224
792	 41.0371
776	 41.2068
760	 40.7449
744	 40.3168
728	 39.94
712	 39.4695
696	 39.4806
680	 38.9049
664	 39.1255
648	 38.5071
632	 38.1527
616	 37.6427
600	 37.3952
584	 36.8371
568	 35.903
552	 35.722
536	 35.0521
520	 34.2095
504	 33.4325
488	 32.8564
472	 33.0271
456	 31.6534
440	 31.2568
424	 31.5618
408	 29.9582
392	 23.4986
376	 7.458066
370	 22.7838

File: C-4040-8_t17.asc
PE IR       SPECTRUM    SPECTRUM    ASCII       PEDS        1.60
  -1
C-B926~1.ASC
17/03/27
15:50:00.00
17/03/27
15:50:26.00
tln
$C-4040-8_t0017$<tbV0>[0.0,-10.4,8.0,0.0,27,1,0]
27.028
64

2002,4.07
MIRTGS : RIGHTBACK : INTERNAL 2
MIR : ON : INTERNAL 2
OPTKBR

0.200000
8
8.000000
FILLER
RATIO
SPECTRUM
UNLOCKED 256

DOUBLE
64
COMBINED
1
0
0

0.002000
RATIO

1
0
TRUE
51149
0
LEFT NOT FITTED RIGHT NOT FITTED 0
NONE
NONE
15600
12
4.427000
51148
TRUE
1 0 8 72 0 0 0 0

15798

#HDR
-1
-1
#GR
µM
%T
2.38419e-05
0.0
2.000000
0.002000
12515
8
70.1211
35.0164
#DATA
2.000000	 63.8445
2.084000	 63.8854
2.168000	 63.539
2.252000	 66.9284
2.336000	 63.4337
2.420000	 63.4459
2.504000	 63.7208
2.588000	 63.4488
2.672000	 63.6017
2.756000	 62.9843
2.840000	 62.6976
2.924000	 62.2907
3.008000	 61.9676
3.092000	 61.8131
3.176000	 61.4487
3.260000	 61.2604
3.344000	 60.9489
3.428000	 60.3259
3.512000	 60.3224
3.596000	 60.0315
3.680000	 59.8072
3.764000	 59.5609
3.848000	 59.2588
3.932000	 59.0596
4.016000	 58.721
4.100000	 58.5424
4.184000	 58.1978
4.268000	 58.0729
4.352000	 57.6203
4.436000	 57.4555
4.520000	 57.1319
4.604000	 56.9654
4.688000	 56.7036
4.772000	 56.452
4.856000	 56.332
4.940000	 56.0595
5.024000	 55.8113
5.108000	 55.5484
5.192000	 55.4061
5.276000	 55.2245
5.359999	 54.9589
5.444000	 54.7077
5.528000	 54.6189
5.612000	 54.5145
5.696000	 54.4182
5.780000	 54.2219
5.864000	 54.0627
5.948000	 53.992
6.032000	 53.6924
6.116000	 53.4715
6.200000	 53.4052
6.284000	 53.012
6.368000	 53.0241
6.452000	 52.9555
6.536000	 52.764
6.620000	 52.9309
6.704000	 52.441
6.788000	 52.3577
6.872000	 52.2861
6.956000	 52.1301
7.040000	 51.9646
7.124000	 51.5453
7.208000	 51.6299
7.292000	 51.4709
7.376000	 51.3538
7.460000	 51.1324
7.544000	 51.1117
7.628000	 50.9176
7.712000	 50.7026
7.796000	 50.7384
7.880000	 50.6384
7.964000	 50.4015
8.048000	 50.3413
8.132000	 50.4407
8.216000	 50.27
8.300000	 50.169
8.384000	 50.0505
8.468000	 49.8425
8.552000	 49.9832
8.635999	 49.8521
8.719999	 49.6346
8.804000	 49.3929
8.888000	 49.461
8.972000	 49.3839
9.056000	 49.2453
9.140000	 48.946
9.224000	 49.2676
9.308000	 48.951
9.391999	 49.0353
9.475999	 48.9009
9.560000	 48.6504
9.644000	 48.6373
9.728000	 48.6815
9.812000	 48.6003
9.896000	 48.5409
9.980000	 48.1922
10.064	48.2423
10.148	48.4715
10.232	48.4556
10.316	48.0898
10.4	47.7486
10.484	47.5044
10.568	47.7792
10.652	48.1057
10.736	47.5379
10.82	47.1765
10.904	47.2717
10.988	46.7907
11.072	46.6387
11.156	46.7487
11.24	47.0354
11.324	47.326
11.408	47.2171
11.492	46.8486
11.576	46.8973
11.66	46.8199
11.744	46.5824
11.828	46.4425
11.912	46.3246
11.996	46.1894
12.08	46.3549
12.164	46.6876
12.248	46.5618
12.332	46.3319
12.416	46.2127
12.5	46.0069
12.584	46.0303
12.668	46.1035
12.752	46.1675
12.836	46.0384
12.92	45.8473
13.004	45.687
13.088	45.7149
13.172	45.7878
13.256	45.9006
13.34	45.8295
13.424	45.5377
13.508	45.1499
13.592	45.0204
13.676	45.2608
13.76	45.0963
13.844	44.8727
13.928	45.0027
14.012	45.0043
14.096	44.823
14.18	44.6545
14.264	44.6236
14.348	44.7204
14.432	44.5516
14.516	44.2775
14.6	44.2399
14.684	44.1637
14.768	43.8941
14.852	43.5962
14.936	43.4183
15.02	43.4031
15.104	43.4948
15.188	43.638
15.272	43.7774
15.356	43.7993
15.44	43.67
15.524	43.4761
15.608	43.2612
15.692	43.0782
15.776	42.9672
15.86	42.8602
15.944	42.7931
16.028	42.8422
16.112	42.8945
16.196	42.8288
16.28	42.7154
16.364	42.6988
16.448	42.7825
16.532	42.8058
16.616	42.6913
16.7	42.5497
16.784	42.4738
16.868	42.4623
16.952	42.494
17.036	42.5565
17.12	42.6367
17.204	42.7116
17.288	42.7448
17.372	42.7152
17.456	42.6227
17.54	42.4508
17.624	42.1782
17.708	41.8323
17.792	41.5088
17.876	41.3326
17.96	41.3393
18.044	41.413
18.128	41.4047
18.212	41.2917
18.296	41.1634
18.38	41.0758
18.464	40.9869
18.548	40.8559
18.632	40.7483
18.716	40.7796
18.8	40.9497
18.884	41.075
18.968	40.9607
19.052	40.6133
19.136	40.2287
19.22	39.9728
19.304	39.8401
19.388	39.7293
19.472	39.5873
19.556	39.4396
19.64	39.3235
19.724	39.2679
19.808	39.3272
19.892	39.5713
19.976	39.9813
20.06	40.384
20.144	40.5493
20.228	40.3848
20.312	40.0142
20.396	39.6623
20.48	39.4696
20.564	39.4181
20.648	39.397
20.732	39.3211
20.816	39.1835
20.9	39.0163
20.984	38.8274
21.068	38.5968
21.152	38.3174
21.236	38.0222
21.32	37.7558
21.404	37.52
21.488	37.2758
21.572	36.9933
21.656	36.7076
21.74	36.5078
21.824	36.47
21.908	36.5909
21.992	36.7861
22.076	36.956
22.16	37.0637
22.244	37.1529
22.328	37.2897
22.412	37.4867
22.496	37.672
22.58	37.7442
22.664	37.6452
22.748	37.4001
22.832	37.0779
22.916	36.7322
23	36.362
23.084	35.9451
23.168	35.5036
23.252	35.1407
23.336	35.0192
23.42	35.26
23.504	35.8682
23.588	36.6876
23.672	37.4726
23.756	37.992
23.84	38.124
23.924	37.9146
24.008	37.5062
24.092	37.0402
24.176	36.6174
24.26	36.2643
24.344	35.9586
24.428	35.6763
24.512	35.4349
24.596	35.2822
24.68	35.27
24.764	35.42
24.848	35.7002
24.932	36.0621
25.016	36.4722
25.1	36.9342
25.184	37.4312
25.268	37.9473
25.352	38.5184
25.436	39.2972
25.52	40.536
25.604	42.4813
25.688	45.1954
25.772	48.4264
25.856	51.6575
25.94	54.2106
26.024	55.5039
26.108	55.352
26.192	53.9166
26.276	51.6149
26.36	49.0361
26.444	46.6627
26.528	44.7597
26.612	43.3482
26.696	42.3936
26.78	41.9396
26.864	42.1971
26.948	43.4799
27.028	45.8502

File: C-4040-8_t17_cm-1.asc
PE IR       SPECTRUM    SPECTRUM    ASCII       PEDS        1.60
  -1
C-1AEF~1.ASC
17/03/27
15:50:00.00
17/03/27
15:50:00.00
tln
$C-4040-8_t0017$<tbV0>[0.0,-10.4,8.0,0.0,27,1,0]
370
64

2002,4.07
MIRTGS : RIGHTBACK : INTERNAL 2
MIR : ON : INTERNAL 2
OPTKBR

0.200000
8
8.000000
FILLER
RATIO
SPECTRUM
UNLOCKED 256

DOUBLE
64
COMBINED
1
0
0

1.000000
RATIO

1
0
TRUE
51149
0
LEFT NOT FITTED RIGHT NOT FITTED 0
NONE
NONE
15600
12
4.427000
51148
TRUE
1 0 8 72 0 0 0 0

15798

#HDR
-1
-1
#GR
CM-1
%T
2.38419e-05
0.0
5000
-1.000000
4631
8
70.4563
35.0217
#DATA
5000	63.8445
4984	64.6886
4968	63.5722
4952	63.2438
4936	63.2823
4920	63.7392
4904	64.5663
4888	63.8696
4872	63.8331
4856	63.8422
4840	64.4272
4824	63.4012
4808	63.4496
4792	63.7285
4776	63.9431
4760	63.4716
4744	64.1952
4728	63.4851
4712	64.0542
4696	63.8497
4680	63.6318
4664	63.8861
4648	63.5152
4632	63.8465
4616	63.4836
4600	63.9346
4584	63.5673
4568	64.0739
4552	63.8615
4536	63.5591
4520	63.8914
4504	63.9948
4488	63.4584
4472	63.9905
4456	65.5833
4440	66.4435
4424	62.2191
4408	61.9383
4392	61.8616
4376	64.3841
4360	65.9013
4344	64.1453
4328	64.127
4312	63.5662
4296	64.0387
4280	63.4209
4264	63.7266
4248	63.5683
4232	63.7818
4216	63.6742
4200	63.1633
4184	63.1638
4168	63.2034
4152	63.8542
4136	63.1325
4120	63.6086
4104	63.4107
4088	63.6426
4072	63.4662
4056	63.4686
4040	63.4968
4024	63.5903
4008	63.6343
3992	63.7377
3976	62.9537
3960	63.4761
3944	63.3981
3928	63.3263
3912	63.2253
3896	63.5064
3880	63.1529
3864	63.4486
3848	63.524
3832	63.4677
3816	63.2668
3800	63.4785
3784	63.3343
3768	63.2256
3752	63.6108
3736	63.3168
3720	63.3126
3704	63.1692
3688	63.3842
3672	63.405
3656	63.1388
3640	62.8412
3624	62.9044
3608	62.7543
3592	62.9649
3576	62.6748
3560	62.7721
3544	62.5593
3528	62.8291
3512	62.4597
3496	62.6741
3480	62.7325
3464	62.66
3448	62.454
3432	62.1495
3416	62.2295
3400	62.2112
3384	62.4193
3368	62.2515
3352	61.8972
3336	62.2214
3320	61.8966
3304	62.0981
3288	62.0001
3272	61.8755
3256	61.9474
3240	61.8257
3224	61.8388
3208	61.9037
3192	61.6484
3176	61.5237
3160	61.6229
3144	61.368
3128	61.3709
3112	61.3011
3096	61.3699
3080	61.1374
3064	61.2863
3048	61.232
3032	61.0279
3016	61.0492
3000	61.0831
2984	60.8018
2968	60.8421
2952	60.7368
2936	60.694
2920	60.3075
2904	60.4012
2888	60.589
2872	60.3976
2856	60.1506
2840	60.435
2824	60.4089
2808	60.2742
2792	60.1506
2776	60.0159
2760	60.041
2744	59.9872
2728	59.8782
2712	59.7663
2696	59.9585
2680	59.7351
2664	59.6334
2648	59.518
2632	59.4685
2616	59.3475
2600	59.2737
2584	59.1515
2568	59.0462
2552	59.2042
2536	58.956
2520	59.1112
2504	58.7859
2488	58.6912
2472	58.651
2456	58.5557
2440	58.5392
2424	58.4051
2408	58.1477
2392	58.2039
2376	58.1188
2360	58.0695
2344	58.1052
2328	57.9683
2312	57.8289
2296	57.5577
2280	57.617
2264	57.5791
2248	57.4125
2232	57.2674
2216	57.1372
2200	57.0759
2184	56.8577
2168	56.9471
2152	56.8904
2136	56.7531
2120	56.6311
2104	56.4836
2088	56.458
2072	56.277
2056	56.2015
2040	56.2049
2024	56.0541
2008	55.8923
1992	55.8445
1976	55.7448
1960	55.5681
1944	55.5212
1928	55.4482
1912	55.3977
1896	55.2201
1880	55.1326
1864	54.9891
1848	54.9334
1832	54.7233
1816	54.7446
1800	54.6489
1784	54.5449
1768	54.4623
1752	54.4226
1736	54.1664
1720	54.2168
1704	54.1127
1688	54.0163
1672	53.8321
1656	53.8472
1640	53.5169
1624	53.3774
1608	53.209
1592	53.0131
1576	52.9888
1560	53.2107
1544	53.1341
1528	52.821
1512	52.9107
1496	52.5333
1480	52.2046
1464	52.2599
1448	51.9952
1432	52.0122
1416	51.9304
1400	51.5223
1384	51.6022
1368	51.3843
1352	51.305
1336	51.1753
1320	51.1209
1304	50.8433
1288	50.7113
1272	50.6009
1256	50.3992
1240	50.2953
1224	50.3113
1208	50.1318
1192	50.0366
1176	49.8869
1160	49.9202
1144	49.6214
1128	49.4245
1112	49.2941
1096	48.9594
1080	49.1267
1064	49.0346
1048	48.6766
1032	48.6278
1016	48.5215
1000	48.1713
984	 48.539
968	 48.0554
952	 47.4571
936	 47.9403
920	 47.3562
904	 46.661
888	 47.1009
872	 46.9073
856	 46.7554
840	 46.3394
824	 46.5989
808	 46.2854
792	 46.0644
776	 45.9256
760	 45.7742
744	 45.4665
728	 45.1886
712	 44.9395
696	 44.7139
680	 44.1076
664	 43.438
648	 43.6862
632	 42.9093
616	 42.774
600	 42.6007
584	 42.64
568	 42.2462
552	 41.4136
536	 40.7393
520	 39.9506
504	 39.3995
488	 39.4557
472	 38.1953
456	 36.6391
440	 37.4705
424	 36.657
408	 35.4402
392	 40.3572
376	 43.5855
370	 45.8502

File: C-4040-8_t18.asc
PE IR       SPECTRUM    SPECTRUM    ASCII       PEDS        1.60
  -1
C-C92A~1.ASC
17/03/27
15:54:37.00
17/03/27
15:55:03.00
tln
$C-4040-8_t0018$<tbV0>[-2.6,-10.4,8.0,0.0,27,1,0]
27.028
64

2002,4.07
MIRTGS : RIGHTBACK : INTERNAL 2
MIR : ON : INTERNAL 2
OPTKBR

0.200000
8
8.000000
FILLER
RATIO
SPECTRUM
UNLOCKED 256

DOUBLE
64
COMBINED
1
0
0

0.002000
RATIO

1
0
TRUE
51149
0
LEFT NOT FITTED RIGHT NOT FITTED 0
NONE
NONE
15600
12
4.427000
51148
TRUE
1 0 8 72 0 0 0 0

15798

#HDR
-1
-1
#GR
µM
%T
2.38419e-05
0.0
2.000000
0.002000
12515
8
71.3251
28.6735
#DATA
2.000000	 63.8184
2.084000	 64.2573
2.168000	 64.4386
2.252000	 68.457
2.336000	 64.234
2.420000	 63.62
2.504000	 63.9347
2.588000	 63.7924
2.672000	 63.841
2.756000	 63.4731
2.840000	 63.1344
2.924000	 63.1063
3.008000	 62.5782
3.092000	 62.3298
3.176000	 62.1761
3.260000	 61.9507
3.344000	 61.6317
3.428000	 61.2631
3.512000	 61.2451
3.596000	 61.0496
3.680000	 60.8493
3.764000	 60.6124
3.848000	 60.3103
3.932000	 60.0839
4.016000	 59.7006
4.100000	 59.8518
4.184000	 59.4772
4.268000	 59.2155
4.352000	 58.9029
4.436000	 58.6833
4.520000	 58.5782
4.604000	 58.2865
4.688000	 58.0899
4.772000	 57.9549
4.856000	 57.6745
4.940000	 57.4612
5.024000	 57.3483
5.108000	 57.1098
5.192000	 56.8435
5.276000	 56.798
5.359999	 56.6719
5.444000	 56.391
5.528000	 56.3307
5.612000	 56.2713
5.696000	 56.0756
5.780000	 55.9384
5.864000	 55.8914
5.948000	 55.7402
6.032000	 55.588
6.116000	 55.4848
6.200000	 55.2165
6.284000	 54.904
6.368000	 54.9189
6.452000	 54.8001
6.536000	 54.6925
6.620000	 54.6664
6.704000	 54.4087
6.788000	 54.2739
6.872000	 54.0665
6.956000	 53.9038
7.040000	 53.8466
7.124000	 53.5892
7.208000	 53.737
7.292000	 53.4552
7.376000	 53.2746
7.460000	 53.2815
7.544000	 53.1546
7.628000	 53.045
7.712000	 52.8883
7.796000	 52.8294
7.880000	 52.6265
7.964000	 52.5993
8.048000	 52.4518
8.132000	 52.5119
8.216000	 52.3983
8.300000	 52.3569
8.384000	 52.1644
8.468000	 52.1532
8.552000	 52.0095
8.635999	 52.0338
8.719999	 52.0382
8.804000	 51.874
8.888000	 51.7658
8.972000	 51.6404
9.056000	 51.6362
9.140000	 51.33
9.224000	 51.423
9.308000	 51.1114
9.391999	 51.2609
9.475999	 51.1533
9.560000	 51.2433
9.644000	 51.0564
9.728000	 51.1254
9.812000	 51.082
9.896000	 50.9508
9.980000	 50.5785
10.064	50.5476
10.148	50.7355
10.232	50.4487
10.316	50.6047
10.4	50.6072
10.484	50.4844
10.568	50.2107
10.652	50.2819
10.736	50.1909
10.82	49.79
10.904	49.6521
10.988	49.7258
11.072	49.4404
11.156	49.5256
11.24	49.6836
11.324	49.3564
11.408	49.5243
11.492	49.409
11.576	49.0911
11.66	49.3827
11.744	49.4044
11.828	49.2156
11.912	49.1725
11.996	48.9704
12.08	48.7938
12.164	48.8295
12.248	48.7589
12.332	48.5735
12.416	48.8105
12.5	48.9415
12.584	48.9009
12.668	48.7032
12.752	48.6878
12.836	48.8005
12.92	48.6483
13.004	48.4842
13.088	48.3213
13.172	48.1551
13.256	48.1018
13.34	48.1473
13.424	48.0639
13.508	47.7362
13.592	47.5548
13.676	47.81
13.76	47.8822
13.844	47.635
13.928	47.6123
14.012	47.6866
14.096	47.573
14.18	47.3294
14.264	47.1537
14.348	47.0463
14.432	46.8803
14.516	46.7034
14.6	46.7212
14.684	46.8665
14.768	46.8608
14.852	46.7554
14.936	46.7389
15.02	46.7873
15.104	46.734
15.188	46.5695
15.272	46.5
15.356	46.6295
15.44	46.7887
15.524	46.7238
15.608	46.4317
15.692	46.2092
15.776	46.247
15.86	46.3526
15.944	46.2375
16.028	45.908
16.112	45.6327
16.196	45.6073
16.28	45.7678
16.364	45.9074
16.448	45.8769
16.532	45.7208
16.616	45.5719
16.7	45.4408
16.784	45.2696
16.868	45.1137
16.952	45.0845
17.036	45.1981
17.12	45.3497
17.204	45.3973
17.288	45.3203
17.372	45.2759
17.456	45.3493
17.54	45.3564
17.624	45.1472
17.708	44.8702
17.792	44.6847
17.876	44.4887
17.96	44.1668
18.044	43.876
18.128	43.8627
18.212	44.0978
18.296	44.3015
18.38	44.2677
18.464	44.0513
18.548	43.8602
18.632	43.8492
18.716	44.0127
18.8	44.2116
18.884	44.2467
18.968	43.9966
19.052	43.5309
19.136	43.0805
19.22	42.8468
19.304	42.8311
19.388	42.86
19.472	42.7602
19.556	42.4957
19.64	42.1812
19.724	42.0079
19.808	42.1439
19.892	42.648
19.976	43.3952
20.06	44.0968
20.144	44.4548
20.228	44.3636
20.312	43.9617
20.396	43.5229
20.48	43.2919
20.564	43.3602
20.648	43.6301
20.732	43.8829
20.816	43.9336
20.9	43.7396
20.984	43.3783
21.068	42.9492
21.152	42.4977
21.236	42.0314
21.32	41.5937
21.404	41.2727
21.488	41.1323
21.572	41.129
21.656	41.1258
21.74	40.9792
21.824	40.6359
21.908	40.1686
21.992	39.7211
22.076	39.4329
22.16	39.3834
22.244	39.5624
22.328	39.8787
22.412	40.1809
22.496	40.3182
22.58	40.2258
22.664	39.9578
22.748	39.668
22.832	39.4904
22.916	39.4525
23	39.4471
23.084	39.321
23.168	38.9908
23.252	38.5187
23.336	38.0748
23.42	37.8508
23.504	37.9433
23.588	38.2923
23.672	38.7495
23.756	39.1861
23.84	39.5413
23.924	39.8676
24.008	40.219
24.092	40.5366
24.176	40.6763
24.26	40.5112
24.344	39.9772
24.428	39.1191
24.512	38.1279
24.596	37.2339
24.68	36.517
24.764	35.8044
24.848	34.775
24.932	33.2302
25.016	31.3325
25.1	29.6446
25.184	28.7372
25.268	28.9096
25.352	30.1618
25.436	32.608
25.52	36.5102
25.604	42.0545
25.688	48.8823
25.772	55.7778
25.856	60.9386
25.94	62.6883
26.024	60.189
26.108	53.995
26.192	45.8218
26.276	37.8681
26.36	32.1428
26.444	29.6096
26.528	30.1165
26.612	32.763
26.696	36.7211
26.78	41.7817
26.864	48.4165
26.948	57.173
27.028	67.1461

File: C-4040-8_t18_cm-1.asc
PE IR       SPECTRUM    SPECTRUM    ASCII       PEDS        1.60
  -1
C-1A65~1.ASC
17/03/27
15:54:37.00
17/03/27
15:54:37.00
tln
$C-4040-8_t0018$<tbV0>[-2.6,-10.4,8.0,0.0,27,1,0]
370
64

2002,4.07
MIRTGS : RIGHTBACK : INTERNAL 2
MIR : ON : INTERNAL 2
OPTKBR

0.200000
8
8.000000
FILLER
RATIO
SPECTRUM
UNLOCKED 256

DOUBLE
64
COMBINED
1
0
0

1.000000
RATIO

1
0
TRUE
51149
0
LEFT NOT FITTED RIGHT NOT FITTED 0
NONE
NONE
15600
12
4.427000
51148
TRUE
1 0 8 72 0 0 0 0

15798

#HDR
-1
-1
#GR
CM-1
%T
2.38419e-05
0.0
5000
-1.000000
4631
8
71.7344
28.7167
#DATA
5000	63.8184
4984	64.4498
4968	63.7727
4952	63.5487
4936	63.8657
4920	64.0245
4904	64.8555
4888	64.2652
4872	63.7079
4856	64.6321
4840	64.1844
4824	64.202
4808	63.8224
4792	64.2195
4776	63.8929
4760	64.0714
4744	64.2291
4728	63.7297
4712	63.9931
4696	63.8936
4680	63.716
4664	63.8617
4648	63.8273
4632	64.1129
4616	64.0362
4600	64.4601
4584	63.9225
4568	64.1079
4552	64.3766
4536	63.8159
4520	64.4522
4504	64.4508
4488	63.8343
4472	64.2838
4456	66.3433
4440	67.9665
4424	63.1051
4408	63.1192
4392	63.9642
4376	54.818
4360	64.4206
4344	64.6947
4328	64.4117
4312	64.1344
4296	64.637
4280	64.2457
4264	64.2511
4248	63.6684
4232	64.1168
4216	63.9616
4200	63.8654
4184	64.0445
4168	63.6047
4152	63.8352
4136	63.6479
4120	63.9057
4104	63.8859
4088	63.7356
4072	63.9477
4056	63.5452
4040	64.0484
4024	64.1009
4008	64.1499
3992	63.9088
3976	63.5551
3960	63.7042
3944	63.8657
3928	63.8265
3912	63.8835
3896	63.9112
3880	63.5207
3864	63.7929
3848	63.8937
3832	63.495
3816	63.5638
3800	63.8291
3784	63.4821
3768	63.6956
3752	63.9484
3736	63.7531
3720	63.7079
3704	63.6552
3688	63.7163
3672	63.7718
3656	63.4375
3640	63.2714
3624	63.3286
3608	63.2361
3592	63.377
3576	63.1888
3560	63.2836
3544	62.8833
3528	63.2351
3512	62.9394
3496	63.1555
3480	63.1129
3464	62.8427
3448	62.9701
3432	63.2013
3416	62.8957
3400	62.8028
3384	62.9019
3368	62.9274
3352	62.8269
3336	62.7479
3320	62.503
3304	62.563
3288	62.6706
3272	62.6421
3256	62.3535
3240	62.3349
3224	62.3408
3208	62.423
3192	62.1322
3176	62.0667
3160	62.2143
3144	62.0296
3128	62.0144
3112	62.0997
3096	62.0686
3080	61.847
3064	61.9611
3048	62.0044
3032	61.7784
3016	61.8769
3000	61.6536
2984	61.6411
2968	61.5069
2952	61.3837
2936	61.6959
2920	61.2963
2904	61.1919
2888	61.2002
2872	61.1509
2856	61.1473
2840	61.3218
2824	61.1998
2808	61.1471
2792	61.0621
2776	60.9862
2760	60.8834
2744	60.8464
2728	60.8963
2712	60.7284
2696	60.9309
2680	60.5996
2664	60.5255
2648	60.5558
2632	60.2741
2616	60.3414
2600	60.305
2584	60.2295
2568	60.1977
2552	60.1366
2536	60.097
2520	59.9905
2504	60.1017
2488	59.6405
2472	59.7669
2456	59.6736
2440	59.864
2424	59.6815
2408	59.3176
2392	59.4594
2376	59.4497
2360	59.3156
2344	59.2275
2328	59.1142
2312	58.8678
2296	58.8678
2280	58.8881
2264	58.8174
2248	58.7813
2232	58.6084
2216	58.6035
2200	58.5519
2184	58.3556
2168	58.2532
2152	58.0967
2136	58.0796
2120	58.1022
2104	57.9947
2088	58.0014
2072	57.7532
2056	57.6425
2040	57.5673
2024	57.4628
2008	57.6153
1992	57.3801
1976	57.164
1960	57.1394
1944	57.1719
1928	56.832
1912	56.9174
1896	56.7967
1880	56.6465
1864	56.6433
1848	56.5737
1832	56.3847
1816	56.4338
1800	56.3556
1784	56.3057
1768	56.2728
1752	56.0704
1736	56.057
1720	55.8227
1704	55.9911
1688	55.7353
1672	55.7772
1656	55.7354
1640	55.4689
1624	55.1628
1608	55.1252
1592	54.8967
1576	54.9943
1560	55.2373
1544	55.0285
1528	54.7166
1512	54.6099
1496	54.4311
1480	54.1495
1464	54.2182
1448	53.8978
1432	53.8604
1416	53.7866
1400	53.6611
1384	53.6436
1368	53.4838
1352	53.2378
1336	53.2504
1320	53.1562
1304	52.9765
1288	52.9029
1272	52.5766
1256	52.5939
1240	52.4312
1224	52.4508
1208	52.4165
1192	52.1593
1176	52.1137
1160	52.0516
1144	52.0032
1128	51.7991
1112	51.669
1096	51.3539
1080	51.2068
1064	51.241
1048	51.2348
1032	51.0561
1016	51.0427
1000	50.5229
984	 50.7095
968	 50.6464
952	 50.3644
936	 50.2451
920	 49.5588
904	 49.4529
888	 49.6278
872	 49.5352
856	 49.4314
840	 49.1767
824	 48.8077
808	 48.6593
792	 48.8193
776	 48.7268
760	 48.1777
744	 48.0134
728	 47.9139
712	 47.6678
696	 47.0149
680	 46.8848
664	 46.7821
648	 46.7803
632	 46.3198
616	 45.6677
600	 45.4958
584	 45.3542
568	 45.2074
552	 43.8448
536	 43.8834
520	 42.8348
504	 42.3021
488	 43.2836
472	 42.3072
456	 40.0442
440	 39.7327
424	 38.2769
408	 38.1531
392	 35.9694
376	 32.1401
370	 67.1461