Folder: Masteroppgave/Bakgrunnsmateriale/MATLAB/FTIR/ftir_data/subAa/Mapping_121 (part 5)

File: BZ1503107-1_t04.asc
PE IR       SPECTRUM    SPECTRUM    ASCII       PEDS        1.60
  -1
BZ1955~1.ASC
17/04/07
13:34:21.00
17/04/07
13:34:47.00
tln
$BZ1503107-1_t0004$<tbV0>[5.2,-13.0,8.0,0.0,27,1,0]
27.028
64

2002,4.07
MIRTGS : RIGHTBACK : INTERNAL 2
MIR : ON : INTERNAL 2
OPTKBR

0.200000
8
8.000000
FILLER
RATIO
SPECTRUM
UNLOCKED 256

DOUBLE
64
COMBINED
1
0
0

0.002000
RATIO

1
0
TRUE
51149
0
LEFT NOT FITTED RIGHT NOT FITTED 0
NONE
NONE
15600
12
4.427000
51148
TRUE
1 0 8 72 0 0 0 0

15798

#HDR
-1
-1
#GR
µM
%T
2.38419e-05
0.0
2.000000
0.002000
12515
8
75.2784
29.9271
#DATA
2.000000	 64.354
2.084000	 66.1075
2.168000	 64.7991
2.252000	 64.38
2.336000	 65.0298
2.420000	 65.0055
2.504000	 64.8645
2.588000	 64.98
2.672000	 65.2823
2.756000	 65.3124
2.840000	 65.0092
2.924000	 65.2223
3.008000	 65.096
3.092000	 65.0367
3.176000	 65.1911
3.260000	 65.0964
3.344000	 65.0389
3.428000	 65.0086
3.512000	 65.0669
3.596000	 65.0303
3.680000	 65.0633
3.764000	 65.1134
3.848000	 65.1641
3.932000	 65.0429
4.016000	 65.1643
4.100000	 65.0563
4.184000	 65.0757
4.268000	 64.8882
4.352000	 64.9116
4.436000	 64.9944
4.520000	 64.8992
4.604000	 64.9329
4.688000	 64.8283
4.772000	 64.8429
4.856000	 64.8427
4.940000	 64.9815
5.024000	 64.7791
5.108000	 64.8418
5.192000	 64.8211
5.276000	 64.8193
5.359999	 64.9195
5.444000	 64.8956
5.528000	 64.879
5.612000	 64.8305
5.696000	 64.8
5.780000	 64.6797
5.864000	 64.7563
5.948000	 64.8242
6.032000	 64.8491
6.116000	 64.8443
6.200000	 64.6619
6.284000	 64.6837
6.368000	 64.5914
6.452000	 64.7471
6.536000	 64.5594
6.620000	 64.5818
6.704000	 64.6543
6.788000	 64.544
6.872000	 64.629
6.956000	 64.6796
7.040000	 64.5953
7.124000	 64.5189
7.208000	 64.3513
7.292000	 64.5359
7.376000	 64.485
7.460000	 64.4904
7.544000	 64.4244
7.628000	 64.4887
7.712000	 64.3941
7.796000	 64.3646
7.880000	 64.2741
7.964000	 64.4699
8.048000	 64.348
8.132000	 64.3666
8.216000	 64.4096
8.300000	 64.4549
8.384000	 64.525
8.468000	 64.2458
8.552000	 64.4102
8.635999	 64.2814
8.719999	 64.1618
8.804000	 64.3202
8.888000	 64.3623
8.972000	 64.3307
9.056000	 64.3005
9.140000	 64.4226
9.224000	 64.3657
9.308000	 64.2079
9.391999	 64.1307
9.475999	 64.2169
9.560000	 64.1411
9.644000	 64.1803
9.728000	 64.354
9.812000	 64.231
9.896000	 64.3397
9.980000	 64.1919
10.064	64.1893
10.148	64.2834
10.232	64.3716
10.316	64.3033
10.4	64.2819
10.484	64.2674
10.568	64.3997
10.652	64.3387
10.736	64.2314
10.82	64.4209
10.904	64.5657
10.988	64.3806
11.072	64.2488
11.156	64.4036
11.24	64.3183
11.324	64.2683
11.408	64.3078
11.492	64.3491
11.576	64.4662
11.66	64.3783
11.744	64.4671
11.828	64.5113
11.912	64.297
11.996	64.191
12.08	64.1645
12.164	64.288
12.248	64.2111
12.332	64.1249
12.416	64.1476
12.5	64.1573
12.584	64.1937
12.668	64.2532
12.752	64.2624
12.836	64.2488
12.92	64.1852
13.004	64.1537
13.088	64.2771
13.172	64.3689
13.256	64.2685
13.34	64.1921
13.424	64.1326
13.508	64.0041
13.592	63.9787
13.676	64.0637
13.76	64.2294
13.844	64.2202
13.928	64.1242
14.012	64.1696
14.096	64.2183
14.18	64.1492
14.264	63.9527
14.348	63.7445
14.432	63.7731
14.516	63.9363
14.6	64.0264
14.684	64.0492
14.768	63.9999
14.852	64.0053
14.936	64.0966
15.02	64.1268
15.104	64.0814
15.188	64.0303
15.272	64.0201
15.356	64.0796
15.44	64.1774
15.524	64.2056
15.608	64.1387
15.692	64.0994
15.776	64.1341
15.86	64.1309
15.944	64.0393
16.028	63.9334
16.112	63.8886
16.196	63.9153
16.28	63.923
16.364	63.8284
16.448	63.7302
16.532	63.7532
16.616	63.8221
16.7	63.8355
16.784	63.8429
16.868	63.8856
16.952	63.9184
17.036	63.9466
17.12	64.009
17.204	64.0654
17.288	64.0717
17.372	64.0152
17.456	63.8569
17.54	63.616
17.624	63.4717
17.708	63.6016
17.792	63.9618
17.876	64.3158
17.96	64.4389
18.044	64.2858
18.128	64.0339
18.212	63.8966
18.296	63.9095
18.38	63.9626
18.464	63.9604
18.548	63.897
18.632	63.8487
18.716	63.9053
18.8	64.1011
18.884	64.3918
18.968	64.6764
19.052	64.8447
19.136	64.8463
19.22	64.729
19.304	64.5857
19.388	64.4666
19.472	64.3503
19.556	64.1944
19.64	64.0189
19.724	63.9295
19.808	64.0283
19.892	64.2884
19.976	64.5552
20.06	64.6807
20.144	64.6388
20.228	64.4965
20.312	64.3091
20.396	64.084
20.48	63.8335
20.564	63.64
20.648	63.6164
20.732	63.8077
20.816	64.1585
20.9	64.5485
20.984	64.8807
21.068	65.1164
21.152	65.2544
21.236	65.296
21.32	65.2357
21.404	65.0991
21.488	64.9813
21.572	65.0285
21.656	65.3355
21.74	65.8701
21.824	66.4222
21.908	66.679
21.992	66.412
22.076	65.6003
22.16	64.4656
22.244	63.3739
22.328	62.6389
22.412	62.4416
22.496	62.7355
22.58	63.318
22.664	63.9362
22.748	64.3987
22.832	64.7054
22.916	65.0424
23	65.7063
23.084	66.9247
23.168	68.6735
23.252	70.6313
23.336	72.3069
23.42	73.2887
23.504	73.4092
23.588	72.7488
23.672	71.4745
23.756	69.7067
23.84	67.4754
23.924	64.7907
24.008	61.7921
24.092	58.8366
24.176	56.4009
24.26	54.9049
24.344	54.5558
24.428	55.2638
24.512	56.7604
24.596	58.7115
24.68	60.8239
24.764	62.9049
24.848	64.8562
24.932	66.6252
25.016	68.1635
25.1	69.4374
25.184	70.3657
25.268	70.7971
25.352	70.5291
25.436	69.312
25.52	67.0053
25.604	63.7008
25.688	59.5638
25.772	55.0752
25.856	50.9854
25.94	48.2528
26.024	46.9276
26.108	45.4539
26.192	42.6388
26.276	38.6104
26.36	36.0712
26.444	36.6932
26.528	40.1041
26.612	41.8155
26.696	38.7676
26.78	32.5054
26.864	30.1333
26.948	38.8234
27.028	55.4017

File: BZ1503107-1_t04_cm-1.asc
PE IR       SPECTRUM    SPECTRUM    ASCII       PEDS        1.60
  -1
BZ6C22~1.ASC
17/04/07
13:34:21.00
17/04/07
13:34:21.00
tln
$BZ1503107-1_t0004$<tbV0>[5.2,-13.0,8.0,0.0,27,1,0]
370
64

2002,4.07
MIRTGS : RIGHTBACK : INTERNAL 2
MIR : ON : INTERNAL 2
OPTKBR

0.200000
8
8.000000
FILLER
RATIO
SPECTRUM
UNLOCKED 256

DOUBLE
64
COMBINED
1
0
0

1.000000
RATIO

1
0
TRUE
51149
0
LEFT NOT FITTED RIGHT NOT FITTED 0
NONE
NONE
15600
12
4.427000
51148
TRUE
1 0 8 72 0 0 0 0

15798

#HDR
-1
-1
#GR
CM-1
%T
2.38419e-05
0.0
5000
-1.000000
4631
8
76.9673
30.7092
#DATA
5000	64.354
4984	64.7887
4968	64.2319
4952	64.2762
4936	65.3431
4920	64.5585
4904	65.1534
4888	65.8716
4872	65.2895
4856	64.5271
4840	65.2695
4824	65.2916
4808	65.0542
4792	65.4126
4776	64.3947
4760	65.328
4744	64.8107
4728	64.6579
4712	64.7946
4696	64.3736
4680	64.9221
4664	64.6482
4648	64.9163
4632	64.6733
4616	64.7911
4600	64.4889
4584	64.9108
4568	64.4423
4552	64.3347
4536	64.179
4520	64.2697
4504	64.8895
4488	66.4429
4472	64.7971
4456	63.3298
4440	64.3221
4424	65.4423
4408	64.6111
4392	65.1028
4376	64.6108
4360	64.5399
4344	64.872
4328	64.8389
4312	65.0765
4296	64.9228
4280	64.9877
4264	64.6906
4248	65.0424
4232	65.2229
4216	65.1342
4200	65.1566
4184	65.0073
4168	65.3205
4152	64.8259
4136	64.9113
4120	65.154
4104	65.5121
4088	64.9858
4072	65.033
4056	65.1323
4040	65.4664
4024	65.0287
4008	65.1013
3992	64.8603
3976	65.18
3960	65.0015
3944	65.1449
3928	64.6209
3912	65.0676
3896	65.0691
3880	65.0389
3864	64.9796
3848	65.1516
3832	65.3553
3816	65.1178
3800	65.1277
3784	65.0204
3768	65.2095
3752	65.3137
3736	65.2348
3720	65.133
3704	65.0841
3688	65.2211
3672	65.45
3656	65.2153
3640	65.0884
3624	65.3462
3608	65.2728
3592	64.9733
3576	65.2204
3560	64.9985
3544	65.2154
3528	65.143
3512	65.102
3496	65.1096
3480	65.1314
3464	64.988
3448	65.0381
3432	65.1203
3416	65.2025
3400	65.1026
3384	65.0733
3368	65.2179
3352	65.0855
3336	65.3363
3320	65.1494
3304	65.0804
3288	65.076
3272	65.0969
3256	65.2215
3240	64.973
3224	65.0706
3208	65.0686
3192	65.2385
3176	65.0777
3160	65.2023
3144	65.2812
3128	65.1052
3112	64.999
3096	65.1753
3080	65.1097
3064	65.0023
3048	64.9551
3032	65.0976
3016	65.1829
3000	65.1354
2984	65.0526
2968	65.1008
2952	64.941
2936	65.0065
2920	64.9872
2904	65.1105
2888	64.9611
2872	65.1248
2856	64.9653
2840	65.1397
2824	65.0492
2808	65.0039
2792	65.0123
2776	65.0477
2760	65.0829
2744	65.0608
2728	65.1058
2712	65.073
2696	65.1223
2680	65.0796
2664	65.0196
2648	65.027
2632	65.1066
2616	65.0673
2600	65.1401
2584	65.1754
2568	65.1753
2552	65.0474
2536	65.0483
2520	65.0613
2504	65.0369
2488	65.1681
2472	65.0438
2456	64.8863
2440	65.062
2424	65.0227
2408	65.0076
2392	65.0801
2376	65.0932
2360	65.0397
2344	64.9085
2328	64.9594
2312	65.0196
2296	64.9239
2280	64.9643
2264	64.939
2248	64.9387
2232	64.9791
2216	64.9919
2200	64.9625
2184	64.8795
2168	64.9668
2152	64.7188
2136	64.8281
2120	64.9761
2104	64.9487
2088	64.8094
2072	64.8916
2056	64.8384
2040	64.9184
2024	64.9805
2008	64.8966
1992	64.7704
1976	64.9058
1960	64.8785
1944	64.8928
1928	64.8129
1912	64.9341
1896	64.8068
1880	64.8189
1864	64.9153
1848	64.8372
1832	64.8416
1816	64.921
1800	64.88
1784	64.8746
1768	64.874
1752	64.7921
1736	64.6826
1720	64.7639
1704	64.7853
1688	64.7324
1672	64.7917
1656	64.9092
1640	64.7784
1624	64.7781
1608	64.7361
1592	64.6849
1576	64.6122
1560	64.7369
1544	64.7927
1528	64.5889
1512	64.6122
1496	64.6358
1480	64.616
1464	64.5349
1448	64.4808
1432	64.6165
1416	64.4442
1400	64.5068
1384	64.3368
1368	64.5355
1352	64.5504
1336	64.4415
1320	64.4839
1304	64.4053
1288	64.412
1272	64.3135
1256	64.4684
1240	64.3423
1224	64.4331
1208	64.4582
1192	64.5125
1176	64.2416
1160	64.2832
1144	64.15
1128	64.3945
1112	64.3036
1096	64.3542
1080	64.3446
1064	64.1355
1048	64.2348
1032	64.3211
1016	64.2394
1000	64.1519
984	 64.3136
968	 64.327
952	 64.3089
936	 64.2982
920	 64.5388
904	 64.2397
888	 64.2965
872	 64.3385
856	 64.3754
840	 64.3119
824	 64.2587
808	 64.1364
792	 64.2206
776	 64.2205
760	 64.3674
744	 64.1067
728	 64.1883
712	 64.1993
696	 63.7254
680	 64.0412
664	 64.11
648	 64.1695
632	 64.1442
616	 63.9291
600	 63.8361
584	 64.0117
568	 63.4835
552	 64.0665
536	 63.8513
520	 64.7103
504	 64.1191
488	 63.8004
472	 65.2835
456	 66.6658
440	 64.3026
424	 72.7847
408	 56.7147
392	 67.3278
376	 41.873
370	 55.4017

File: BZ1503107-1_t05.asc
PE IR       SPECTRUM    SPECTRUM    ASCII       PEDS        1.60
  -1
BZ1D55~1.ASC
17/04/07
13:38:58.00
17/04/07
13:39:24.00
tln
$BZ1503107-1_t0005$<tbV0>[2.6,-13.0,8.0,0.0,27,1,0]
27.028
64

2002,4.07
MIRTGS : RIGHTBACK : INTERNAL 2
MIR : ON : INTERNAL 2
OPTKBR

0.200000
8
8.000000
FILLER
RATIO
SPECTRUM
UNLOCKED 256

DOUBLE
64
COMBINED
1
0
0

0.002000
RATIO

1
0
TRUE
51149
0
LEFT NOT FITTED RIGHT NOT FITTED 0
NONE
NONE
15600
12
4.427000
51148
TRUE
1 0 8 72 0 0 0 0

15798

#HDR
-1
-1
#GR
µM
%T
2.38419e-05
0.0
2.000000
0.002000
12515
8
85.746
58.9055
#DATA
2.000000	 65.2549
2.084000	 65.9139
2.168000	 64.7909
2.252000	 66.6881
2.336000	 64.7465
2.420000	 65.1192
2.504000	 65.2173
2.588000	 64.8882
2.672000	 65.1697
2.756000	 65.2891
2.840000	 65.0332
2.924000	 65.0832
3.008000	 65.1129
3.092000	 65.041
3.176000	 65.0562
3.260000	 65.0123
3.344000	 65.0845
3.428000	 65.0615
3.512000	 65.1502
3.596000	 65.1096
3.680000	 65.1374
3.764000	 65.0681
3.848000	 65.0019
3.932000	 64.9601
4.016000	 65.1225
4.100000	 65.0573
4.184000	 65.058
4.268000	 65.049
4.352000	 65.0663
4.436000	 64.8956
4.520000	 64.869
4.604000	 64.9897
4.688000	 64.834
4.772000	 64.8355
4.856000	 64.9678
4.940000	 64.8983
5.024000	 64.8848
5.108000	 64.9026
5.192000	 64.7976
5.276000	 64.963
5.359999	 64.8817
5.444000	 64.8086
5.528000	 64.7933
5.612000	 64.7375
5.696000	 64.8557
5.780000	 64.5855
5.864000	 64.8203
5.948000	 64.7158
6.032000	 64.8114
6.116000	 64.7152
6.200000	 64.5936
6.284000	 64.7527
6.368000	 64.5656
6.452000	 64.7355
6.536000	 64.5618
6.620000	 64.7288
6.704000	 64.6134
6.788000	 64.7081
6.872000	 64.7446
6.956000	 64.5432
7.040000	 64.705
7.124000	 64.4655
7.208000	 64.5035
7.292000	 64.414
7.376000	 64.5594
7.460000	 64.4655
7.544000	 64.4394
7.628000	 64.4038
7.712000	 64.3449
7.796000	 64.39
7.880000	 64.3726
7.964000	 64.4067
8.048000	 64.3318
8.132000	 64.3062
8.216000	 64.391
8.300000	 64.3149
8.384000	 64.4562
8.468000	 64.2484
8.552000	 64.2709
8.635999	 64.32
8.719999	 64.1752
8.804000	 64.385
8.888000	 64.3067
8.972000	 64.3114
9.056000	 64.2254
9.140000	 64.3656
9.224000	 64.3661
9.308000	 64.1511
9.391999	 64.2755
9.475999	 64.3393
9.560000	 64.2827
9.644000	 64.3103
9.728000	 64.3912
9.812000	 64.2042
9.896000	 64.279
9.980000	 64.1602
10.064	64.1047
10.148	64.151
10.232	64.2639
10.316	64.1625
10.4	64.2553
10.484	64.2325
10.568	64.4987
10.652	64.3163
10.736	64.35
10.82	64.257
10.904	64.5131
10.988	64.3493
11.072	64.1079
11.156	64.2528
11.24	64.1665
11.324	64.1815
11.408	64.3106
11.492	64.2726
11.576	64.1552
11.66	64.2334
11.744	64.3823
11.828	64.3798
11.912	64.1496
11.996	63.9541
12.08	63.9644
12.164	64.1027
12.248	64.1485
12.332	64.1292
12.416	64.1021
12.5	63.9813
12.584	64.0138
12.668	64.1309
12.752	64.114
12.836	64.1151
12.92	64.3423
13.004	64.4044
13.088	64.2323
13.172	64.0768
13.256	64.1356
13.34	64.2292
13.424	64.034
13.508	63.8038
13.592	63.7578
13.676	63.9313
13.76	64.2279
13.844	64.3161
13.928	64.2409
14.012	64.0461
14.096	63.8331
14.18	63.8393
14.264	63.9729
14.348	64.0243
14.432	64.0411
14.516	64.0632
14.6	64.0385
14.684	64.056
14.768	64.0979
14.852	64.0208
14.936	63.8794
15.02	63.9041
15.104	64.1077
15.188	64.2084
15.272	64.1126
15.356	63.9679
15.44	63.9109
15.524	63.9557
15.608	63.9673
15.692	63.9226
15.776	63.936
15.86	63.9902
15.944	63.979
16.028	63.8549
16.112	63.7294
16.196	63.8019
16.28	64.0145
16.364	64.1042
16.448	64.0242
16.532	63.882
16.616	63.6923
16.7	63.4947
16.784	63.3953
16.868	63.4068
16.952	63.4985
17.036	63.7337
17.12	64.1273
17.204	64.4851
17.288	64.5685
17.372	64.3317
17.456	63.944
17.54	63.6459
17.624	63.5977
17.708	63.7889
17.792	64.0813
17.876	64.3328
17.96	64.4326
18.044	64.3128
18.128	64.0454
18.212	63.8027
18.296	63.6737
18.38	63.6183
18.464	63.5832
18.548	63.5726
18.632	63.6169
18.716	63.7284
18.8	63.9038
18.884	64.1267
18.968	64.3418
19.052	64.4741
19.136	64.5019
19.22	64.4867
19.304	64.4806
19.388	64.4423
19.472	64.2815
19.556	63.9767
19.64	63.6293
19.724	63.3903
19.808	63.3247
19.892	63.3512
19.976	63.3394
20.06	63.2714
20.144	63.2471
20.228	63.3487
20.312	63.5365
20.396	63.7084
20.48	63.8303
20.564	63.9831
20.648	64.2729
20.732	64.6929
20.816	65.0912
20.9	65.2616
20.984	65.0994
21.068	64.6749
21.152	64.1884
21.236	63.8584
21.32	63.8067
21.404	64.0289
21.488	64.4271
21.572	64.873
21.656	65.2528
21.74	65.4766
21.824	65.4795
21.908	65.2209
21.992	64.6842
22.076	63.8914
22.16	62.9291
22.244	61.9748
22.328	61.2586
22.412	60.9961
22.496	61.2959
22.58	62.0972
22.664	63.1994
22.748	64.3089
22.832	65.1468
22.916	65.5195
23	65.4001
23.084	64.8887
23.168	64.179
23.252	63.4686
23.336	62.9127
23.42	62.5627
23.504	62.4116
23.588	62.4251
23.672	62.5699
23.756	62.8187
23.84	63.1371
23.924	63.4945
24.008	63.8973
24.092	64.4032
24.176	65.0764
24.26	65.8843
24.344	66.6144
24.428	66.9318
24.512	66.4835
24.596	65.1285
24.68	63.0808
24.764	60.91
24.848	59.3273
24.932	58.9363
25.016	59.915
25.1	61.9857
25.184	64.5209
25.268	66.8096
25.352	68.2921
25.436	68.767
25.52	68.4103
25.604	67.5602
25.688	66.6508
25.772	65.9469
25.856	65.4011
25.94	65.1069
26.024	65.0982
26.108	65.1561
26.192	65.0787
26.276	64.8712
26.36	64.9124
26.444	65.6201
26.528	67.2528
26.612	69.3724
26.696	71.6017
26.78	74.0246
26.864	77.3301
26.948	81.8733
27.028	85.746

File: BZ1503107-1_t05_cm-1.asc
PE IR       SPECTRUM    SPECTRUM    ASCII       PEDS        1.60
  -1
BZ6D22~1.ASC
17/04/07
13:38:58.00
17/04/07
13:38:58.00
tln
$BZ1503107-1_t0005$<tbV0>[2.6,-13.0,8.0,0.0,27,1,0]
370
64

2002,4.07
MIRTGS : RIGHTBACK : INTERNAL 2
MIR : ON : INTERNAL 2
OPTKBR

0.200000
8
8.000000
FILLER
RATIO
SPECTRUM
UNLOCKED 256

DOUBLE
64
COMBINED
1
0
0

1.000000
RATIO

1
0
TRUE
51149
0
LEFT NOT FITTED RIGHT NOT FITTED 0
NONE
NONE
15600
12
4.427000
51148
TRUE
1 0 8 72 0 0 0 0

15798

#HDR
-1
-1
#GR
CM-1
%T
2.38419e-05
0.0
5000
-1.000000
4631
8
85.746
58.9595
#DATA
5000	65.2549
4984	64.5561
4968	64.721
4952	65.0665
4936	64.7921
4920	65.7857
4904	65.1802
4888	62.9542
4872	63.4413
4856	64.8484
4840	65.2464
4824	65.1363
4808	65.6189
4792	65.4339
4776	65.1966
4760	65.3568
4744	65.0856
4728	64.858
4712	64.573
4696	64.6901
4680	64.9894
4664	64.5821
4648	64.9199
4632	64.4156
4616	64.3939
4600	64.7275
4584	64.7477
4568	64.1021
4552	63.7223
4536	64.3845
4520	63.1629
4504	64.572
4488	67.0644
4472	64.128
4456	71.9571
4440	66.4028
4424	64.3346
4408	64.079
4392	64.5071
4376	64.0205
4360	64.3435
4344	64.9451
4328	64.4285
4312	64.9164
4296	64.8597
4280	64.7468
4264	64.7892
4248	65.2432
4232	65.0009
4216	64.9237
4200	65.3082
4184	64.9979
4168	64.7973
4152	65.0367
4136	65.1913
4120	65.0059
4104	65.5847
4088	65.141
4072	65.162
4056	65.2112
4040	65.0369
4024	65.0836
4008	64.726
3992	65.1466
3976	65.3865
3960	65.1316
3944	65.0261
3928	64.8833
3912	65.0445
3896	65.0906
3880	64.9106
3864	64.8879
3848	65.0868
3832	65.2739
3816	65.3447
3800	65.345
3784	65.0677
3768	65.0904
3752	65.2729
3736	65.2971
3720	65.0282
3704	65.3064
3688	65.4064
3672	65.3236
3656	65.255
3640	65.3756
3624	65.1433
3608	65.2374
3592	65.156
3576	65.0979
3560	64.9794
3544	65.2762
3528	65.0465
3512	65.0612
3496	65.1569
3480	65.2488
3464	64.7989
3448	64.9045
3432	65.099
3416	65.0555
3400	65.0749
3384	65.1052
3368	65.0501
3352	65.1217
3336	65.1823
3320	65.1648
3304	65.0713
3288	65.0806
3272	65.1503
3256	65.0936
3240	64.9087
3224	65.0797
3208	65.0287
3192	65.1728
3176	65.1872
3160	65.1593
3144	65.0334
3128	65.2038
3112	65.033
3096	65.1989
3080	65.2491
3064	65.0182
3048	65.1086
3032	65.0399
3016	65.1549
3000	65.1186
2984	65.0905
2968	64.9843
2952	64.964
2936	65.0877
2920	65.0507
2904	65.0936
2888	65.001
2872	65.0065
2856	65.0667
2840	65.0255
2824	65.1682
2808	65.0661
2792	65.0252
2776	65.0483
2760	65.0918
2744	65.156
2728	65.1234
2712	65.0933
2696	65.1353
2680	65.0883
2664	65.0256
2648	64.9722
2632	65.027
2616	65.0221
2600	64.9902
2584	65.1153
2568	65.0613
2552	65.0775
2536	65.046
2520	64.9766
2504	65.074
2488	65.1348
2472	65.0794
2456	65.0969
2440	65.0465
2424	64.891
2408	64.9883
2392	65.0429
2376	65.107
2360	65.0367
2344	65.0548
2328	64.9793
2312	65.0433
2296	65.042
2280	64.9612
2264	64.909
2248	64.8778
2232	64.8367
2216	64.8786
2200	64.9089
2184	64.939
2168	65.0339
2152	64.6618
2136	64.8632
2120	64.8951
2104	64.833
2088	64.8738
2072	64.8312
2056	64.9706
2040	64.9109
2024	64.8999
2008	64.9285
1992	64.8656
1976	64.7796
1960	64.8896
1944	64.8751
1928	64.8157
1912	64.8248
1896	64.9665
1880	64.8129
1864	64.8567
1848	64.8051
1832	64.8015
1816	64.8499
1800	64.8287
1784	64.7528
1768	64.866
1752	64.8253
1736	64.6028
1720	64.7217
1704	64.8238
1688	64.6839
1672	64.718
1656	64.8426
1640	64.6929
1624	64.7529
1608	64.6423
1592	64.7433
1576	64.6671
1560	64.7563
1544	64.7467
1528	64.574
1512	64.7216
1496	64.68
1480	64.7254
1464	64.6332
1448	64.4708
1432	64.616
1416	64.5153
1400	64.4615
1384	64.4637
1368	64.474
1352	64.5598
1336	64.4221
1320	64.3684
1304	64.3098
1288	64.4619
1272	64.4072
1256	64.4058
1240	64.348
1224	64.3126
1208	64.3934
1192	64.4545
1176	64.1378
1160	64.3079
1144	64.2034
1128	64.3916
1112	64.3331
1096	64.3009
1080	64.2799
1064	64.29
1048	64.3357
1032	64.4137
1016	64.2427
1000	64.1196
984	 64.175
968	 64.2019
952	 64.325
936	 64.3554
920	 64.4207
904	 64.1166
888	 64.1319
872	 64.3028
856	 64.2658
840	 64.1689
824	 64.0664
808	 64.1277
792	 64.0744
776	 64.2479
760	 64.0909
744	 63.9769
728	 64.1552
712	 63.9486
696	 64.0266
680	 64.0712
664	 63.9949
648	 63.9106
632	 63.9682
616	 63.8963
600	 63.5666
584	 64.1436
568	 63.5846
552	 64.0861
536	 63.6426
520	 64.4851
504	 63.3328
488	 63.8473
472	 64.0238
456	 65.1081
440	 64.0509
424	 62.4222
408	 66.5068
392	 68.4828
376	 68.9562
370	 85.746

File: BZ1503107-1_t06.asc
PE IR       SPECTRUM    SPECTRUM    ASCII       PEDS        1.60
  -1
BZ1165~1.ASC
17/04/07
13:43:34.00
17/04/07
13:44:01.00
tln
$BZ1503107-1_t0006$<tbV0>[0.0,-13.0,8.0,0.0,27,1,0]
27.028
64

2002,4.07
MIRTGS : RIGHTBACK : INTERNAL 2
MIR : ON : INTERNAL 2
OPTKBR

0.200000
8
8.000000
FILLER
RATIO
SPECTRUM
UNLOCKED 256

DOUBLE
64
COMBINED
1
0
0

0.002000
RATIO

1
0
TRUE
51149
0
LEFT NOT FITTED RIGHT NOT FITTED 0
NONE
NONE
15600
12
4.427000
51148
TRUE
1 0 8 72 0 0 0 0

15798

#HDR
-1
-1
#GR
µM
%T
2.38419e-05
0.0
2.000000
0.002000
12515
8
76.6929
52.2105
#DATA
2.000000	 64.7307
2.084000	 65.7436
2.168000	 64.3539
2.252000	 61.876
2.336000	 64.6267
2.420000	 65.0626
2.504000	 64.9435
2.588000	 65.0478
2.672000	 65.2381
2.756000	 65.3024
2.840000	 64.9754
2.924000	 65.0135
3.008000	 65.0503
3.092000	 64.9832
3.176000	 64.8814
3.260000	 64.9705
3.344000	 64.8452
3.428000	 64.8267
3.512000	 64.8933
3.596000	 64.906
3.680000	 64.9614
3.764000	 65.0117
3.848000	 64.9277
3.932000	 64.9557
4.016000	 64.9697
4.100000	 64.8736
4.184000	 64.9135
4.268000	 64.9621
4.352000	 64.9248
4.436000	 64.863
4.520000	 64.8187
4.604000	 64.8099
4.688000	 64.7236
4.772000	 64.7805
4.856000	 64.7857
4.940000	 64.8022
5.024000	 64.7453
5.108000	 64.8069
5.192000	 64.7695
5.276000	 64.7634
5.359999	 64.7455
5.444000	 64.6166
5.528000	 64.7623
5.612000	 64.711
5.696000	 64.6036
5.780000	 64.4098
5.864000	 64.6808
5.948000	 64.6438
6.032000	 64.6273
6.116000	 64.6355
6.200000	 64.4832
6.284000	 64.5451
6.368000	 64.6088
6.452000	 64.6108
6.536000	 64.3561
6.620000	 64.5947
6.704000	 64.4658
6.788000	 64.5044
6.872000	 64.5699
6.956000	 64.668
7.040000	 64.5298
7.124000	 64.3665
7.208000	 64.3994
7.292000	 64.3081
7.376000	 64.4668
7.460000	 64.4751
7.544000	 64.3661
7.628000	 64.2837
7.712000	 64.2703
7.796000	 64.3257
7.880000	 64.1561
7.964000	 64.1883
8.048000	 64.2459
8.132000	 64.2221
8.216000	 64.185
8.300000	 64.2605
8.384000	 64.2596
8.468000	 64.1652
8.552000	 64.1819
8.635999	 64.1341
8.719999	 64.1272
8.804000	 64.2616
8.888000	 64.2911
8.972000	 64.2552
9.056000	 63.9908
9.140000	 64.3653
9.224000	 64.2852
9.308000	 64.4108
9.391999	 64.1296
9.475999	 64.0957
9.560000	 64.1607
9.644000	 64.1714
9.728000	 64.1355
9.812000	 64.0304
9.896000	 64.0908
9.980000	 64.1142
10.064	64.3077
10.148	64.0853
10.232	64.2009
10.316	64.1937
10.4	64.0832
10.484	64.1705
10.568	64.4274
10.652	64.3434
10.736	64.1029
10.82	64.0972
10.904	64.2103
10.988	64.2372
11.072	64.1789
11.156	64.1564
11.24	64.0952
11.324	64.2071
11.408	64.2107
11.492	64.2383
11.576	64.1096
11.66	64.2064
11.744	64.2887
11.828	64.1861
11.912	64.0367
11.996	64.0036
12.08	63.9853
12.164	64.0893
12.248	64.2301
12.332	64.305
12.416	64.1504
12.5	64.0466
12.584	64.1214
12.668	64.0838
12.752	64.0676
12.836	64.1193
12.92	64.1685
13.004	64.0422
13.088	63.963
13.172	64.0706
13.256	63.964
13.34	63.8328
13.424	63.8827
13.508	64.0399
13.592	64.154
13.676	64.1991
13.76	64.2008
13.844	64.1387
13.928	64.1048
14.012	64.0732
14.096	64.022
14.18	63.9706
14.264	63.8214
14.348	63.6834
14.432	63.775
14.516	63.9828
14.6	64.1402
14.684	64.1258
14.768	63.9943
14.852	63.9392
14.936	63.9603
15.02	63.9943
15.104	64.0092
15.188	63.9712
15.272	63.9115
15.356	63.9365
15.44	64.1137
15.524	64.3272
15.608	64.3891
15.692	64.2883
15.776	64.2159
15.86	64.3145
15.944	64.4715
16.028	64.4766
16.112	64.3262
16.196	64.1902
16.28	64.1456
16.364	64.1123
16.448	64.0046
16.532	63.843
16.616	63.7483
16.7	63.7961
16.784	63.9054
16.868	63.977
16.952	64.0242
17.036	64.1165
17.12	64.2596
17.204	64.3449
17.288	64.2521
17.372	64.0163
17.456	63.8331
17.54	63.8633
17.624	64.0971
17.708	64.3933
17.792	64.6021
17.876	64.6832
17.96	64.6653
18.044	64.5499
18.128	64.3448
18.212	64.1414
18.296	64.0639
18.38	64.1516
18.464	64.3207
18.548	64.437
18.632	64.4226
18.716	64.3242
18.8	64.2814
18.884	64.3993
18.968	64.6329
19.052	64.8187
19.136	64.8228
19.22	64.651
19.304	64.4199
19.388	64.2332
19.472	64.1143
19.556	64.0451
19.64	64.0178
19.724	64.0051
19.808	63.9486
19.892	63.8062
19.976	63.6431
20.06	63.6053
20.144	63.7663
20.228	64.024
20.312	64.1868
20.396	64.1498
20.48	63.9653
20.564	63.7843
20.648	63.7808
20.732	64.1101
20.816	64.8443
20.9	65.8689
20.984	66.8537
21.068	67.361
21.152	67.1144
21.236	66.1836
21.32	64.9473
21.404	63.8631
21.488	63.1918
21.572	62.9378
21.656	62.9526
21.74	63.0938
21.824	63.319
21.908	63.6372
21.992	63.9718
22.076	64.1054
22.16	63.7568
22.244	62.7719
22.328	61.2464
22.412	59.5065
22.496	57.9948
22.58	57.0913
22.664	57.0384
22.748	57.8636
22.832	59.3622
22.916	61.161
23	62.8086
23.084	63.9448
23.168	64.3972
23.252	64.2374
23.336	63.7122
23.42	63.0953
23.504	62.5711
23.588	62.168
23.672	61.81
23.756	61.4084
23.84	60.9515
23.924	60.56
24.008	60.4482
24.092	60.8369
24.176	61.8439
24.26	63.3773
24.344	65.1338
24.428	66.7307
24.512	67.8006
24.596	68.1536
24.68	67.8465
24.764	67.1645
24.848	66.4489
24.932	65.9552
25.016	65.7343
25.1	65.6739
25.184	65.6086
25.268	65.4493
25.352	65.234
25.436	65.0696
25.52	65.0859
25.604	65.3944
25.688	65.8736
25.772	66.3732
25.856	66.8707
25.94	67.8414
26.024	69.3577
26.108	70.3709
26.192	70.0798
26.276	68.5631
26.36	67.7904
26.444	68.8008
26.528	71.0404
26.612	70.7328
26.696	65.543
26.78	57.2116
26.864	52.2439
26.948	57.1413
27.028	69.4775