Folder: Masteroppgave/Bakgrunnsmateriale/MATLAB/FTIR/ftir_data/subAa/Mapping_121 (part 21)

File: BZ1503107-1_t44.asc
PE IR       SPECTRUM    SPECTRUM    ASCII       PEDS        1.60
  -1
BZ295D~1.ASC
17/04/07
16:47:28.00
17/04/07
16:47:54.00
tln
$BZ1503107-1_t0044$<tbV0>[-13.0,-5.2,8.0,0.0,27,1,0]
27.028
64

2002,4.07
MIRTGS : RIGHTBACK : INTERNAL 2
MIR : ON : INTERNAL 2
OPTKBR

0.200000
8
8.000000
FILLER
RATIO
SPECTRUM
UNLOCKED 256

DOUBLE
64
COMBINED
1
0
0

0.002000
RATIO

1
0
TRUE
51149
0
LEFT NOT FITTED RIGHT NOT FITTED 0
NONE
NONE
15600
12
4.427000
51148
TRUE
1 0 8 72 0 0 0 0

15798

#HDR
-1
-1
#GR
µM
%T
2.38419e-05
0.0
2.000000
0.002000
12515
8
70.8399
40.2895
#DATA
2.000000	 65.1152
2.084000	 64.8606
2.168000	 64.6113
2.252000	 66.05
2.336000	 64.9033
2.420000	 64.8745
2.504000	 64.9037
2.588000	 64.8176
2.672000	 64.8264
2.756000	 65.1189
2.840000	 65.1047
2.924000	 64.8053
3.008000	 65.0229
3.092000	 64.8544
3.176000	 64.8672
3.260000	 64.9126
3.344000	 64.7941
3.428000	 64.7426
3.512000	 64.8734
3.596000	 64.8843
3.680000	 65.0079
3.764000	 64.9223
3.848000	 64.7819
3.932000	 64.7686
4.016000	 64.8356
4.100000	 64.8047
4.184000	 64.9435
4.268000	 64.9047
4.352000	 64.7566
4.436000	 64.7675
4.520000	 64.6789
4.604000	 64.7647
4.688000	 64.6969
4.772000	 64.6997
4.856000	 64.5604
4.940000	 64.7398
5.024000	 64.6359
5.108000	 64.7333
5.192000	 64.6561
5.276000	 64.5063
5.359999	 64.6596
5.444000	 64.5863
5.528000	 64.5238
5.612000	 64.4425
5.696000	 64.2785
5.780000	 64.0389
5.864000	 64.2949
5.948000	 64.3447
6.032000	 64.3586
6.116000	 64.3417
6.200000	 64.2771
6.284000	 64.3441
6.368000	 64.3319
6.452000	 64.1411
6.536000	 64.3279
6.620000	 64.3759
6.704000	 64.4142
6.788000	 64.265
6.872000	 64.2573
6.956000	 64.3385
7.040000	 64.2323
7.124000	 64.092
7.208000	 64.1876
7.292000	 64.1445
7.376000	 64.1125
7.460000	 64.1263
7.544000	 64.1931
7.628000	 64.1145
7.712000	 64.0621
7.796000	 64.0511
7.880000	 63.9828
7.964000	 64.0958
8.048000	 63.9757
8.132000	 63.8993
8.216000	 64.0392
8.300000	 63.9321
8.384000	 63.8454
8.468000	 63.9051
8.552000	 63.8319
8.635999	 63.9127
8.719999	 63.8465
8.804000	 63.6953
8.888000	 63.7242
8.972000	 63.9779
9.056000	 64.0711
9.140000	 63.8773
9.224000	 63.8277
9.308000	 63.8412
9.391999	 64.0067
9.475999	 63.9233
9.560000	 63.8629
9.644000	 63.9131
9.728000	 63.9886
9.812000	 63.943
9.896000	 64.1064
9.980000	 63.8275
10.064	63.9314
10.148	63.9496
10.232	64.0308
10.316	64.0532
10.4	64.0795
10.484	64.1266
10.568	64.0027
10.652	63.8893
10.736	64.0799
10.82	64.0721
10.904	64.0133
10.988	63.9482
11.072	63.928
11.156	64.0555
11.24	64.0417
11.324	63.9496
11.408	64.0092
11.492	63.8712
11.576	63.9784
11.66	63.8943
11.744	64.0044
11.828	64.1302
11.912	64.2631
11.996	64.0593
12.08	63.8736
12.164	63.8911
12.248	63.9021
12.332	64.0792
12.416	64.0663
12.5	63.9764
12.584	63.9907
12.668	63.8745
12.752	63.7624
12.836	63.7255
12.92	63.8615
13.004	63.9177
13.088	63.8508
13.172	63.8077
13.256	63.8319
13.34	63.7969
13.424	63.7603
13.508	63.6419
13.592	63.6142
13.676	63.677
13.76	63.6572
13.844	63.8648
13.928	64.2015
14.012	63.9838
14.096	63.6523
14.18	63.4523
14.264	63.3978
14.348	63.7149
14.432	63.9742
14.516	63.8416
14.6	63.7017
14.684	63.7771
14.768	63.5911
14.852	63.2874
14.936	63.4847
15.02	63.6784
15.104	63.3873
15.188	63.2909
15.272	63.7064
15.356	63.9457
15.44	63.6759
15.524	63.3453
15.608	63.1645
15.692	63.0558
15.776	63.0772
15.86	63.2358
15.944	63.6142
16.028	64.2573
16.112	64.69
16.196	64.5104
16.28	64.1078
16.364	63.9629
16.448	63.9758
16.532	63.9493
16.616	63.9521
16.7	64.0084
16.784	63.9849
16.868	63.8192
16.952	63.5954
17.036	63.4583
17.12	63.5222
17.204	63.7533
17.288	63.969
17.372	64.0876
17.456	64.1842
17.54	64.2489
17.624	64.1728
17.708	64.0142
17.792	63.9796
17.876	64.136
17.96	64.3708
18.044	64.5717
18.128	64.6319
18.212	64.4842
18.296	64.2108
18.38	63.9703
18.464	63.825
18.548	63.7168
18.632	63.5671
18.716	63.3861
18.8	63.2803
18.884	63.3505
18.968	63.5882
19.052	63.8599
19.136	63.9973
19.22	63.9234
19.304	63.7221
19.388	63.5666
19.472	63.5734
19.556	63.7246
19.64	63.9177
19.724	64.0598
19.808	64.1121
19.892	64.0781
19.976	63.9696
20.06	63.8046
20.144	63.632
20.228	63.5294
20.312	63.5565
20.396	63.7105
20.48	63.9538
20.564	64.2591
20.648	64.6017
20.732	64.9176
20.816	65.0804
20.9	64.9717
20.984	64.5789
21.068	64.034
21.152	63.5395
21.236	63.2398
21.32	63.1507
21.404	63.1685
21.488	63.1535
21.572	63.0204
21.656	62.7835
21.74	62.5447
21.824	62.4333
21.908	62.5275
21.992	62.8174
22.076	63.2282
22.16	63.6559
22.244	64.009
22.328	64.2193
22.412	64.2273
22.496	63.9922
22.58	63.5143
22.664	62.8695
22.748	62.2275
22.832	61.7791
22.916	61.6764
23	61.9395
23.084	62.4462
23.168	62.9785
23.252	63.3464
23.336	63.4462
23.42	63.312
23.504	63.0685
23.588	62.8605
23.672	62.7794
23.756	62.8381
23.84	63.0154
23.924	63.288
24.008	63.6622
24.092	64.1744
24.176	64.8447
24.26	65.6691
24.344	66.569
24.428	67.3856
24.512	67.9193
24.596	68.0011
24.68	67.5511
24.764	66.6306
24.848	65.4481
24.932	64.3113
25.016	63.4953
25.1	63.148
25.184	63.1964
25.268	63.3897
25.352	63.4575
25.436	63.1814
25.52	62.5098
25.604	61.5515
25.688	60.5132
25.772	59.4939
25.856	58.3542
25.94	56.8471
26.024	54.7221
26.108	51.8833
26.192	48.5224
26.276	45.1092
26.36	42.2607
26.444	40.5725
26.528	40.4119
26.612	41.7697
26.696	44.2946
26.78	47.3634
26.864	50.397
26.948	53.1282
27.028	55.588

File: BZ1503107-1_t44_cm-1.asc
PE IR       SPECTRUM    SPECTRUM    ASCII       PEDS        1.60
  -1
BZ6C24~1.ASC
17/04/07
16:47:28.00
17/04/07
16:47:28.00
tln
$BZ1503107-1_t0044$<tbV0>[-13.0,-5.2,8.0,0.0,27,1,0]
370
64

2002,4.07
MIRTGS : RIGHTBACK : INTERNAL 2
MIR : ON : INTERNAL 2
OPTKBR

0.200000
8
8.000000
FILLER
RATIO
SPECTRUM
UNLOCKED 256

DOUBLE
64
COMBINED
1
0
0

1.000000
RATIO

1
0
TRUE
51149
0
LEFT NOT FITTED RIGHT NOT FITTED 0
NONE
NONE
15600
12
4.427000
51148
TRUE
1 0 8 72 0 0 0 0

15798

#HDR
-1
-1
#GR
CM-1
%T
2.38419e-05
0.0
5000
-1.000000
4631
8
71.0333
40.3922
#DATA
5000	65.1152
4984	64.484
4968	63.9699
4952	64.0205
4936	64.4538
4920	64.5592
4904	64.6137
4888	64.7959
4872	64.9601
4856	64.8065
4840	64.9601
4824	64.7959
4808	64.8618
4792	64.7074
4776	64.6962
4760	64.8436
4744	65.0898
4728	64.9266
4712	65.2708
4696	64.4692
4680	64.6525
4664	64.4489
4648	65.1357
4632	64.6948
4616	64.6923
4600	64.1917
4584	64.5233
4568	64.2736
4552	64.3498
4536	64.2006
4520	64.7086
4504	64.3026
4488	64.0945
4472	64.1639
4456	64.4732
4440	66.203
4424	69.2825
4408	67.259
4392	63.8064
4376	64.2493
4360	64.1907
4344	64.2594
4328	64.4068
4312	64.358
4296	64.7815
4280	64.8477
4264	64.8278
4248	64.7148
4232	64.7909
4216	64.8512
4200	64.9428
4184	65.0993
4168	64.9505
4152	64.9675
4136	64.8176
4120	65.2062
4104	64.7964
4088	64.8461
4072	65.0711
4056	64.9151
4040	64.8815
4024	64.8219
4008	64.8609
3992	64.9075
3976	64.9078
3960	64.8756
3944	64.941
3928	64.7411
3912	64.919
3896	64.8414
3880	64.7785
3864	64.8177
3848	64.9996
3832	65.1523
3816	65.0831
3800	65.207
3784	65.0514
3768	65.1463
3752	64.694
3736	64.8604
3720	64.801
3704	65.0964
3688	64.8484
3672	65.0218
3656	65.0083
3640	64.9095
3624	65.1689
3608	65.1202
3592	65.0744
3576	64.783
3560	64.9488
3544	64.7771
3528	64.9722
3512	64.9151
3496	65.0444
3480	64.7182
3464	64.9476
3448	64.9667
3432	64.801
3416	64.7824
3400	65.124
3384	65.0668
3368	65.0879
3352	64.9683
3336	65.2368
3320	64.931
3304	64.8868
3288	64.8174
3272	65.0755
3256	64.9945
3240	65.021
3224	65.0141
3208	64.9953
3192	64.8298
3176	65.064
3160	64.9861
3144	64.9013
3128	65.0684
3112	65.0787
3096	65.042
3080	64.9001
3064	64.9643
3048	64.9069
3032	64.8606
3016	64.9033
3000	64.9488
2984	64.8336
2968	64.539
2952	64.8713
2936	64.7373
2920	64.7565
2904	64.7775
2888	64.7044
2872	64.9178
2856	64.9538
2840	64.8468
2824	64.8979
2808	64.9379
2792	64.9994
2776	65.0035
2760	64.9313
2744	65.0392
2728	64.8919
2712	64.9132
2696	64.9569
2680	65.0051
2664	64.8665
2648	64.9258
2632	64.8692
2616	64.7832
2600	64.7759
2584	64.8077
2568	64.8898
2552	64.7707
2536	64.8784
2520	64.7316
2504	64.9063
2488	64.8502
2472	64.8403
2456	64.7892
2440	64.801
2424	64.7531
2408	64.701
2392	64.9195
2376	64.7023
2360	64.7438
2344	64.9058
2328	64.89
2312	64.7915
2296	64.7215
2280	64.7936
2264	64.7305
2248	64.7878
2232	64.7457
2216	64.6948
2200	64.7864
2184	64.8302
2168	64.7411
2152	64.7186
2136	64.7066
2120	64.6211
2104	64.5342
2088	64.7126
2072	64.5746
2056	64.6013
2040	64.6453
2024	64.7404
2008	64.7102
1992	64.6384
1976	64.636
1960	64.739
1944	64.6156
1928	64.6299
1912	64.6174
1896	64.518
1880	64.536
1864	64.6303
1848	64.6642
1832	64.5174
1816	64.5385
1800	64.6068
1784	64.4536
1768	64.5016
1752	64.334
1736	64.0183
1720	64.185
1704	64.3138
1688	64.4252
1672	64.4093
1656	64.3649
1640	64.3089
1624	64.1931
1608	64.3657
1592	64.3428
1576	64.2249
1560	64.4215
1544	64.0465
1528	64.3643
1512	64.3983
1496	64.4353
1480	64.2933
1464	64.1965
1448	64.1155
1432	64.2951
1416	64.2385
1400	64.1356
1384	64.1824
1368	64.1733
1352	64.1281
1336	64.2278
1320	64.1787
1304	64.1251
1288	64.1241
1272	64.0009
1256	64.0909
1240	63.9577
1224	63.973
1208	63.9314
1192	63.8384
1176	63.9153
1160	63.9104
1144	63.8588
1128	63.6743
1112	63.9893
1096	63.9429
1080	63.8674
1064	64.0009
1048	63.8859
1032	64.0161
1016	64.0256
1000	63.8106
984	 63.9705
968	 64.0642
952	 64.1132
936	 63.9457
920	 64.035
904	 63.9148
888	 63.9969
872	 63.8739
856	 63.9157
840	 64.2633
824	 63.8863
808	 64.1166
792	 63.9381
776	 63.8029
760	 63.8048
744	 63.7409
728	 63.6632
712	 63.8305
696	 63.8053
680	 63.771
664	 63.5742
648	 63.7118
632	 63.1486
616	 64.3165
600	 63.9874
584	 63.529
568	 64.2027
552	 64.6359
536	 63.5135
520	 63.9015
504	 64.1083
488	 63.9934
472	 63.3888
456	 62.586
440	 62.3751
424	 62.8661
408	 67.9108
392	 62.6054
376	 41.4015
370	 55.588

File: BZ1503107-1_t45.asc
PE IR       SPECTRUM    SPECTRUM    ASCII       PEDS        1.60
  -1
BZ2D5D~1.ASC
17/04/07
16:59:02.00
17/04/07
16:59:29.00
tln
$BZ1503107-1_t0045$<tbV0>[13.0,-2.6,8.0,0.0,27,1,0]
27.028
64

2002,4.07
MIRTGS : RIGHTBACK : INTERNAL 2
MIR : ON : INTERNAL 2
OPTKBR

0.200000
8
8.000000
FILLER
RATIO
SPECTRUM
UNLOCKED 256

DOUBLE
64
COMBINED
1
0
0

0.002000
RATIO

1
0
TRUE
51149
0
LEFT NOT FITTED RIGHT NOT FITTED 0
NONE
NONE
15600
12
4.427000
51148
TRUE
1 0 8 72 0 0 0 0

15798

#HDR
-1
-1
#GR
µM
%T
2.38419e-05
0.0
2.000000
0.002000
12515
8
75.8533
52.8803
#DATA
2.000000	 65.2387
2.084000	 65.0532
2.168000	 64.7741
2.252000	 62.675
2.336000	 64.5513
2.420000	 65.0041
2.504000	 65.1775
2.588000	 64.9133
2.672000	 65.1768
2.756000	 65.1581
2.840000	 65.1779
2.924000	 65.1764
3.008000	 65.0527
3.092000	 65.136
3.176000	 64.9864
3.260000	 64.9664
3.344000	 64.9015
3.428000	 64.8127
3.512000	 64.9489
3.596000	 65.0143
3.680000	 65.0722
3.764000	 64.8616
3.848000	 64.98
3.932000	 64.9111
4.016000	 64.8958
4.100000	 64.8996
4.184000	 64.8301
4.268000	 64.7983
4.352000	 64.7191
4.436000	 64.8155
4.520000	 64.7301
4.604000	 64.6889
4.688000	 64.7641
4.772000	 64.7312
4.856000	 64.642
4.940000	 64.7063
5.024000	 64.7909
5.108000	 64.5741
5.192000	 64.621
5.276000	 64.4649
5.359999	 64.5859
5.444000	 64.6264
5.528000	 64.5749
5.612000	 64.5795
5.696000	 64.4123
5.780000	 64.3254
5.864000	 64.3284
5.948000	 64.2521
6.032000	 64.392
6.116000	 64.265
6.200000	 64.3349
6.284000	 64.3162
6.368000	 64.3286
6.452000	 64.4215
6.536000	 64.3164
6.620000	 64.1813
6.704000	 64.2903
6.788000	 64.3113
6.872000	 64.2938
6.956000	 64.2355
7.040000	 64.207
7.124000	 64.2123
7.208000	 64.2086
7.292000	 64.2253
7.376000	 64.1461
7.460000	 64.1004
7.544000	 64.0965
7.628000	 64.0768
7.712000	 64.1052
7.796000	 63.9572
7.880000	 64.1328
7.964000	 64.029
8.048000	 64.0353
8.132000	 64.031
8.216000	 63.8911
8.300000	 64.0101
8.384000	 63.9737
8.468000	 64.1149
8.552000	 64.0227
8.635999	 63.8453
8.719999	 63.7189
8.804000	 63.8983
8.888000	 63.955
8.972000	 63.8637
9.056000	 63.9651
9.140000	 63.8531
9.224000	 63.9153
9.308000	 64.2315
9.391999	 63.8505
9.475999	 63.984
9.560000	 63.88
9.644000	 63.9021
9.728000	 64.0211
9.812000	 63.8948
9.896000	 63.8076
9.980000	 63.855
10.064	63.8844
10.148	63.962
10.232	63.8542
10.316	63.9057
10.4	63.7059
10.484	63.7766
10.568	63.8128
10.652	63.6551
10.736	63.8131
10.82	63.8377
10.904	63.7967
10.988	63.9379
11.072	63.8779
11.156	63.8445
11.24	63.88
11.324	64.0359
11.408	63.9187
11.492	63.8121
11.576	63.9067
11.66	64.0613
11.744	64.0607
11.828	63.9618
11.912	63.836
11.996	63.9301
12.08	64.1131
12.164	63.7969
12.248	63.7922
12.332	63.8718
12.416	63.7311
12.5	63.7649
12.584	63.892
12.668	64.0646
12.752	63.9516
12.836	63.7987
12.92	63.6483
13.004	63.6872
13.088	63.7663
13.172	63.7827
13.256	63.7625
13.34	63.5284
13.424	63.4624
13.508	63.5945
13.592	63.5643
13.676	63.5471
13.76	63.776
13.844	63.7883
13.928	63.677
14.012	63.8238
14.096	63.8821
14.18	63.4355
14.264	63.1797
14.348	63.4256
14.432	63.6474
14.516	63.6859
14.6	63.529
14.684	63.5286
14.768	63.7804
14.852	63.9367
14.936	64.0096
15.02	63.9574
15.104	63.9066
15.188	64.1599
15.272	64.4132
15.356	64.302
15.44	63.9466
15.524	63.578
15.608	63.3404
15.692	63.2371
15.776	63.2283
15.86	63.339
15.944	63.5178
16.028	63.8135
16.112	64.2722
16.196	64.4396
16.28	63.9492
16.364	63.3564
16.448	63.3832
16.532	63.9299
16.616	64.322
16.7	64.1053
16.784	63.4324
16.868	62.8327
16.952	62.7519
17.036	63.1582
17.12	63.6012
17.204	63.7637
17.288	63.7248
17.372	63.61
17.456	63.4083
17.54	63.228
17.624	63.264
17.708	63.4707
17.792	63.6343
17.876	63.6816
17.96	63.7172
18.044	63.8002
18.128	63.8647
18.212	63.8461
18.296	63.7394
18.38	63.5557
18.464	63.3328
18.548	63.1506
18.632	63.0562
18.716	63.0335
18.8	63.0949
18.884	63.3178
18.968	63.7099
19.052	64.1118
19.136	64.3133
19.22	64.2575
19.304	64.0764
19.388	63.9082
19.472	63.7587
19.556	63.5712
19.64	63.364
19.724	63.2154
19.808	63.1545
19.892	63.1263
19.976	63.0666
20.06	62.9629
20.144	62.8441
20.228	62.7334
20.312	62.6345
20.396	62.5442
20.48	62.4712
20.564	62.4294
20.648	62.428
20.732	62.4762
20.816	62.5892
20.9	62.7754
20.984	63.0131
21.068	63.2561
21.152	63.4619
21.236	63.6174
21.32	63.7185
21.404	63.7401
21.488	63.6281
21.572	63.3482
21.656	62.9321
21.74	62.4842
21.824	62.1287
21.908	61.9354
21.992	61.8987
22.076	61.9702
22.16	62.1011
22.244	62.2704
22.328	62.4701
22.412	62.7022
22.496	62.958
22.58	63.2222
22.664	63.4823
22.748	63.7286
22.832	63.9579
22.916	64.1796
23	64.4091
23.084	64.6599
23.168	64.9212
23.252	65.1528
23.336	65.3028
23.42	65.3374
23.504	65.2529
23.588	65.0588
23.672	64.7463
23.756	64.2728
23.84	63.6042
23.924	62.7678
24.008	61.8842
24.092	61.1573
24.176	60.7974
24.26	60.9417
24.344	61.5828
24.428	62.5577
24.512	63.606
24.596	64.5047
24.68	65.1198
24.764	65.4203
24.848	65.4854
24.932	65.4182
25.016	65.2644
25.1	64.9977
25.184	64.5295
25.268	63.7911
25.352	62.8084
25.436	61.7479
25.52	60.8486
25.604	60.2882
25.688	60.1468
25.772	60.3091
25.856	60.4808
25.94	60.2509
26.024	59.282
26.108	57.5324
26.192	55.3808
26.276	53.5453
26.36	52.8858
26.444	54.0075
26.528	56.9935
26.612	61.3232
26.696	66.1037
26.78	70.3771
26.864	73.5013
26.948	75.2769
27.028	75.8533

File: BZ1503107-1_t45_cm-1.asc
PE IR       SPECTRUM    SPECTRUM    ASCII       PEDS        1.60
  -1
BZ6D24~1.ASC
17/04/07
16:59:02.00
17/04/07
16:59:02.00
tln
$BZ1503107-1_t0045$<tbV0>[13.0,-2.6,8.0,0.0,27,1,0]
370
64

2002,4.07
MIRTGS : RIGHTBACK : INTERNAL 2
MIR : ON : INTERNAL 2
OPTKBR

0.200000
8
8.000000
FILLER
RATIO
SPECTRUM
UNLOCKED 256

DOUBLE
64
COMBINED
1
0
0

1.000000
RATIO

1
0
TRUE
51149
0
LEFT NOT FITTED RIGHT NOT FITTED 0
NONE
NONE
15600
12
4.427000
51148
TRUE
1 0 8 72 0 0 0 0

15798

#HDR
-1
-1
#GR
CM-1
%T
2.38419e-05
0.0
5000
-1.000000
4631
8
75.8533
53.0181
#DATA
5000	65.2387
4984	64.8544
4968	65.6057
4952	64.7386
4936	64.5927
4920	64.7494
4904	65.0982
4888	65.1117
4872	65.0083
4856	64.726
4840	64.96
4824	64.6295
4808	64.981
4792	65.2099
4776	65.17
4760	64.928
4744	65.1555
4728	65.085
4712	64.8084
4696	65.0422
4680	65.4274
4664	65.0248
4648	65.1258
4632	65.0379
4616	64.9698
4600	64.5931
4584	64.7799
4568	64.5454
4552	65.0023
4536	64.4952
4520	64.4026
4504	64.5736
4488	64.4909
4472	63.8207
4456	63.9509
4440	62.6175
4424	71.5007
4408	67.0186
4392	65.7544
4376	64.6657
4360	64.751
4344	64.1384
4328	64.7388
4312	64.5632
4296	64.6097
4280	64.551
4264	64.752
4248	64.8863
4232	65.0611
4216	64.895
4200	65.012
4184	65.0929
4168	64.8617
4152	65.101
4136	65.3402
4120	65.1532
4104	64.9422
4088	65.0284
4072	65.3045
4056	65.1798
4040	65.0192
4024	64.9845
4008	64.8123
3992	65.2432
3976	65.2859
3960	65.1545
3944	64.9875
3928	65.0225
3912	65.0547
3896	65.1136
3880	65.0494
3864	64.9129
3848	65.0298
3832	65.1865
3816	65.0305
3800	65.2795
3784	65.4225
3768	65.0121
3752	64.9835
3736	65.0773
3720	65.21
3704	65.2271
3688	65.0444
3672	65.1616
3656	65.0573
3640	65.2964
3624	65.1936
3608	65.1973
3592	65.0688
3576	65.0718
3560	65.2141
3544	65.2131
3528	65.1456
3512	65.1779
3496	65.1841
3480	65.0696
3464	65.159
3448	65.1661
3432	65.0508
3416	65.0544
3400	64.9895
3384	65.1517
3368	65.2837
3352	64.9468
3336	65.1329
3320	64.9734
3304	65.2066
3288	64.9511
3272	64.9043
3256	65.074
3240	65.2401
3224	65.17
3208	65.2275
3192	65.0716
3176	65.1263
3160	65.0824
3144	64.9655
3128	65.2355
3112	64.9165
3096	65.1524
3080	65.0489
3064	64.9175
3048	65.0015
3032	65.1031
3016	65.1044
3000	64.9446
2984	64.9461
2968	64.8095
2952	64.8702
2936	64.7392
2920	64.725
2904	64.7769
2888	64.9202
2872	64.9394
2856	64.8741
2840	64.9147
2824	64.9101
2808	64.9548
2792	64.9793
2776	65.0581
2760	64.9085
2744	64.953
2728	65.0132
2712	65.1199
2696	65.0088
2680	64.9355
2664	64.9614
2648	64.8665
2632	65.0233
2616	64.9708
2600	64.9905
2584	64.8716
2568	64.8662
2552	64.835
2536	64.8901
2520	65.0088
2504	64.9835
2488	64.9029
2472	64.7764
2456	64.7642
2440	64.8938
2424	64.9429
2408	64.8345
2392	64.843
2376	64.7222
2360	64.7559
2344	64.7958
2328	64.8984
2312	64.8252
2296	64.7217
2280	64.9324
2264	64.8906
2248	64.8895
2232	64.8564
2216	64.7699
2200	64.8615
2184	64.7199
2168	64.7066
2152	64.6876
2136	64.7818
2120	64.7053
2104	64.7257
2088	64.671
2072	64.6602
2056	64.664
2040	64.7119
2024	64.7068
2008	64.7758
1992	64.7541
1976	64.658
1960	64.6088
1944	64.6281
1928	64.6438
1912	64.5588
1896	64.4668
1880	64.5202
1864	64.6151
1848	64.663
1832	64.5754
1816	64.5833
1800	64.5778
1784	64.5926
1768	64.4287
1752	64.3801
1736	64.3499
1720	64.4067
1704	64.3154
1688	64.3524
1672	64.2891
1656	64.358
1640	64.3256
1624	64.3136
1608	64.3279
1592	64.3178
1576	64.2438
1560	64.2923
1544	64.3273
1528	64.3417
1512	64.1801
1496	64.3121
1480	64.3045
1464	64.1704
1448	64.185
1432	64.3194
1416	64.216
1400	64.1637
1384	64.2286
1368	64.1796
1352	64.1028
1336	64.0046
1320	64.0666
1304	64.156
1288	64.0624
1272	64.0356
1256	64.0236
1240	64.0092
1224	63.9831
1208	63.9807
1192	63.9695
1176	64.091
1160	63.8379
1144	63.6753
1128	63.9438
1112	63.8876
1096	63.887
1080	64.1559
1064	63.8602
1048	63.9064
1032	63.9704
1016	63.7803
1000	63.8569
984	 63.9421
968	 63.8663
952	 63.807
936	 63.684
920	 63.7682
904	 63.8879
888	 63.9372
872	 63.8454
856	 64.0722
840	 63.843
824	 63.9189
808	 63.7925
792	 64.0025
776	 63.7004
760	 63.7747
744	 63.4842
728	 63.7129
712	 63.8992
696	 63.4933
680	 63.5855
664	 63.9063
648	 63.9835
632	 63.2769
616	 64.2884
600	 64.2672
584	 63.6135
568	 63.235
552	 63.8599
536	 63.043
520	 64.2377
504	 63.1438
488	 62.4632
472	 63.5317
456	 61.9124
440	 63.6696
424	 65.068
408	 63.5801
392	 60.9377
376	 60.4281
370	 75.8533

File: BZ1503107-1_t46.asc
PE IR       SPECTRUM    SPECTRUM    ASCII       PEDS        1.60
  -1
BZ216D~1.ASC
17/04/07
17:03:40.00
17/04/07
17:04:06.00
tln
$BZ1503107-1_t0046$<tbV0>[10.4,-2.6,8.0,0.0,27,1,0]
27.028
64

2002,4.07
MIRTGS : RIGHTBACK : INTERNAL 2
MIR : ON : INTERNAL 2
OPTKBR

0.200000
8
8.000000
FILLER
RATIO
SPECTRUM
UNLOCKED 256

DOUBLE
64
COMBINED
1
0
0

0.002000
RATIO

1
0
TRUE
51149
0
LEFT NOT FITTED RIGHT NOT FITTED 0
NONE
NONE
15600
12
4.427000
51148
TRUE
1 0 8 72 0 0 0 0

15798

#HDR
-1
-1
#GR
µM
%T
2.38419e-05
0.0
2.000000
0.002000
12515
8
66.4464
45.7127
#DATA
2.000000	 65.7518
2.084000	 64.6787
2.168000	 65.19
2.252000	 66.4194
2.336000	 65.2258
2.420000	 64.7152
2.504000	 65.0716
2.588000	 65.0937
2.672000	 64.9698
2.756000	 64.7774
2.840000	 65.0242
2.924000	 65.0498
3.008000	 65.047
3.092000	 64.849
3.176000	 64.978
3.260000	 64.831
3.344000	 64.9262
3.428000	 64.8921
3.512000	 64.9853
3.596000	 64.8905
3.680000	 64.8138
3.764000	 64.8504
3.848000	 64.9133
3.932000	 64.7627
4.016000	 64.7881
4.100000	 64.8175
4.184000	 64.7423
4.268000	 64.606
4.352000	 64.6833
4.436000	 64.6565
4.520000	 64.5748
4.604000	 64.564
4.688000	 64.5604
4.772000	 64.6954
4.856000	 64.538
4.940000	 64.639
5.024000	 64.5287
5.108000	 64.3155
5.192000	 64.427
5.276000	 64.3575
5.359999	 64.4476
5.444000	 64.4844
5.528000	 64.3276
5.612000	 64.3685
5.696000	 64.2784
5.780000	 64.0619
5.864000	 64.2392
5.948000	 64.272
6.032000	 64.1935
6.116000	 64.3005
6.200000	 64.2314
6.284000	 64.1594
6.368000	 64.1667
6.452000	 64.1746
6.536000	 64.1097
6.620000	 64.145
6.704000	 64.1876
6.788000	 64.1169
6.872000	 63.973
6.956000	 63.8241
7.040000	 64.1332
7.124000	 64.1112
7.208000	 64.0445
7.292000	 63.9473
7.376000	 64.0457
7.460000	 63.9642
7.544000	 64.0125
7.628000	 63.8897
7.712000	 63.9409
7.796000	 63.9852
7.880000	 64.0236
7.964000	 63.879
8.048000	 63.8409
8.132000	 63.88
8.216000	 63.8247
8.300000	 63.947
8.384000	 63.8489
8.468000	 63.8519
8.552000	 63.8622
8.635999	 63.6854
8.719999	 63.7424
8.804000	 63.9201
8.888000	 63.647
8.972000	 63.8122
9.056000	 63.6895
9.140000	 63.709
9.224000	 63.6559
9.308000	 63.76
9.391999	 63.9151
9.475999	 63.8031
9.560000	 63.7252
9.644000	 63.7115
9.728000	 63.6642
9.812000	 63.8069
9.896000	 63.6748
9.980000	 63.7016
10.064	63.738
10.148	63.6722
10.232	63.7724
10.316	63.776
10.4	63.5966
10.484	63.5493
10.568	63.4617
10.652	63.5608
10.736	63.6273
10.82	63.807
10.904	63.7328
10.988	63.6603
11.072	63.9034
11.156	63.7009
11.24	63.7757
11.324	63.7771
11.408	63.5594
11.492	63.4691
11.576	63.5905
11.66	63.9174
11.744	63.868
11.828	63.8399
11.912	63.8118
11.996	63.7965
12.08	63.8879
12.164	63.8167
12.248	63.7589
12.332	63.685
12.416	63.5833
12.5	63.658
12.584	63.6861
12.668	63.729
12.752	63.7186
12.836	63.579
12.92	63.5556
13.004	63.6605
13.088	63.8001
13.172	63.79
13.256	63.5785
13.34	63.4133
13.424	63.4978
13.508	63.5681
13.592	63.5109
13.676	63.4286
13.76	63.4295
13.844	63.4674
13.928	63.4974
14.012	63.6048
14.096	63.4708
14.18	63.1493
14.264	63.1253
14.348	63.2983
14.432	63.3876
14.516	63.4735
14.6	63.575
14.684	63.87
14.768	64.2297
14.852	64.1242
14.936	63.7314
15.02	63.453
15.104	63.3119
15.188	63.3826
15.272	63.6347
15.356	63.8939
15.44	64.0336
15.524	63.8838
15.608	63.4514
15.692	62.9664
15.776	62.6864
15.86	62.8959
15.944	63.6274
16.028	64.3981
16.112	64.6661
16.196	64.4422
16.28	64.1582
16.364	64.011
16.448	63.8075
16.532	63.4038
16.616	62.988
16.7	62.8758
16.784	63.1032
16.868	63.3246
16.952	63.2689
17.036	63.1593
17.12	63.3475
17.204	63.6935
17.288	63.7546
17.372	63.4339
17.456	63.0429
17.54	62.8751
17.624	63.0021
17.708	63.3272
17.792	63.6519
17.876	63.8276
17.96	63.8981
18.044	63.9875
18.128	64.1024
18.212	64.2029
18.296	64.318
18.38	64.4071
18.464	64.2645
18.548	63.7728
18.632	63.1554
18.716	62.807
18.8	62.9061
18.884	63.3037
18.968	63.7296
19.052	64.0056
19.136	64.1041
19.22	64.0953
19.304	64.0495
19.388	63.9829
19.472	63.8799
19.556	63.7492
19.64	63.6329
19.724	63.5571
19.808	63.4971
19.892	63.4082
19.976	63.2826
20.06	63.1542
20.144	63.0788
20.228	63.1058
20.312	63.2435
20.396	63.4414
20.48	63.6018
20.564	63.6291
20.648	63.4838
20.732	63.2063
20.816	62.9042
20.9	62.6997
20.984	62.6696
21.068	62.8096
21.152	63.0447
21.236	63.2805
21.32	63.4738
21.404	63.6535
21.488	63.8818
21.572	64.1789
21.656	64.4848
21.74	64.6852
21.824	64.6721
21.908	64.4184
21.992	64.0017
22.076	63.5631
22.16	63.244
22.244	63.0996
22.328	63.0863
22.412	63.1044
22.496	63.0511
22.58	62.8867
22.664	62.6268
22.748	62.3185
22.832	62.0177
22.916	61.7632
23	61.5957
23.084	61.5664
23.168	61.7344
23.252	62.1381
23.336	62.7741
23.42	63.5778
23.504	64.4301
23.588	65.1717
23.672	65.6476
23.756	65.7452
23.84	65.4153
23.924	64.6737
24.008	63.5906
24.092	62.2702
24.176	60.8192
24.26	59.3446
24.344	57.9832
24.428	56.8925
24.512	56.2487
24.596	56.1772
24.68	56.7069
24.764	57.7289
24.848	58.9967
24.932	60.1807
25.016	61.0036
25.1	61.348
25.184	61.2701
25.268	60.9469
25.352	60.5627
25.436	60.2141
25.52	59.8183
25.604	59.15
25.688	57.9827
25.772	56.2659
25.856	54.2048
25.94	52.2225
26.024	50.8349
26.108	50.4193
26.192	51.055
26.276	52.4649
26.36	54.0681
26.444	55.165
26.528	55.2392
26.612	54.1947
26.696	52.4032
26.78	50.5668
26.864	49.4984
26.948	49.7574
27.028	51.2612