Folder: Masteroppgave/Bakgrunnsmateriale/MATLAB/FTIR/ftir_data/subAa/Mapping_121 (part 13)

File: BZ1503107-1_t24.asc
PE IR       SPECTRUM    SPECTRUM    ASCII       PEDS        1.60
  -1
BZ2959~1.ASC
17/04/07
15:14:28.00
17/04/07
15:14:54.00
tln
$BZ1503107-1_t0024$<tbV0>[10.4,-7.8,8.0,0.0,27,1,0]
27.028
64

2002,4.07
MIRTGS : RIGHTBACK : INTERNAL 2
MIR : ON : INTERNAL 2
OPTKBR

0.200000
8
8.000000
FILLER
RATIO
SPECTRUM
UNLOCKED 256

DOUBLE
64
COMBINED
1
0
0

0.002000
RATIO

1
0
TRUE
51149
0
LEFT NOT FITTED RIGHT NOT FITTED 0
NONE
NONE
15600
12
4.427000
51148
TRUE
1 0 8 72 0 0 0 0

15798

#HDR
-1
-1
#GR
µM
%T
2.38419e-05
0.0
2.000000
0.002000
12515
8
89.7631
39.9932
#DATA
2.000000	 65.632
2.084000	 65.1138
2.168000	 64.6508
2.252000	 64.1654
2.336000	 65.1641
2.420000	 65.402
2.504000	 65.3577
2.588000	 65.0558
2.672000	 65.2261
2.756000	 65.1355
2.840000	 65.1309
2.924000	 65.203
3.008000	 65.2206
3.092000	 65.0838
3.176000	 64.9157
3.260000	 65.1306
3.344000	 65.0476
3.428000	 64.9919
3.512000	 64.9308
3.596000	 65.0597
3.680000	 65.0951
3.764000	 65.0784
3.848000	 65.0309
3.932000	 64.8447
4.016000	 64.903
4.100000	 65.0336
4.184000	 65.1165
4.268000	 64.9838
4.352000	 64.9367
4.436000	 64.8771
4.520000	 64.7798
4.604000	 64.8391
4.688000	 64.857
4.772000	 64.8633
4.856000	 64.7969
4.940000	 64.833
5.024000	 64.7122
5.108000	 64.6823
5.192000	 64.756
5.276000	 64.7339
5.359999	 64.6719
5.444000	 64.7024
5.528000	 64.6866
5.612000	 64.5771
5.696000	 64.5206
5.780000	 64.5076
5.864000	 64.633
5.948000	 64.5292
6.032000	 64.5669
6.116000	 64.3769
6.200000	 64.5441
6.284000	 64.4319
6.368000	 64.5236
6.452000	 64.4059
6.536000	 64.4797
6.620000	 64.6441
6.704000	 64.6261
6.788000	 64.4853
6.872000	 64.6532
6.956000	 64.5449
7.040000	 64.4114
7.124000	 64.3336
7.208000	 64.3381
7.292000	 64.3503
7.376000	 64.3216
7.460000	 64.3463
7.544000	 64.3504
7.628000	 64.3356
7.712000	 64.4309
7.796000	 64.2507
7.880000	 64.2721
7.964000	 64.2644
8.048000	 64.3569
8.132000	 64.3192
8.216000	 64.1482
8.300000	 64.1941
8.384000	 64.2364
8.468000	 64.2332
8.552000	 64.0746
8.635999	 64.2712
8.719999	 64.131
8.804000	 64.0573
8.888000	 64.0524
8.972000	 64.2185
9.056000	 64.1401
9.140000	 64.1741
9.224000	 64.1643
9.308000	 64.28
9.391999	 64.1869
9.475999	 64.2075
9.560000	 63.9797
9.644000	 64.0287
9.728000	 64.1048
9.812000	 64.2818
9.896000	 64.0002
9.980000	 63.9804
10.064	64.199
10.148	64.1527
10.232	64.2024
10.316	64.2915
10.4	64.2206
10.484	64.2143
10.568	64.2969
10.652	64.2043
10.736	64.1773
10.82	64.1655
10.904	64.1394
10.988	64.0315
11.072	64.1529
11.156	64.3294
11.24	64.2265
11.324	64.3127
11.408	64.2879
11.492	64.2775
11.576	64.1803
11.66	64.1123
11.744	64.1648
11.828	63.9923
11.912	64.1441
11.996	64.0901
12.08	64.1004
12.164	64.1294
12.248	63.9565
12.332	63.9543
12.416	63.9736
12.5	63.8848
12.584	63.9573
12.668	63.9686
12.752	64.076
12.836	64.2962
12.92	64.2655
13.004	64.0743
13.088	64.0307
13.172	63.9459
13.256	63.8782
13.34	63.9701
13.424	63.9803
13.508	63.9069
13.592	63.8257
13.676	63.8309
13.76	64.0019
13.844	64.2
13.928	64.176
14.012	63.97
14.096	63.9639
14.18	64.0934
14.264	63.9865
14.348	63.8693
14.432	64.2016
14.516	64.6039
14.6	64.493
14.684	64.2444
14.768	64.1833
14.852	63.9273
14.936	63.5154
15.02	63.3982
15.104	63.6043
15.188	64.0103
15.272	64.3251
15.356	64.2029
15.44	64.071
15.524	64.1515
15.608	63.8394
15.692	63.4971
15.776	64.1772
15.86	65.2931
15.944	65.435
16.028	64.6803
16.112	63.936
16.196	63.5407
16.28	63.6072
16.364	64.1837
16.448	64.8513
16.532	65.1477
16.616	64.9833
16.7	64.4717
16.784	63.9093
16.868	63.6691
16.952	63.7895
17.036	64.034
17.12	64.2593
17.204	64.4153
17.288	64.4885
17.372	64.5583
17.456	64.6115
17.54	64.4429
17.624	64.0181
17.708	63.6588
17.792	63.622
17.876	63.7986
17.96	63.9982
18.044	64.1981
18.128	64.3563
18.212	64.3067
18.296	63.9716
18.38	63.4859
18.464	63.0858
18.548	62.9436
18.632	63.0769
18.716	63.3699
18.8	63.6791
18.884	63.9182
18.968	64.0424
19.052	63.9984
19.136	63.782
19.22	63.5121
19.304	63.358
19.388	63.3831
19.472	63.5126
19.556	63.6229
19.64	63.6606
19.724	63.6698
19.808	63.7202
19.892	63.8196
19.976	63.9073
20.06	63.923
20.144	63.85
20.228	63.6991
20.312	63.48
20.396	63.2235
20.48	63.0174
20.564	62.9905
20.648	63.2224
20.732	63.6513
20.816	64.0911
20.9	64.3465
20.984	64.34
21.068	64.142
21.152	63.8899
21.236	63.6885
21.32	63.5754
21.404	63.5552
21.488	63.6447
21.572	63.8653
21.656	64.1869
21.74	64.5036
21.824	64.6686
21.908	64.5803
21.992	64.2559
22.076	63.8212
22.16	63.4443
22.244	63.2479
22.328	63.2494
22.412	63.3813
22.496	63.5321
22.58	63.616
22.664	63.6044
22.748	63.5436
22.832	63.5326
22.916	63.6793
23	64.0289
23.084	64.536
23.168	65.0677
23.252	65.465
23.336	65.5874
23.42	65.3822
23.504	64.8901
23.588	64.2203
23.672	63.5075
23.756	62.8899
23.84	62.435
23.924	62.1668
24.008	62.0486
24.092	61.985
24.176	61.9044
24.26	61.8182
24.344	61.8163
24.428	61.9968
24.512	62.414
24.596	62.9666
24.68	63.4315
24.764	63.5837
24.848	63.2764
24.932	62.5543
25.016	61.6804
25.1	60.9979
25.184	60.8899
25.268	61.6433
25.352	63.3815
25.436	66.1216
25.52	69.7587
25.604	74.0713
25.688	78.6999
25.772	83.1429
25.856	86.8156
25.94	89.1578
26.024	89.7234
26.108	88.3187
26.192	85.0721
26.276	80.3385
26.36	74.6547
26.444	68.556
26.528	62.4834
26.612	56.7625
26.696	51.6234
26.78	47.2384
26.864	43.7668
26.948	41.333
27.028	39.9932

File: BZ1503107-1_t24_cm-1.asc
PE IR       SPECTRUM    SPECTRUM    ASCII       PEDS        1.60
  -1
BZ6C23~1.ASC
17/04/07
15:14:28.00
17/04/07
15:14:28.00
tln
$BZ1503107-1_t0024$<tbV0>[10.4,-7.8,8.0,0.0,27,1,0]
370
64

2002,4.07
MIRTGS : RIGHTBACK : INTERNAL 2
MIR : ON : INTERNAL 2
OPTKBR

0.200000
8
8.000000
FILLER
RATIO
SPECTRUM
UNLOCKED 256

DOUBLE
64
COMBINED
1
0
0

1.000000
RATIO

1
0
TRUE
51149
0
LEFT NOT FITTED RIGHT NOT FITTED 0
NONE
NONE
15600
12
4.427000
51148
TRUE
1 0 8 72 0 0 0 0

15798

#HDR
-1
-1
#GR
CM-1
%T
2.38419e-05
0.0
5000
-1.000000
4631
8
89.6182
39.9932
#DATA
5000	65.632
4984	64.7202
4968	64.4967
4952	64.1873
4936	64.7197
4920	64.7722
4904	64.5373
4888	64.6296
4872	64.9785
4856	65.1715
4840	65.0018
4824	64.8777
4808	64.7674
4792	65.2417
4776	64.9699
4760	65.6251
4744	65.2913
4728	65.3003
4712	65.9468
4696	65.0586
4680	65.0504
4664	65.2469
4648	65.1244
4632	64.7096
4616	64.6914
4600	64.4496
4584	64.3068
4568	64.4346
4552	64.4674
4536	64.4047
4520	64.3654
4504	64.0827
4488	64.7385
4472	64.0701
4456	63.3247
4440	64.1527
4424	84.5314
4408	67.0716
4392	65.8586
4376	64.1574
4360	64.5764
4344	64.2233
4328	64.5036
4312	64.3625
4296	64.7735
4280	65.1304
4264	64.8188
4248	64.694
4232	65.0089
4216	65.2881
4200	64.8494
4184	65.2422
4168	64.9371
4152	65.0505
4136	65.4345
4120	65.2775
4104	65.138
4088	65.2394
4072	65.2396
4056	65.2397
4040	65.3026
4024	65.129
4008	65.3372
3992	65.4098
3976	65.1831
3960	65.0121
3944	65.0156
3928	64.9743
3912	65.2036
3896	65.2391
3880	65.0167
3864	65.0558
3848	65.0426
3832	65.166
3816	65.2436
3800	65.2344
3784	64.9907
3768	65.245
3752	65.2464
3736	65.1872
3720	65.1905
3704	65.0592
3688	65.0531
3672	65.3499
3656	65.3378
3640	65.0823
3624	65.0949
3608	65.198
3592	65.1582
3576	65.0429
3560	65.0679
3544	65.1309
3528	65.1646
3512	65.1924
3496	65.2378
3480	65.1683
3464	65.0354
3448	65.1584
3432	65.0603
3416	65.1363
3400	65.1384
3384	65.0907
3368	65.1144
3352	65.3349
3336	65.2315
3320	65.2254
3304	65.1803
3288	65.0741
3272	65.245
3256	65.1385
3240	65.185
3224	65.0759
3208	64.9197
3192	65.2073
3176	65.0462
3160	65.1988
3144	64.927
3128	64.9963
3112	65.0739
3096	65.0522
3080	65.1982
3064	65.1707
3048	65.0496
3032	64.9862
3016	65.0081
3000	65.1416
2984	65.2315
2968	64.9462
2952	64.9315
2936	64.9941
2920	65.0325
2904	65.0858
2888	65.0285
2872	64.9715
2856	65.1376
2840	64.9018
2824	65.0536
2808	64.9932
2792	65.2138
2776	65.17
2760	65.0749
2744	65.1569
2728	65.0267
2712	64.9861
2696	65.0935
2680	64.99
2664	64.974
2648	65.073
2632	65.0908
2616	64.8623
2600	65.0261
2584	64.9266
2568	64.8873
2552	64.9337
2536	64.9698
2520	65.0357
2504	64.9856
2488	64.9234
2472	64.9905
2456	64.8312
2440	65.0307
2424	65.0099
2408	64.7347
2392	65.1085
2376	64.9637
2360	64.9572
2344	64.9766
2328	64.8127
2312	64.9237
2296	64.9053
2280	64.9763
2264	64.8934
2248	64.8655
2232	64.8892
2216	64.7965
2200	65.0474
2184	64.8759
2168	64.852
2152	64.8706
2136	64.8332
2120	64.8884
2104	64.8262
2088	64.8471
2072	64.8652
2056	64.8032
2040	64.8136
2024	64.8362
2008	64.8796
1992	64.7298
1976	64.8314
1960	64.7125
1944	64.7482
1928	64.7515
1912	64.74
1896	64.7233
1880	64.7247
1864	64.657
1848	64.7077
1832	64.6271
1816	64.6703
1800	64.7143
1784	64.588
1768	64.7053
1752	64.4626
1736	64.4475
1720	64.4732
1704	64.6439
1688	64.5685
1672	64.6373
1656	64.5371
1640	64.4702
1624	64.53
1608	64.5492
1592	64.45
1576	64.5134
1560	64.5308
1544	64.4325
1528	64.5046
1512	64.6548
1496	64.6311
1480	64.4907
1464	64.3932
1448	64.4566
1432	64.5049
1416	64.3146
1400	64.2892
1384	64.3287
1368	64.3267
1352	64.2912
1336	64.3785
1320	64.2634
1304	64.3764
1288	64.3411
1272	64.2915
1256	64.2626
1240	64.3597
1224	64.2408
1208	64.1548
1192	64.2309
1176	64.2607
1160	64.2644
1144	64.1796
1128	63.9953
1112	64.2078
1096	64.1316
1080	64.1317
1064	64.1957
1048	64.074
1032	64.1262
1016	64.2577
1000	64.0528
984	 64.1447
968	 64.2942
952	 64.2422
936	 64.2224
920	 64.1857
904	 64.1227
888	 64.2219
872	 64.2594
856	 64.1688
840	 64.1362
824	 64.1524
808	 63.9842
792	 63.9744
776	 64.321
760	 63.9671
744	 63.9677
728	 63.941
712	 63.9303
696	 63.9038
680	 64.2201
664	 63.4666
648	 64.0686
632	 64.8531
616	 63.5028
600	 64.7028
584	 64.267
568	 64.1197
552	 64.3423
536	 63.1536
520	 63.4831
504	 63.7563
488	 63.0001
472	 63.7975
456	 64.5154
440	 63.5584
424	 64.2463
408	 62.4009
392	 69.2958
376	 57.828
370	 39.9932

File: BZ1503107-1_t25.asc
PE IR       SPECTRUM    SPECTRUM    ASCII       PEDS        1.60
  -1
BZ2D59~1.ASC
17/04/07
15:19:05.00
17/04/07
15:19:31.00
tln
$BZ1503107-1_t0025$<tbV0>[7.8,-7.8,8.0,0.0,27,1,0]
27.028
64

2002,4.07
MIRTGS : RIGHTBACK : INTERNAL 2
MIR : ON : INTERNAL 2
OPTKBR

0.200000
8
8.000000
FILLER
RATIO
SPECTRUM
UNLOCKED 256

DOUBLE
64
COMBINED
1
0
0

0.002000
RATIO

1
0
TRUE
51149
0
LEFT NOT FITTED RIGHT NOT FITTED 0
NONE
NONE
15600
12
4.427000
51148
TRUE
1 0 8 72 0 0 0 0

15798

#HDR
-1
-1
#GR
µM
%T
2.38419e-05
0.0
2.000000
0.002000
12515
8
81.5283
40.149
#DATA
2.000000	 65.7369
2.084000	 65.0245
2.168000	 64.7345
2.252000	 64.4682
2.336000	 64.544
2.420000	 65.0211
2.504000	 65.4639
2.588000	 64.9605
2.672000	 65.1152
2.756000	 65.4316
2.840000	 65.0172
2.924000	 65.2027
3.008000	 65.1301
3.092000	 65.0871
3.176000	 65.1724
3.260000	 65.206
3.344000	 65.1867
3.428000	 64.9525
3.512000	 64.914
3.596000	 65.0925
3.680000	 65.0483
3.764000	 65.1519
3.848000	 65.1144
3.932000	 65.0107
4.016000	 64.9569
4.100000	 64.9055
4.184000	 65.0736
4.268000	 64.9662
4.352000	 64.9029
4.436000	 64.8389
4.520000	 64.8764
4.604000	 64.8838
4.688000	 64.8419
4.772000	 64.7978
4.856000	 64.8251
4.940000	 64.884
5.024000	 64.7837
5.108000	 64.8039
5.192000	 64.7186
5.276000	 64.7216
5.359999	 64.7873
5.444000	 64.7842
5.528000	 64.5959
5.612000	 64.6019
5.696000	 64.4727
5.780000	 64.3839
5.864000	 64.5616
5.948000	 64.5432
6.032000	 64.4849
6.116000	 64.4932
6.200000	 64.4497
6.284000	 64.4662
6.368000	 64.5724
6.452000	 64.5139
6.536000	 64.4189
6.620000	 64.6413
6.704000	 64.5612
6.788000	 64.4736
6.872000	 64.5262
6.956000	 64.5289
7.040000	 64.3723
7.124000	 64.479
7.208000	 64.353
7.292000	 64.3309
7.376000	 64.3183
7.460000	 64.398
7.544000	 64.3607
7.628000	 64.4185
7.712000	 64.2884
7.796000	 64.4148
7.880000	 64.142
7.964000	 64.2525
8.048000	 64.2957
8.132000	 64.266
8.216000	 64.171
8.300000	 64.0941
8.384000	 64.1768
8.468000	 64.1708
8.552000	 64.0704
8.635999	 64.1525
8.719999	 64.083
8.804000	 64.1302
8.888000	 63.9743
8.972000	 64.1296
9.056000	 63.9434
9.140000	 64.0971
9.224000	 64.1236
9.308000	 64.2144
9.391999	 64.1329
9.475999	 64.0712
9.560000	 64.0911
9.644000	 64.1198
9.728000	 64.2319
9.812000	 64.19
9.896000	 64.2193
9.980000	 64.2498
10.064	64.2578
10.148	64.1404
10.232	64.3589
10.316	64.1502
10.4	63.9861
10.484	64.1513
10.568	64.2123
10.652	64.1596
10.736	64.1335
10.82	64.164
10.904	64.2749
10.988	64.1636
11.072	64.2348
11.156	64.2716
11.24	63.9845
11.324	63.9808
11.408	64.3846
11.492	64.2756
11.576	64.0364
11.66	64.1974
11.744	64.329
11.828	64.0613
11.912	64.102
11.996	64.0259
12.08	64.0788
12.164	64.2779
12.248	64.2892
12.332	64.1542
12.416	64.0979
12.5	64.2346
12.584	64.4354
12.668	64.4631
12.752	64.2727
12.836	63.9995
12.92	63.8098
13.004	63.8392
13.088	64.036
13.172	64.2189
13.256	64.2301
13.34	64.1774
13.424	64.34
13.508	64.3446
13.592	64.1582
13.676	64.1111
13.76	64.2761
13.844	64.2823
13.928	64.0854
14.012	63.7067
14.096	63.5208
14.18	63.594
14.264	63.5889
14.348	63.7261
14.432	63.8281
14.516	63.6189
14.6	63.4818
14.684	63.5235
14.768	63.4908
14.852	63.2164
14.936	63.2288
15.02	63.7631
15.104	64.1289
15.188	64.4364
15.272	64.7107
15.356	64.3113
15.44	63.6848
15.524	63.7042
15.608	64.2181
15.692	64.5738
15.776	64.6312
15.86	64.6562
15.944	64.6931
16.028	64.4783
16.112	63.8923
16.196	63.2534
16.28	63.0063
16.364	63.1747
16.448	63.4546
16.532	63.6666
16.616	63.8678
16.7	64.1262
16.784	64.3772
16.868	64.5159
16.952	64.4778
17.036	64.2695
17.12	64.0406
17.204	64.0126
17.288	64.24
17.372	64.5665
17.456	64.7751
17.54	64.7054
17.624	64.3939
17.708	64.104
17.792	64.0808
17.876	64.3015
17.96	64.5525
18.044	64.6773
18.128	64.6373
18.212	64.4749
18.296	64.2598
18.38	64.0139
18.464	63.7761
18.548	63.6609
18.632	63.7192
18.716	63.8541
18.8	63.9594
18.884	64.0397
18.968	64.1399
19.052	64.2313
19.136	64.2401
19.22	64.1493
19.304	64.0138
19.388	63.9025
19.472	63.8652
19.556	63.9239
19.64	64.0619
19.724	64.2264
19.808	64.3567
19.892	64.4234
19.976	64.4236
20.06	64.3613
20.144	64.2605
20.228	64.1777
20.312	64.1547
20.396	64.1697
20.48	64.174
20.564	64.1657
20.648	64.1837
20.732	64.233
20.816	64.2381
20.9	64.1097
20.984	63.8627
21.068	63.6346
21.152	63.5681
21.236	63.671
21.32	63.8107
21.404	63.8306
21.488	63.6799
21.572	63.4392
21.656	63.2486
21.74	63.2131
21.824	63.3431
21.908	63.566
21.992	63.7877
22.076	63.9405
22.16	64.0035
22.244	63.9826
22.328	63.8817
22.412	63.6882
22.496	63.3932
22.58	63.0185
22.664	62.6298
22.748	62.3281
22.832	62.19
22.916	62.2266
23	62.3942
23.084	62.6183
23.168	62.8481
23.252	63.0934
23.336	63.3936
23.42	63.768
23.504	64.1932
23.588	64.5731
23.672	64.7951
23.756	64.8287
23.84	64.7309
23.924	64.649
24.008	64.7337
24.092	65.0338
24.176	65.4344
24.26	65.7043
24.344	65.5553
24.428	64.7884
24.512	63.3929
24.596	61.5252
24.68	59.4713
24.764	57.5835
24.848	56.1382
24.932	55.4075
25.016	55.6319
25.1	56.9733
25.184	59.4999
25.268	63.0836
25.352	67.3582
25.436	71.7662
25.52	75.6625
25.604	78.4557
25.688	79.7219
25.772	79.3207
25.856	77.3736
25.94	74.2008
26.024	70.2165
26.108	65.8125
26.192	61.3386
26.276	57.0527
26.36	53.1407
26.444	49.6829
26.528	46.707
26.612	44.233
26.696	42.3057
26.78	40.9482
26.864	40.2454
26.948	40.2023
27.028	40.5212

File: BZ1503107-1_t25_cm-1.asc
PE IR       SPECTRUM    SPECTRUM    ASCII       PEDS        1.60
  -1
BZ6D23~1.ASC
17/04/07
15:19:05.00
17/04/07
15:19:05.00
tln
$BZ1503107-1_t0025$<tbV0>[7.8,-7.8,8.0,0.0,27,1,0]
370
64

2002,4.07
MIRTGS : RIGHTBACK : INTERNAL 2
MIR : ON : INTERNAL 2
OPTKBR

0.200000
8
8.000000
FILLER
RATIO
SPECTRUM
UNLOCKED 256

DOUBLE
64
COMBINED
1
0
0

1.000000
RATIO

1
0
TRUE
51149
0
LEFT NOT FITTED RIGHT NOT FITTED 0
NONE
NONE
15600
12
4.427000
51148
TRUE
1 0 8 72 0 0 0 0

15798

#HDR
-1
-1
#GR
CM-1
%T
2.38419e-05
0.0
5000
-1.000000
4631
8
81.6296
40.1827
#DATA
5000	65.7369
4984	64.5451
4968	64.1744
4952	64.1968
4936	64.9293
4920	64.9261
4904	64.7598
4888	64.2514
4872	64.9888
4856	65.3186
4840	65.1352
4824	64.7961
4808	64.9528
4792	65.0986
4776	65.1505
4760	65.3726
4744	65.4491
4728	65.2234
4712	65.7151
4696	64.8866
4680	65.0481
4664	64.9651
4648	65.1044
4632	65.0381
4616	64.8796
4600	64.7115
4584	64.3253
4568	64.544
4552	64.3415
4536	63.8617
4520	63.9594
4504	64.3154
4488	64.0855
4472	64.0857
4456	64.0878
4440	64.6466
4424	79.4419
4408	66.8703
4392	64.0737
4376	64.4221
4360	64.0233
4344	63.9796
4328	63.9872
4312	64.0004
4296	64.4157
4280	64.5473
4264	64.7054
4248	64.9297
4232	64.7784
4216	64.9288
4200	65.0092
4184	65.1472
4168	65.0985
4152	65.2739
4136	65.0108
4120	65.3286
4104	65.4396
4088	65.3819
4072	65.2373
4056	65.2701
4040	65.3061
4024	65.1331
4008	65.2402
3992	65.4411
3976	65.1144
3960	65.1237
3944	64.9098
3928	65.1902
3912	65.2162
3896	64.901
3880	65.1163
3864	64.9604
3848	65.0725
3832	65.1269
3816	65.2752
3800	65.2969
3784	65.1333
3768	65.0737
3752	65.0981
3736	65.16
3720	65.6468
3704	65.4543
3688	65.1135
3672	65.3619
3656	65.3066
3640	65.2499
3624	65.4577
3608	65.3469
3592	65.3545
3576	65.1669
3560	65.1861
3544	65.0359
3528	65.0015
3512	65.1891
3496	65.2383
3480	64.9151
3464	64.9623
3448	64.9462
3432	64.8832
3416	65.1074
3400	65.2631
3384	65.3008
3368	65.0794
3352	65.0208
3336	65.1721
3320	65.068
3304	65.1242
3288	65.0638
3272	65.2071
3256	65.007
3240	65.081
3224	65.2161
3208	65.0912
3192	64.8944
3176	65.2378
3160	65.2192
3144	65.0509
3128	65.0053
3112	64.9809
3096	65.2181
3080	65.2987
3064	65.2115
3048	65.0843
3032	65.1419
3016	65.1434
3000	65.1762
2984	65.1582
2968	64.9146
2952	65.1288
2936	64.9715
2920	65.0526
2904	65.0701
2888	65.0171
2872	65.0293
2856	65.0347
2840	65.0465
2824	65.1246
2808	65.1238
2792	65.2499
2776	65.1381
2760	65.1065
2744	65.2204
2728	65.1014
2712	64.9389
2696	65.2509
2680	65.072
2664	65.0555
2648	65.0148
2632	65.0408
2616	64.9259
2600	65.0805
2584	64.974
2568	64.9509
2552	65.0437
2536	65.0086
2520	64.8764
2504	64.9935
2488	64.9908
2472	65.0525
2456	64.8743
2440	64.9109
2424	65.0358
2408	64.9017
2392	65.0488
2376	64.9405
2360	64.9213
2344	64.9554
2328	64.8745
2312	65.0005
2296	64.8964
2280	64.9104
2264	64.9047
2248	64.8549
2232	65.0431
2216	64.9183
2200	64.9019
2184	64.9293
2168	64.8992
2152	64.8444
2136	64.8294
2120	64.8206
2104	64.8241
2088	64.9572
2072	64.5689
2056	64.824
2040	64.8247
2024	64.8826
2008	64.8915
1992	64.789
1976	64.7853
1960	64.8259
1944	64.8734
1928	64.7381
1912	64.7669
1896	64.719
1880	64.6852
1864	64.7659
1848	64.8235
1832	64.7071
1816	64.6369
1800	64.6808
1784	64.6232
1768	64.6265
1752	64.4335
1736	64.4258
1720	64.2906
1704	64.579
1688	64.5638
1672	64.6076
1656	64.4598
1640	64.4902
1624	64.4616
1608	64.4957
1592	64.4703
1576	64.611
1560	64.6117
1544	64.439
1528	64.4085
1512	64.626
1496	64.6017
1480	64.4675
1464	64.549
1448	64.5202
1432	64.458
1416	64.317
1400	64.4723
1384	64.3759
1368	64.3695
1352	64.2695
1336	64.5366
1320	64.2786
1304	64.3547
1288	64.3826
1272	64.1114
1256	64.2452
1240	64.3054
1224	64.1576
1208	64.1382
1192	64.1836
1176	64.1823
1160	64.16
1144	64.0505
1128	64.0045
1112	64.0714
1096	64.0697
1080	64.0964
1064	64.1139
1048	64.138
1032	64.2286
1016	64.2273
1000	64.2908
984	 64.1806
968	 64.097
952	 64.1702
936	 64.172
920	 64.2395
904	 64.2106
888	 63.9129
872	 64.3391
856	 64.2952
840	 64.0959
824	 64.2312
808	 64.0938
792	 64.4899
776	 63.8585
760	 64.1963
744	 64.3657
728	 64.2316
712	 63.5848
696	 63.7744
680	 63.5342
664	 63.98
648	 63.7236
632	 64.6359
616	 63.0798
600	 64.0186
584	 64.0346
568	 64.4716
552	 64.6522
536	 63.7574
520	 64.133
504	 64.3912
488	 64.173
472	 63.5953
456	 63.6274
440	 62.389
424	 64.5616
408	 63.436
392	 75.2584
376	 44.6694
370	 40.5212

File: BZ1503107-1_t26.asc
PE IR       SPECTRUM    SPECTRUM    ASCII       PEDS        1.60
  -1
BZ2169~1.ASC
17/04/07
15:23:42.00
17/04/07
15:24:08.00
tln
$BZ1503107-1_t0026$<tbV0>[5.2,-7.8,8.0,0.0,27,1,0]
27.028
64

2002,4.07
MIRTGS : RIGHTBACK : INTERNAL 2
MIR : ON : INTERNAL 2
OPTKBR

0.200000
8
8.000000
FILLER
RATIO
SPECTRUM
UNLOCKED 256

DOUBLE
64
COMBINED
1
0
0

0.002000
RATIO

1
0
TRUE
51149
0
LEFT NOT FITTED RIGHT NOT FITTED 0
NONE
NONE
15600
12
4.427000
51148
TRUE
1 0 8 72 0 0 0 0

15798

#HDR
-1
-1
#GR
µM
%T
2.38419e-05
0.0
2.000000
0.002000
12515
8
83.4431
41.9637
#DATA
2.000000	 66.1422
2.084000	 64.707
2.168000	 64.8197
2.252000	 65.1716
2.336000	 65.112
2.420000	 64.6308
2.504000	 65.5435
2.588000	 64.9628
2.672000	 65.2855
2.756000	 65.2207
2.840000	 65.1337
2.924000	 65.3354
3.008000	 65.2522
3.092000	 65.1164
3.176000	 65.119
3.260000	 65.1418
3.344000	 65.0994
3.428000	 64.983
3.512000	 64.839
3.596000	 64.9954
3.680000	 65.0547
3.764000	 65.079
3.848000	 65.0154
3.932000	 65.0819
4.016000	 64.9494
4.100000	 64.9029
4.184000	 65.0916
4.268000	 64.912
4.352000	 64.8408
4.436000	 64.8782
4.520000	 64.919
4.604000	 64.9643
4.688000	 64.9075
4.772000	 64.8211
4.856000	 64.6872
4.940000	 64.8463
5.024000	 64.7353
5.108000	 64.7432
5.192000	 64.7866
5.276000	 64.7392
5.359999	 64.8211
5.444000	 64.7761
5.528000	 64.6902
5.612000	 64.7037
5.696000	 64.5168
5.780000	 64.2508
5.864000	 64.5679
5.948000	 64.7246
6.032000	 64.5426
6.116000	 64.5879
6.200000	 64.4337
6.284000	 64.4083
6.368000	 64.6065
6.452000	 64.462
6.536000	 64.4304
6.620000	 64.5134
6.704000	 64.4494
6.788000	 64.5173
6.872000	 64.3417
6.956000	 64.3074
7.040000	 64.3347
7.124000	 64.4009
7.208000	 64.2599
7.292000	 64.3171
7.376000	 64.3329
7.460000	 64.3557
7.544000	 64.4074
7.628000	 64.3193
7.712000	 64.2008
7.796000	 64.2799
7.880000	 64.1611
7.964000	 64.1642
8.048000	 64.1502
8.132000	 64.1381
8.216000	 64.1073
8.300000	 64.139
8.384000	 64.155
8.468000	 64.1501
8.552000	 64.0693
8.635999	 64.0536
8.719999	 64.0467
8.804000	 64.014
8.888000	 63.8844
8.972000	 64.1802
9.056000	 64.2799
9.140000	 63.9265
9.224000	 64.0315
9.308000	 64.0807
9.391999	 64.1343
9.475999	 64.2202
9.560000	 64.2365
9.644000	 64.0768
9.728000	 64.0534
9.812000	 64.234
9.896000	 64.0134
9.980000	 64.1323
10.064	64.4495
10.148	64.2123
10.232	64.3366
10.316	64.2783
10.4	64.1239
10.484	64.2141
10.568	64.362
10.652	64.2754
10.736	64.4192
10.82	64.2237
10.904	64.0526
10.988	64.0401
11.072	64.0501
11.156	64.0751
11.24	64.1416
11.324	64.2805
11.408	64.2668
11.492	64.2538
11.576	64.2821
11.66	64.3545
11.744	64.3771
11.828	64.1231
11.912	64.1333
11.996	64.2071
12.08	64.2335
12.164	64.2413
12.248	63.9261
12.332	63.7643
12.416	63.8837
12.5	63.9763
12.584	64.0715
12.668	64.3277
12.752	64.2896
12.836	64.1249
12.92	64.0827
13.004	63.8947
13.088	63.8293
13.172	63.6562
13.256	63.3013
13.34	63.4645
13.424	63.779
13.508	63.8474
13.592	64.1242
13.676	64.3025
13.76	64.1804
13.844	64.2511
13.928	64.3843
14.012	63.9924
14.096	63.4462
14.18	63.1459
14.264	63.3528
14.348	63.5791
14.432	63.4061
14.516	63.2573
14.6	63.1864
14.684	63.4452
14.768	63.9713
14.852	64.0993
14.936	63.8348
15.02	63.6472
15.104	63.5998
15.188	63.4487
15.272	63.1426
15.356	62.8693
15.44	62.7564
15.524	62.8283
15.608	63.1394
15.692	63.6592
15.776	64.2117
15.86	64.5131
15.944	64.311
16.028	63.7871
16.112	63.3309
16.196	63.0246
16.28	62.8972
16.364	62.994
16.448	63.0528
16.532	63.0074
16.616	63.2756
16.7	63.9134
16.784	64.3659
16.868	64.3246
16.952	64.0408
17.036	63.8334
17.12	63.8347
17.204	64.0507
17.288	64.3757
17.372	64.6457
17.456	64.7631
17.54	64.7136
17.624	64.5084
17.708	64.2325
17.792	64.0401
17.876	63.9973
17.96	64.0247
18.044	64.0358
18.128	63.9834
18.212	63.8259
18.296	63.5588
18.38	63.2763
18.464	63.1152
18.548	63.1115
18.632	63.1563
18.716	63.1406
18.8	63.0973
18.884	63.1526
18.968	63.3424
19.052	63.5331
19.136	63.572
19.22	63.4662
19.304	63.3755
19.388	63.445
19.472	63.6865
19.556	64.0003
19.64	64.2764
19.724	64.4556
19.808	64.5256
19.892	64.4976
19.976	64.3919
20.06	64.242
20.144	64.1056
20.228	64.0513
20.312	64.1095
20.396	64.2408
20.48	64.3739
20.564	64.4668
20.648	64.5299
20.732	64.5859
20.816	64.6161
20.9	64.5696
20.984	64.4223
21.068	64.2102
21.152	64.0021
21.236	63.8504
21.32	63.7952
21.404	63.8652
21.488	64.0449
21.572	64.2521
21.656	64.3612
21.74	64.2891
21.824	64.0713
21.908	63.8556
21.992	63.8016
22.076	63.9761
22.16	64.3076
22.244	64.632
22.328	64.7873
22.412	64.6654
22.496	64.2478
22.58	63.6165
22.664	62.938
22.748	62.4341
22.832	62.2908
22.916	62.5977
23	63.2754
23.084	64.1313
23.168	64.9084
23.252	65.4097
23.336	65.5483
23.42	65.3407
23.504	64.8912
23.588	64.34
23.672	63.8173
23.756	63.4366
23.84	63.2694
23.924	63.3152
24.008	63.5024
24.092	63.7181
24.176	63.8674
24.26	63.9313
24.344	64.0032
24.428	64.2526
24.512	64.8572
24.596	65.9014
24.68	67.3662
24.764	69.1534
24.848	71.1288
24.932	73.1873
25.016	75.2727
25.1	77.342
25.184	79.2602
25.268	80.8048
25.352	81.7587
25.436	81.9002
25.52	81.1468
25.604	79.6418
25.688	77.8008
25.772	76.177
25.856	75.2366
25.94	75.2703
26.024	76.3091
26.108	78.0995
26.192	80.2001
26.276	82.0849
26.36	83.2459
26.444	83.3477
26.528	82.3116
26.612	80.2668
26.696	77.5503
26.78	74.6152
26.864	72.0275
26.948	70.4736
27.028	70.744