Folder: Masteroppgave/Bakgrunnsmateriale/MATLAB/FTIR/ftir_data/subAa/Mapping_121 (part 2)

File: BZ1503107-1_e124.asc
PE IR       SPECTRUM    SPECTRUM    ASCII       PEDS        1.60
  -1
BZD0A2~1.ASC
17/04/07
16:53:18.00
17/04/07
16:53:45.00
tln
$BZ1503107-1_e0124$<ebV0>[-23.3,12.1,10.0,0.0,27,1,0]
27.028
64

2002,4.07
MIRTGS : RIGHTBACK : INTERNAL 2
MIR : ON : INTERNAL 2
OPTKBR

0.200000
8
8.000000
FILLER
SINGLE
SPECTRUM
UNLOCKED 256

DOUBLE

COMBINED
1
0
0

0.002000
BACKG

1
0
TRUE
51149
0
LEFT NOT FITTED RIGHT NOT FITTED 0
NONE
NONE
15600
12
4.427000
51148
TRUE
1 0 8 72 0 0 0 0

15798

#HDR
-1
-1
#GR
µM
EGY
2.38419e-05
0.0
2.000000
0.002000
12515
8
2.464169
0.008201
#DATA
2.000000	 0.774908
2.084000	 0.879393
2.168000	 0.941161
2.252000	 1.008644
2.336000	 1.147246
2.420000	 1.246616
2.504000	 1.404249
2.588000	 1.458797
2.672000	 1.565415
2.756000	 1.587257
2.840000	 1.639301
2.924000	 1.597293
3.008000	 1.697201
3.092000	 1.797808
3.176000	 1.824666
3.260000	 1.946000
3.344000	 2.043053
3.428000	 1.848256
3.512000	 2.022325
3.596000	 2.230254
3.680000	 2.267075
3.764000	 2.232549
3.848000	 2.236060
3.932000	 2.307547
4.016000	 2.336033
4.100000	 2.297022
4.184000	 2.258844
4.268000	 2.273715
4.352000	 2.349420
4.436000	 2.388139
4.520000	 2.377823
4.604000	 2.348514
4.688000	 2.342977
4.772000	 2.345063
4.856000	 2.392620
4.940000	 2.451959
5.024000	 2.462150
5.108000	 2.441327
5.192000	 2.410103
5.276000	 2.380877
5.359999	 2.387888
5.444000	 2.412548
5.528000	 2.437463
5.612000	 2.435520
5.696000	 2.405719
5.780000	 2.331158
5.864000	 2.288527
5.948000	 2.245901
6.032000	 2.197504
6.116000	 2.146756
6.200000	 2.011771
6.284000	 2.022271
6.368000	 1.986959
6.452000	 1.962742
6.536000	 2.104262
6.620000	 2.088081
6.704000	 1.693099
6.788000	 1.977842
6.872000	 1.795999
6.956000	 1.867813
7.040000	 1.858892
7.124000	 1.729399
7.208000	 1.791153
7.292000	 1.817695
7.376000	 1.819824
7.460000	 1.820179
7.544000	 1.852505
7.628000	 1.859304
7.712000	 1.856667
7.796000	 1.853404
7.880000	 1.776494
7.964000	 1.763785
8.048000	 1.836874
8.132000	 1.829998
8.216000	 1.789316
8.300000	 1.745845
8.384000	 1.745193
8.468000	 1.715520
8.552000	 1.674426
8.635999	 1.626797
8.719999	 1.607379
8.804000	 1.576486
8.888000	 1.528491
8.972000	 1.473189
9.056000	 1.434013
9.140000	 1.425882
9.224000	 1.431316
9.308000	 1.430002
9.391999	 1.438973
9.475999	 1.360366
9.560000	 1.327211
9.644000	 1.386710
9.728000	 1.370680
9.812000	 1.362694
9.896000	 1.383051
9.980000	 1.399011
10.064	1.398177
10.148	1.385494
10.232	1.368680
10.316	1.348415
10.4	1.323767
10.484	1.296906
10.568	1.275249
10.652	1.261862
10.736	1.244727
10.82	1.227207
10.904	1.208146
10.988	1.180222
11.072	1.160285
11.156	1.152222
11.24	1.132199
11.324	1.079083
11.408	1.032791
11.492	1.049862
11.576	1.085263
11.66	1.093472
11.744	1.088118
11.828	1.078427
11.912	1.057938
11.996	0.992547
12.08	0.880792
12.164	0.852267
12.248	0.915516
12.332	0.948156
12.416	0.949151
12.5	0.947284
12.584	0.954594
12.668	0.968802
12.752	0.979069
12.836	0.980273
12.92	0.977535
13.004	0.972622
13.088	0.968330
13.172	0.964955
13.256	0.960388
13.34	0.954059
13.424	0.945191
13.508	0.935391
13.592	0.925880
13.676	0.914484
13.76	0.900353
13.844	0.886782
13.928	0.875128
14.012	0.862984
14.096	0.850090
14.18	0.837151
14.264	0.821031
14.348	0.798932
14.432	0.768841
14.516	0.739724
14.6	0.730089
14.684	0.733391
14.768	0.732191
14.852	0.727094
14.936	0.720774
15.02	0.712969
15.104	0.703738
15.188	0.692753
15.272	0.682421
15.356	0.672937
15.44	0.663359
15.524	0.655641
15.608	0.648317
15.692	0.638969
15.776	0.630542
15.86	0.623867
15.944	0.614704
16.028	0.601609
16.112	0.587924
16.196	0.577159
16.28	0.568109
16.364	0.556030
16.448	0.540909
16.532	0.529134
16.616	0.524896
16.7	0.524710
16.784	0.523702
16.868	0.520909
16.952	0.517485
17.036	0.513662
17.12	0.509514
17.204	0.505807
17.288	0.503196
17.372	0.501189
17.456	0.498909
17.54	0.495878
17.624	0.492105
17.708	0.487921
17.792	0.483457
17.876	0.478671
17.96	0.473617
18.044	0.468757
18.128	0.464354
18.212	0.460398
18.296	0.456678
18.38	0.453160
18.464	0.449915
18.548	0.446559
18.632	0.442361
18.716	0.436846
18.8	0.430240
18.884	0.423076
18.968	0.415777
19.052	0.408984
19.136	0.403178
19.22	0.398469
19.304	0.394440
19.388	0.390386
19.472	0.385933
19.556	0.380977
19.64	0.375514
19.724	0.369634
19.808	0.363393
19.892	0.356904
19.976	0.350182
20.06	0.343200
20.144	0.336085
20.228	0.328944
20.312	0.321781
20.396	0.314516
20.48	0.307028
20.564	0.299418
20.648	0.291960
20.732	0.284875
20.816	0.278323
20.9	0.272146
20.984	0.266184
21.068	0.260236
21.152	0.254225
21.236	0.248250
21.32	0.242322
21.404	0.236469
21.488	0.230533
21.572	0.224402
21.656	0.218071
21.74	0.211480
21.824	0.204819
21.908	0.198104
21.992	0.191508
22.076	0.185255
22.16	0.179447
22.244	0.174233
22.328	0.169521
22.412	0.165219
22.496	0.161176
22.58	0.157234
22.664	0.153248
22.748	0.149153
22.832	0.144957
22.916	0.140555
23	0.135881
23.084	0.130883
23.168	0.125531
23.252	0.119899
23.336	0.114151
23.42	0.108499
23.504	0.103020
23.588	0.097826
23.672	0.092916
23.756	0.088416
23.84	0.084282
23.924	0.080513
24.008	0.077006
24.092	0.073655
24.176	0.070313
24.26	0.066966
24.344	0.063619
24.428	0.060349
24.512	0.057211
24.596	0.054219
24.68	0.051257
24.764	0.048328
24.848	0.045339
24.932	0.042329
25.016	0.039384
25.1	0.036593
25.184	0.034065
25.268	0.031819
25.352	0.029865
25.436	0.028147
25.52	0.026549
25.604	0.025083
25.688	0.023620
25.772	0.022192
25.856	0.020817
25.94	0.019515
26.024	0.018276
26.108	0.017093
26.192	0.015918
26.276	0.014743
26.36	0.013583
26.444	0.012466
26.528	0.011411
26.612	0.010523
26.696	0.009796
26.78	0.009253
26.864	0.008851
26.948	0.008511
27.028	0.008201

File: BZ1503107-1_e124_cm-1.asc
PE IR       SPECTRUM    SPECTRUM    ASCII       PEDS        1.60
  -1
BZ097A~1.ASC
17/04/07
16:53:18.00
17/04/07
16:53:18.00
tln
$BZ1503107-1_e0124$<ebV0>[-23.3,12.1,10.0,0.0,27,1,0]
370
64

2002,4.07
MIRTGS : RIGHTBACK : INTERNAL 2
MIR : ON : INTERNAL 2
OPTKBR

0.200000
8
8.000000
FILLER
SINGLE
SPECTRUM
UNLOCKED 256

DOUBLE

COMBINED
1
0
0

1.000000
BACKG

1
0
TRUE
51149
0
LEFT NOT FITTED RIGHT NOT FITTED 0
NONE
NONE
15600
12
4.427000
51148
TRUE
1 0 8 72 0 0 0 0

15798

#HDR
-1
-1
#GR
CM-1
EGY
2.38419e-05
0.0
5000
-1.000000
4631
8
2.464175
0.008201
#DATA
5000	0.774908
4984	0.780272
4968	0.790739
4952	0.798106
4936	0.802230
4920	0.809979
4904	0.815773
4888	0.823616
4872	0.833034
4856	0.841546
4840	0.851655
4824	0.862979
4808	0.873374
4792	0.883698
4776	0.891280
4760	0.902295
4744	0.908756
4728	0.911569
4712	0.915455
4696	0.918316
4680	0.915408
4664	0.923061
4648	0.924205
4632	0.928592
4616	0.939035
4600	0.945162
4584	0.956273
4568	0.969481
4552	0.975203
4536	0.987601
4520	0.992584
4504	1.001501
4488	1.009321
4472	1.013612
4456	1.003623
4440	1.008486
4424	1.136279
4408	1.038241
4392	1.036453
4376	1.047182
4360	1.050901
4344	1.073646
4328	1.088905
4312	1.110720
4296	1.128697
4280	1.148128
4264	1.162195
4248	1.178359
4232	1.189112
4216	1.197147
4200	1.204109
4184	1.212191
4168	1.223707
4152	1.233148
4136	1.243162
4120	1.253771
4104	1.272273
4088	1.292657
4072	1.315069
4056	1.337838
4040	1.358270
4024	1.378226
4008	1.395964
3992	1.404666
3976	1.414942
3960	1.424098
3944	1.430058
3928	1.434588
3912	1.438117
3896	1.441478
3880	1.451683
3864	1.458787
3848	1.472640
3832	1.490831
3816	1.507949
3800	1.528096
3784	1.549720
3768	1.563835
3752	1.560807
3736	1.573491
3720	1.585769
3704	1.586198
3688	1.582646
3672	1.578092
3656	1.584267
3640	1.590442
3624	1.591420
3608	1.597833
3592	1.608371
3576	1.619768
3560	1.628279
3544	1.635193
3528	1.637125
3512	1.638531
3496	1.632261
3480	1.624369
3464	1.617741
3448	1.604509
3432	1.598334
3416	1.599645
3400	1.610445
3384	1.619911
3368	1.630449
3352	1.661825
3336	1.681995
3320	1.706075
3304	1.727962
3288	1.751112
3272	1.770281
3256	1.783132
3240	1.793932
3224	1.798439
3208	1.802349
3192	1.804876
3176	1.808476
3160	1.816987
3144	1.828813
3128	1.845240
3112	1.868867
3096	1.895022
3080	1.930475
3064	1.950120
3048	1.979303
3032	1.990842
3016	1.977968
3000	2.036476
2984	2.036762
2968	1.974821
2952	1.931810
2936	1.826047
2920	1.813364
2904	1.957654
2888	2.007770
2872	1.995778
2856	1.938366
2840	2.081418
2824	2.142190
2808	2.180194
2792	2.207970
2776	2.239108
2760	2.258896
2744	2.268290
2728	2.270436
2712	2.263307
2696	2.255272
2680	2.246928
2664	2.236175
2648	2.229738
2632	2.228307
2616	2.231788
2600	2.235960
2584	2.249884
2568	2.278447
2552	2.297544
2536	2.317190
2520	2.328467
2504	2.337479
2488	2.335548
2472	2.332210
2456	2.315640
2440	2.298069
2424	2.281212
2408	2.269005
2392	2.259564
2376	2.252578
2360	2.246832
2344	2.273130
2328	2.294182
2312	2.327942
2296	2.352523
2280	2.373480
2264	2.384209
2248	2.391719
2232	2.390313
2216	2.380013
2200	2.366781
2184	2.356886
2168	2.348303
2152	2.343058
2136	2.342414
2120	2.344012
2104	2.348136
2088	2.347993
2072	2.367758
2056	2.400827
2040	2.432203
2024	2.452230
2008	2.460789
1992	2.462911
1976	2.453875
1960	2.442526
1944	2.425146
1928	2.412271
1912	2.394413
1896	2.381134
1880	2.383708
1864	2.389907
1848	2.399754
1832	2.414751
1816	2.432632
1800	2.438735
1784	2.436423
1768	2.421045
1752	2.393341
1736	2.335095
1720	2.316808
1704	2.281856
1688	2.256679
1672	2.233791
1656	2.186632
1640	2.160573
1624	2.112770
1608	1.977610
1592	2.022027
1576	1.991772
1560	1.937150
1544	1.963949
1528	2.113342
1512	2.095484
1496	1.705932
1480	1.962208
1464	1.940155
1448	1.788163
1432	1.873445
1416	1.845812
1400	1.734638
1384	1.789379
1368	1.819348
1352	1.819539
1336	1.830935
1320	1.856350
1304	1.857733
1288	1.856923
1272	1.808094
1256	1.759719
1240	1.838016
1224	1.817607
1208	1.749944
1192	1.744055
1176	1.701045
1160	1.633715
1144	1.601886
1128	1.542901
1112	1.460409
1096	1.425790
1080	1.428627
1064	1.438021
1048	1.308393
1032	1.381158
1016	1.369237
1000	1.400637
984	 1.382637
968	 1.344537
952	 1.290678
936	 1.255822
920	 1.216888
904	 1.161718
888	 1.121783
872	 1.039266
856	 1.092696
840	 1.060771
824	 0.845837
808	 0.950360
792	 0.961422
776	 0.978922
760	 0.965571
744	 0.943207
728	 0.904512
712	 0.857925
696	 0.792551
680	 0.733780
664	 0.708794
648	 0.664210
632	 0.626850
616	 0.573158
600	 0.524687
584	 0.509357
568	 0.493001
552	 0.464963
536	 0.440859
520	 0.397920
504	 0.360846
488	 0.305962
472	 0.251770
456	 0.196385
440	 0.150179
424	 0.098013
408	 0.057291
392	 0.026726
376	 0.010681
370	 0.008201

File: BZ1503107-1_e125.asc
PE IR       SPECTRUM    SPECTRUM    ASCII       PEDS        1.60
  -1
BZD0A6~1.ASC
17/04/07
18:42:25.00
17/04/07
18:42:52.00
tln
$BZ1503107-1_e0125$<ebV0>[-23.3,12.1,10.0,0.0,27,1,0]
27.028
64

2002,4.07
MIRTGS : RIGHTBACK : INTERNAL 2
MIR : ON : INTERNAL 2
OPTKBR

0.200000
8
8.000000
FILLER
SINGLE
SPECTRUM
UNLOCKED 256

DOUBLE

COMBINED
1
0
0

0.002000
BACKG

1
0
TRUE
51149
0
LEFT NOT FITTED RIGHT NOT FITTED 0
NONE
NONE
15600
12
4.427000
51148
TRUE
1 0 8 72 0 0 0 0

15798

#HDR
-1
-1
#GR
µM
EGY
2.38419e-05
0.0
2.000000
0.002000
12515
8
2.468705
0.006961
#DATA
2.000000	 0.774884
2.084000	 0.880524
2.168000	 0.938315
2.252000	 1.009272
2.336000	 1.150717
2.420000	 1.246185
2.504000	 1.409651
2.588000	 1.459806
2.672000	 1.563355
2.756000	 1.587493
2.840000	 1.638518
2.924000	 1.599125
3.008000	 1.698819
3.092000	 1.794493
3.176000	 1.824071
3.260000	 1.944371
3.344000	 2.043910
3.428000	 1.849339
3.512000	 2.026942
3.596000	 2.229223
3.680000	 2.266610
3.764000	 2.232962
3.848000	 2.239630
3.932000	 2.308493
4.016000	 2.337913
4.100000	 2.299070
4.184000	 2.262289
4.268000	 2.274651
4.352000	 2.354909
4.436000	 2.388216
4.520000	 2.378165
4.604000	 2.349532
4.688000	 2.342456
4.772000	 2.347970
4.856000	 2.395629
4.940000	 2.451644
5.024000	 2.467381
5.108000	 2.437169
5.192000	 2.410630
5.276000	 2.381312
5.359999	 2.389460
5.444000	 2.415435
5.528000	 2.437709
5.612000	 2.437293
5.696000	 2.405485
5.780000	 2.331729
5.864000	 2.289666
5.948000	 2.246174
6.032000	 2.198743
6.116000	 2.147734
6.200000	 2.012276
6.284000	 2.024277
6.368000	 1.986380
6.452000	 1.964643
6.536000	 2.104527
6.620000	 2.087232
6.704000	 1.695954
6.788000	 1.979385
6.872000	 1.794942
6.956000	 1.867599
7.040000	 1.859256
7.124000	 1.732180
7.208000	 1.790709
7.292000	 1.818508
7.376000	 1.822129
7.460000	 1.819139
7.544000	 1.850157
7.628000	 1.859417
7.712000	 1.859729
7.796000	 1.855536
7.880000	 1.777805
7.964000	 1.763993
8.048000	 1.837894
8.132000	 1.829170
8.216000	 1.789400
8.300000	 1.747454
8.384000	 1.743001
8.468000	 1.716403
8.552000	 1.676583
8.635999	 1.624788
8.719999	 1.604867
8.804000	 1.575254
8.888000	 1.527991
8.972000	 1.471890
9.056000	 1.434546
9.140000	 1.426727
9.224000	 1.430095
9.308000	 1.430399
9.391999	 1.436709
9.475999	 1.359241
9.560000	 1.326038
9.644000	 1.387416
9.728000	 1.370727
9.812000	 1.363808
9.896000	 1.383423
9.980000	 1.398129
10.064	1.399974
10.148	1.386203
10.232	1.369063
10.316	1.349494
10.4	1.320486
10.484	1.293695
10.568	1.273372
10.652	1.258305
10.736	1.243376
10.82	1.225604
10.904	1.207297
10.988	1.178845
11.072	1.161138
11.156	1.152497
11.24	1.130597
11.324	1.077894
11.408	1.031791
11.492	1.045836
11.576	1.085271
11.66	1.095621
11.744	1.088985
11.828	1.078642
11.912	1.057576
11.996	0.993203
12.08	0.882221
12.164	0.850856
12.248	0.914440
12.332	0.948775
12.416	0.948768
12.5	0.947213
12.584	0.956028
12.668	0.969484
12.752	0.978917
12.836	0.978867
12.92	0.975701
13.004	0.973626
13.088	0.970245
13.172	0.965361
13.256	0.959143
13.34	0.952594
13.424	0.945556
13.508	0.936933
13.592	0.926397
13.676	0.914727
13.76	0.902198
13.844	0.889167
13.928	0.875521
14.012	0.861733
14.096	0.849945
14.18	0.838417
14.264	0.822227
14.348	0.800002
14.432	0.769123
14.516	0.738760
14.6	0.727629
14.684	0.729910
14.768	0.729238
14.852	0.724418
14.936	0.719272
15.02	0.713387
15.104	0.703780
15.188	0.692921
15.272	0.684771
15.356	0.676982
15.44	0.667559
15.524	0.658369
15.608	0.651106
15.692	0.643793
15.776	0.633678
15.86	0.622541
15.944	0.613888
16.028	0.606571
16.112	0.596729
16.196	0.583379
16.28	0.567340
16.364	0.549671
16.448	0.533620
16.532	0.523428
16.616	0.520850
16.7	0.522937
16.784	0.524711
16.868	0.523287
16.952	0.519313
17.036	0.514638
17.12	0.510149
17.204	0.505910
17.288	0.502137
17.372	0.499064
17.456	0.496408
17.54	0.493862
17.624	0.491025
17.708	0.487521
17.792	0.483358
17.876	0.478813
17.96	0.474157
18.044	0.469500
18.128	0.464887
18.212	0.460352
18.296	0.455963
18.38	0.451591
18.464	0.447293
18.548	0.443059
18.632	0.438736
18.716	0.434091
18.8	0.428988
18.884	0.423523
18.968	0.417684
19.052	0.411596
19.136	0.405545
19.22	0.399850
19.304	0.394691
19.388	0.389822
19.472	0.384949
19.556	0.380029
19.64	0.374952
19.724	0.369611
19.808	0.363903
19.892	0.357689
19.976	0.350814
20.06	0.343321
20.144	0.335311
20.228	0.327213
20.312	0.319455
20.396	0.312023
20.48	0.304824
20.564	0.297634
20.648	0.290436
20.732	0.283390
20.816	0.276666
20.9	0.270529
20.984	0.264960
21.068	0.259781
21.152	0.254778
21.236	0.249698
21.32	0.244296
21.404	0.238387
21.488	0.231991
21.572	0.225221
21.656	0.218318
21.74	0.211406
21.824	0.204624
21.908	0.198046
21.992	0.191634
22.076	0.185518
22.16	0.179760
22.244	0.174516
22.328	0.169834
22.412	0.165632
22.496	0.161667
22.58	0.157728
22.664	0.153513
22.748	0.148989
22.832	0.144188
22.916	0.139297
23	0.134424
23.084	0.129621
23.168	0.124711
23.252	0.119635
23.336	0.114352
23.42	0.108881
23.504	0.103426
23.588	0.098209
23.672	0.093337
23.756	0.088845
23.84	0.084670
23.924	0.080678
24.008	0.076762
24.092	0.072872
24.176	0.068994
24.26	0.065184
24.344	0.061557
24.428	0.058129
24.512	0.054922
24.596	0.051936
24.68	0.049224
24.764	0.046699
24.848	0.044298
24.932	0.041974
25.016	0.039662
25.1	0.037369
25.184	0.035039
25.268	0.032808
25.352	0.030671
25.436	0.028698
25.52	0.026878
25.604	0.025191
25.688	0.023597
25.772	0.022074
25.856	0.020609
25.94	0.019227
26.024	0.017927
26.108	0.016735
26.192	0.015631
26.276	0.014641
26.36	0.013751
26.444	0.012891
26.528	0.012034
26.612	0.011126
26.696	0.010214
26.78	0.009298
26.864	0.008445
26.948	0.007637
27.028	0.006961

File: BZ1503107-1_e125_cm-1.asc
PE IR       SPECTRUM    SPECTRUM    ASCII       PEDS        1.60
  -1
BZ09FB~1.ASC
17/04/07
18:42:25.00
17/04/07
18:42:25.00
tln
$BZ1503107-1_e0125$<ebV0>[-23.3,12.1,10.0,0.0,27,1,0]
370
64

2002,4.07
MIRTGS : RIGHTBACK : INTERNAL 2
MIR : ON : INTERNAL 2
OPTKBR

0.200000
8
8.000000
FILLER
SINGLE
SPECTRUM
UNLOCKED 256

DOUBLE

COMBINED
1
0
0

1.000000
BACKG

1
0
TRUE
51149
0
LEFT NOT FITTED RIGHT NOT FITTED 0
NONE
NONE
15600
12
4.427000
51148
TRUE
1 0 8 72 0 0 0 0

15798

#HDR
-1
-1
#GR
CM-1
EGY
2.38419e-05
0.0
5000
-1.000000
4631
8
2.468705
0.006961
#DATA
5000	0.774884
4984	0.783467
4968	0.795269
4952	0.799536
4936	0.806665
4920	0.812554
4904	0.817012
4888	0.822472
4872	0.830149
4856	0.841546
4840	0.852131
4824	0.863766
4808	0.873827
4792	0.883364
4776	0.893902
4760	0.901007
4744	0.906372
4728	0.911569
4712	0.915718
4696	0.916457
4680	0.923395
4664	0.923371
4648	0.928878
4632	0.931406
4616	0.937461
4600	0.948715
4584	0.958919
4568	0.970315
4552	0.984573
4536	0.992298
4520	1.001453
4504	1.007056
4488	1.008105
4472	1.018452
4456	1.020598
4440	1.008605
4424	1.056742
4408	1.009750
4392	1.056098
4376	1.055908
4360	1.057267
4344	1.075363
4328	1.096343
4312	1.114535
4296	1.132321
4280	1.151585
4264	1.166939
4248	1.179432
4232	1.192021
4216	1.199769
4200	1.205110
4184	1.215219
4168	1.221203
4152	1.231431
4136	1.245212
4120	1.253795
4104	1.270914
4088	1.292252
4072	1.315259
4056	1.336264
4040	1.357889
4024	1.378130
4008	1.392745
3992	1.410746
3976	1.419115
3960	1.427912
3944	1.430678
3928	1.440238
3912	1.441001
3896	1.442027
3880	1.453685
3864	1.459789
3848	1.478099
3832	1.496529
3816	1.510381
3800	1.526021
3784	1.549696
3768	1.566767
3752	1.562404
3736	1.569223
3720	1.586961
3704	1.586437
3688	1.582193
3672	1.575040
3656	1.584529
3640	1.591157
3624	1.592421
3608	1.596784
3592	1.607584
3576	1.620554
3560	1.628327
3544	1.635718
3528	1.635217
3512	1.640033
3496	1.635980
3480	1.627182
3464	1.617527
3448	1.604819
3432	1.600289
3416	1.600146
3400	1.610422
3384	1.620817
3368	1.633501
3352	1.657772
3336	1.681518
3320	1.706552
3304	1.728820
3288	1.753020
3272	1.770353
3256	1.784729
3240	1.794600
3224	1.797914
3208	1.801395
3192	1.803493
3176	1.808667
3160	1.815986
3144	1.827049
3128	1.849913
3112	1.868247
3096	1.899433
3080	1.929855
3064	1.947355
3048	1.977682
3032	1.993322
3016	1.978445
3000	2.038931
2984	2.039718
2968	1.972341
2952	1.935386
2936	1.826381
2920	1.814413
2904	1.957893
2888	2.008700
2872	1.995754
2856	1.939201
2840	2.083373
2824	2.144002
2808	2.178955
2792	2.209734
2776	2.238059
2760	2.254962
2744	2.267003
2728	2.268767
2712	2.264165
2696	2.256464
2680	2.244997
2664	2.237796
2648	2.230405
2632	2.230286
2616	2.232289
2600	2.239251
2584	2.252912
2568	2.277565
2552	2.299833
2536	2.316737
2520	2.329564
2504	2.337241
2488	2.337527
2472	2.329897
2456	2.314758
2440	2.299928
2424	2.281856
2408	2.268934
2392	2.263116
2376	2.252078
2360	2.247095
2344	2.274394
2328	2.294039
2312	2.327513
2296	2.357888
2280	2.373647
2264	2.384257
2248	2.391099
2232	2.389430
2216	2.381086
2200	2.370619
2184	2.355146
2168	2.346706
2152	2.342724
2136	2.342844
2120	2.346563
2104	2.347707
2088	2.348875
2072	2.367401
2056	2.402257
2040	2.433872
2024	2.451777
2008	2.464342
1992	2.467989
1976	2.454805
1960	2.439260
1944	2.426791
1928	2.413034
1912	2.393889
1896	2.381706
1880	2.383446
1864	2.391767
1848	2.401018
1832	2.416968
1816	2.432656
1800	2.438902
1784	2.438354
1768	2.419066
1752	2.395820
1736	2.336406
1720	2.317333
1704	2.282786
1688	2.256250
1672	2.235102
1656	2.187728
1640	2.162241
1624	2.108883
1608	1.979875
1592	2.023959
1576	1.990771
1560	1.938080
1544	1.962518
1528	2.113890
1512	2.094841
1496	1.709103
1480	1.963806
1464	1.942253
1448	1.787257
1432	1.872253
1416	1.847147
1400	1.735877
1384	1.789665
1368	1.820540
1352	1.820158
1336	1.828217
1320	1.854944
1304	1.858139
1288	1.858615
1272	1.809906
1256	1.760125
1240	1.839017
1224	1.815462
1208	1.751351
1192	1.742291
1176	1.702332
1160	1.632189
1144	1.598954
1128	1.542997
1112	1.459383
1096	1.427221
1080	1.429462
1064	1.435995
1048	1.306891
1032	1.380276
1016	1.369023
1000	1.400184
984	 1.383066
968	 1.344680
952	 1.288342
936	 1.253724
920	 1.216411
904	 1.162624
888	 1.119875
872	 1.035737
856	 1.094508
840	 1.060461
824	 0.845408
808	 0.950551
792	 0.962781
776	 0.976729
760	 0.966286
744	 0.943970
728	 0.905799
712	 0.856804
696	 0.793528
680	 0.730323
664	 0.709271
648	 0.668478
632	 0.627303
616	 0.576424
600	 0.521874
584	 0.509977
568	 0.491690
552	 0.465536
536	 0.437426
520	 0.399160
504	 0.361514
488	 0.303816
472	 0.252723
456	 0.196361
440	 0.150132
424	 0.098395
408	 0.055003
392	 0.027084
376	 0.011301
370	 0.006961