Folder: Masteroppgave/Bakgrunnsmateriale/MATLAB/FTIR/ftir_data/subAa/Mapping_121 (part 33)

File: BZ1503107-1_t74.asc
PE IR       SPECTRUM    SPECTRUM    ASCII       PEDS        1.60
  -1
BZ295F~1.ASC
17/04/07
19:20:23.00
17/04/07
19:20:49.00
tln
$BZ1503107-1_t0074$<tbV0>[-5.2,2.6,8.0,0.0,27,1,0]
27.028
64

2002,4.07
MIRTGS : RIGHTBACK : INTERNAL 2
MIR : ON : INTERNAL 2
OPTKBR

0.200000
8
8.000000
FILLER
RATIO
SPECTRUM
UNLOCKED 256

DOUBLE
64
COMBINED
1
0
0

0.002000
RATIO

1
0
TRUE
51149
0
LEFT NOT FITTED RIGHT NOT FITTED 0
NONE
NONE
15600
12
4.427000
51148
TRUE
1 0 8 72 0 0 0 0

15798

#HDR
-1
-1
#GR
µM
%T
2.38419e-05
0.0
2.000000
0.002000
12515
8
136.645
54.6658
#DATA
2.000000	 65.3928
2.084000	 64.3941
2.168000	 65.2918
2.252000	 64.5812
2.336000	 64.866
2.420000	 64.7976
2.504000	 64.7756
2.588000	 65.1914
2.672000	 65.3168
2.756000	 65.0457
2.840000	 65.1254
2.924000	 64.8919
3.008000	 65.1522
3.092000	 66.1028
3.176000	 65.0472
3.260000	 64.8853
3.344000	 64.919
3.428000	 64.9194
3.512000	 64.9652
3.596000	 65.0364
3.680000	 64.7882
3.764000	 64.9109
3.848000	 64.6044
3.932000	 64.7822
4.016000	 64.5894
4.100000	 64.5708
4.184000	 64.5406
4.268000	 64.5471
4.352000	 64.5021
4.436000	 64.6542
4.520000	 64.4201
4.604000	 65.1693
4.688000	 64.6074
4.772000	 64.4604
4.856000	 64.4409
4.940000	 64.3465
5.024000	 64.3499
5.108000	 64.4147
5.192000	 64.3305
5.276000	 64.2448
5.359999	 64.3949
5.444000	 64.0293
5.528000	 64.2234
5.612000	 64.166
5.696000	 64.0508
5.780000	 63.852
5.864000	 63.9003
5.948000	 64.0501
6.032000	 63.9576
6.116000	 63.829
6.200000	 64.2302
6.284000	 63.9493
6.368000	 63.9397
6.452000	 64.0463
6.536000	 63.9406
6.620000	 63.8946
6.704000	 63.5749
6.788000	 63.6341
6.872000	 63.8001
6.956000	 63.8463
7.040000	 63.7895
7.124000	 63.7174
7.208000	 63.7076
7.292000	 63.718
7.376000	 63.565
7.460000	 63.5968
7.544000	 63.9062
7.628000	 63.5333
7.712000	 63.4636
7.796000	 63.5416
7.880000	 63.6269
7.964000	 63.7234
8.048000	 63.6802
8.132000	 63.6508
8.216000	 63.5317
8.300000	 63.6195
8.384000	 63.5709
8.468000	 63.4437
8.552000	 63.4397
8.635999	 63.4479
8.719999	 63.2454
8.804000	 63.5706
8.888000	 63.5283
8.972000	 63.7705
9.056000	 63.8583
9.140000	 63.896
9.224000	 61.1471
9.308000	 61.2691
9.391999	 63.4938
9.475999	 63.1994
9.560000	 63.271
9.644000	 63.3442
9.728000	 63.2541
9.812000	 63.5593
9.896000	 63.893
9.980000	 63.5771
10.064	63.1049
10.148	63.5615
10.232	63.4535
10.316	63.1239
10.4	63.1049
10.484	63.4298
10.568	63.4723
10.652	63.3781
10.736	63.4257
10.82	63.2907
10.904	63.0007
10.988	63.2921
11.072	63.2038
11.156	63.0134
11.24	63.2332
11.324	63.1219
11.408	63.4549
11.492	63.6373
11.576	63.3456
11.66	63.2858
11.744	63.3642
11.828	63.1862
11.912	63.0997
11.996	63.0555
12.08	63.4493
12.164	63.4459
12.248	63.2689
12.332	63.1347
12.416	62.9205
12.5	63.0119
12.584	63.1905
12.668	63.1124
12.752	63.3349
12.836	63.4672
12.92	63.514
13.004	63.1797
13.088	62.9527
13.172	62.9298
13.256	63.1543
13.34	63.4246
13.424	63.227
13.508	63.1826
13.592	63.4472
13.676	63.4971
13.76	63.242
13.844	62.9439
13.928	63.0459
14.012	63.0202
14.096	63.0053
14.18	63.2427
14.264	62.7108
14.348	61.7019
14.432	61.2865
14.516	61.5471
14.6	62.4127
14.684	63.4938
14.768	63.7765
14.852	63.0681
14.936	62.0263
15.02	61.5283
15.104	62.1538
15.188	63.0323
15.272	63.0676
15.356	62.7122
15.44	62.7882
15.524	63.0048
15.608	62.7238
15.692	62.2081
15.776	62.0293
15.86	62.1068
15.944	62.1367
16.028	62.2253
16.112	62.5074
16.196	62.7703
16.28	62.8404
16.364	62.8885
16.448	63.1501
16.532	63.6048
16.616	63.879
16.7	63.6388
16.784	63.0672
16.868	62.5527
16.952	62.2295
17.036	62.1052
17.12	62.1948
17.204	62.3758
17.288	62.4893
17.372	62.5313
17.456	62.5536
17.54	62.5584
17.624	62.5715
17.708	62.7054
17.792	63.028
17.876	63.3898
17.96	63.5378
18.044	63.4018
18.128	63.1435
18.212	62.9067
18.296	62.6942
18.38	62.5201
18.464	62.4686
18.548	62.5453
18.632	62.6266
18.716	62.5883
18.8	62.4249
18.884	62.2487
18.968	62.1743
19.052	62.219
19.136	62.3148
19.22	62.3935
19.304	62.4396
19.388	62.4672
19.472	62.4735
19.556	62.4504
19.64	62.4117
19.724	62.3701
19.808	62.3173
19.892	62.2511
19.976	62.198
20.06	62.184
20.144	62.1977
20.228	62.2031
20.312	62.1841
20.396	62.1555
20.48	62.1366
20.564	62.1205
20.648	62.0975
20.732	62.0868
20.816	62.1235
20.9	62.2172
20.984	62.3251
21.068	62.3806
21.152	62.3429
21.236	62.2299
21.32	62.085
21.404	61.9358
21.488	61.762
21.572	61.5133
21.656	61.1628
21.74	60.7466
21.824	60.3704
21.908	60.1701
21.992	60.2273
22.076	60.5152
22.16	60.9075
22.244	61.2436
22.328	61.4421
22.412	61.5524
22.496	61.7299
22.58	62.1059
22.664	62.6884
22.748	63.3174
22.832	63.7596
22.916	63.8219
23	63.4866
23.084	62.9056
23.168	62.3605
23.252	62.119
23.336	62.3517
23.42	63.0508
23.504	64.0639
23.588	65.147
23.672	66.0565
23.756	66.6156
23.84	66.7831
23.924	66.6463
24.008	66.3496
24.092	66.0195
24.176	65.7175
24.26	65.4045
24.344	64.9703
24.428	64.3075
24.512	63.3357
24.596	62.1329
24.68	60.898
24.764	59.8488
24.848	59.236
24.932	59.2303
25.016	59.8066
25.1	60.7677
25.184	61.7132
25.268	62.2029
25.352	61.9477
25.436	60.9187
25.52	59.446
25.604	58.0992
25.688	57.4684
25.772	57.8095
25.856	58.923
25.94	60.4381
26.024	62.0256
26.108	63.6056
26.192	65.5314
26.276	68.52
26.36	73.33
26.444	80.5116
26.528	90.062
26.612	101.53
26.696	113.7
26.78	124.696
26.864	132.634
26.948	136.385
27.028	136.274

File: BZ1503107-1_t74_cm-1.asc
PE IR       SPECTRUM    SPECTRUM    ASCII       PEDS        1.60
  -1
BZ6CA6~1.ASC
17/04/07
19:20:23.00
17/04/07
19:20:23.00
tln
$BZ1503107-1_t0074$<tbV0>[-5.2,2.6,8.0,0.0,27,1,0]
370
64

2002,4.07
MIRTGS : RIGHTBACK : INTERNAL 2
MIR : ON : INTERNAL 2
OPTKBR

0.200000
8
8.000000
FILLER
RATIO
SPECTRUM
UNLOCKED 256

DOUBLE
64
COMBINED
1
0
0

1.000000
RATIO

1
0
TRUE
51149
0
LEFT NOT FITTED RIGHT NOT FITTED 0
NONE
NONE
15600
12
4.427000
51148
TRUE
1 0 8 72 0 0 0 0

15798

#HDR
-1
-1
#GR
CM-1
%T
2.38419e-05
0.0
5000
-1.000000
4631
8
136.5
54.4048
#DATA
5000	65.3928
4984	64.805
4968	64.0853
4952	64.7455
4936	64.828
4920	64.5487
4904	64.7022
4888	65.0268
4872	64.8215
4856	64.7797
4840	64.1533
4824	64.4189
4808	64.67
4792	64.6217
4776	64.5864
4760	64.6944
4744	64.9613
4728	64.6869
4712	64.4468
4696	64.5293
4680	64.2363
4664	64.7708
4648	64.8548
4632	64.6143
4616	65.403
4600	65.1975
4584	64.9766
4568	65.1145
4552	64.7722
4536	65.2161
4520	65.3434
4504	65.064
4488	65.4465
4472	65.1271
4456	65.1215
4440	64.5886
4424	59.0716
4408	63.4659
4392	65.691
4376	65.1933
4360	65.221
4344	64.9573
4328	65.0926
4312	62.252
4296	64.6283
4280	64.8747
4264	64.8167
4248	64.8013
4232	65.2496
4216	64.8918
4200	64.7673
4184	64.8521
4168	64.3825
4152	64.9253
4136	64.7865
4120	64.8419
4104	64.4868
4088	64.7066
4072	64.5917
4056	64.8906
4040	64.7958
4024	64.985
4008	65.0259
3992	64.7999
3976	64.9053
3960	64.916
3944	65.0555
3928	64.6443
3912	65.2131
3896	65.374
3880	64.8037
3864	65.1916
3848	64.9505
3832	65.1651
3816	64.7437
3800	65.1366
3784	65.3082
3768	64.8175
3752	64.9287
3736	65.3491
3720	64.7551
3704	64.7326
3688	64.9668
3672	64.9111
3656	65.2336
3640	64.9863
3624	64.9132
3608	64.9644
3592	64.8157
3576	64.926
3560	64.9076
3544	65.1468
3528	64.8238
3512	65.133
3496	64.7976
3480	64.9816
3464	65.1766
3448	64.9458
3432	64.9895
3416	64.8293
3400	64.8234
3384	64.9171
3368	64.943
3352	64.9905
3336	65.0418
3320	65.2277
3304	65.1889
3288	64.7604
3272	64.7949
3256	64.6872
3240	66.5707
3224	65.4778
3208	64.5727
3192	64.9967
3176	64.9033
3160	64.8441
3144	64.9314
3128	64.8237
3112	65.1734
3096	64.9506
3080	64.9108
3064	64.9222
3048	64.9788
3032	64.8586
3016	64.8233
3000	64.7882
2984	65.0532
2968	64.9859
2952	64.4457
2936	64.6988
2920	64.8768
2904	64.5494
2888	64.7865
2872	64.8394
2856	64.8799
2840	64.85
2824	64.6665
2808	64.8995
2792	64.7696
2776	64.9144
2760	64.8876
2744	64.8473
2728	64.7751
2712	64.8664
2696	64.7182
2680	64.8879
2664	64.8489
2648	64.6559
2632	64.6455
2616	64.8468
2600	64.6338
2584	64.6135
2568	64.5496
2552	64.5832
2536	64.5943
2520	64.7281
2504	64.8373
2488	64.6322
2472	64.7732
2456	64.5775
2440	64.5811
2424	64.5873
2408	64.8967
2392	64.5714
2376	64.542
2360	64.537
2344	64.5362
2328	64.4733
2312	64.6265
2296	64.4861
2280	64.4928
2264	64.5945
2248	64.6214
2232	64.6698
2216	64.4964
2200	64.5246
2184	64.647
2168	65.5597
2152	65.1356
2136	64.6965
2120	64.2731
2104	64.4424
2088	64.3535
2072	64.303
2056	64.4759
2040	64.4521
2024	64.3473
2008	64.4621
1992	64.3054
1976	64.3837
1960	64.3701
1944	64.4045
1928	64.3709
1912	64.3253
1896	64.2499
1880	64.2964
1864	64.3848
1848	64.3336
1832	64.1418
1816	64.1968
1800	64.1883
1784	64.1621
1768	64.22
1752	63.9124
1736	63.8237
1720	63.9345
1704	63.9222
1688	63.979
1672	63.9526
1656	63.9925
1640	63.8218
1624	64.133
1608	64.2035
1592	63.957
1576	63.968
1560	63.7777
1544	63.9972
1528	63.9162
1512	63.8656
1496	63.6578
1480	63.8384
1464	63.6726
1448	63.5915
1432	63.919
1416	63.6567
1400	63.7149
1384	63.7843
1368	63.7822
1352	63.5788
1336	63.7616
1320	63.8547
1304	63.4798
1288	63.4409
1272	63.606
1256	63.7194
1240	63.6818
1224	63.8158
1208	63.6203
1192	63.561
1176	63.3155
1160	63.3576
1144	63.2194
1128	63.6147
1112	63.7183
1096	63.9122
1080	58.9659
1064	63.5417
1048	63.2243
1032	63.3538
1016	63.8218
1000	63.505
984	 63.604
968	 63.0983
952	 63.5249
936	 63.3716
920	 62.9966
904	 63.2152
888	 63.2156
872	 63.626
856	 63.37
840	 63.118
824	 63.5104
808	 63.0199
792	 63.1263
776	 63.5341
760	 62.922
744	 63.1771
728	 63.3429
712	 62.9641
696	 61.5322
680	 63.6766
664	 61.7042
648	 62.7628
632	 62.0672
616	 62.8223
600	 63.7956
584	 62.2013
568	 62.5631
552	 63.1808
536	 62.631
520	 62.401
504	 62.2917
488	 62.1345
472	 62.3031
456	 60.159
440	 63.1705
424	 65.1093
408	 63.3646
392	 59.6194
376	 99.2155
370	 136.274

File: BZ1503107-1_t75.asc
PE IR       SPECTRUM    SPECTRUM    ASCII       PEDS        1.60
  -1
BZ2D5F~1.ASC
17/04/07
19:25:00.00
17/04/07
19:25:26.00
tln
$BZ1503107-1_t0075$<tbV0>[-7.8,2.6,8.0,0.0,27,1,0]
27.028
64

2002,4.07
MIRTGS : RIGHTBACK : INTERNAL 2
MIR : ON : INTERNAL 2
OPTKBR

0.200000
8
8.000000
FILLER
RATIO
SPECTRUM
UNLOCKED 256

DOUBLE
64
COMBINED
1
0
0

0.002000
RATIO

1
0
TRUE
51149
0
LEFT NOT FITTED RIGHT NOT FITTED 0
NONE
NONE
15600
12
4.427000
51148
TRUE
1 0 8 72 0 0 0 0

15798

#HDR
-1
-1
#GR
µM
%T
2.38419e-05
0.0
2.000000
0.002000
12515
8
78.5345
48.9913
#DATA
2.000000	 64.6806
2.084000	 64.5792
2.168000	 65.0927
2.252000	 63.3061
2.336000	 64.4766
2.420000	 64.8988
2.504000	 64.7488
2.588000	 65.0717
2.672000	 65.1295
2.756000	 65.0521
2.840000	 64.9858
2.924000	 64.9331
3.008000	 65.0054
3.092000	 64.9645
3.176000	 64.8353
3.260000	 65.028
3.344000	 64.8286
3.428000	 64.7093
3.512000	 64.7481
3.596000	 64.8978
3.680000	 64.7351
3.764000	 64.679
3.848000	 64.7703
3.932000	 64.662
4.016000	 64.5665
4.100000	 64.5771
4.184000	 64.4623
4.268000	 64.5129
4.352000	 64.4771
4.436000	 64.5933
4.520000	 64.5312
4.604000	 64.3642
4.688000	 64.4342
4.772000	 64.3948
4.856000	 64.3344
4.940000	 64.4717
5.024000	 64.2605
5.108000	 64.4225
5.192000	 64.3047
5.276000	 64.3193
5.359999	 64.282
5.444000	 64.2146
5.528000	 64.2486
5.612000	 64.1968
5.696000	 64.0929
5.780000	 63.8906
5.864000	 63.993
5.948000	 64.0256
6.032000	 64.075
6.116000	 63.9029
6.200000	 64.0244
6.284000	 63.8428
6.368000	 63.8984
6.452000	 63.8805
6.536000	 63.9052
6.620000	 63.989
6.704000	 63.8969
6.788000	 63.8558
6.872000	 63.919
6.956000	 63.7938
7.040000	 63.9268
7.124000	 63.6362
7.208000	 63.7902
7.292000	 63.5952
7.376000	 63.591
7.460000	 63.7276
7.544000	 63.767
7.628000	 63.7145
7.712000	 63.531
7.796000	 63.5646
7.880000	 63.4859
7.964000	 63.5522
8.048000	 63.5292
8.132000	 63.535
8.216000	 63.5312
8.300000	 63.5257
8.384000	 63.4362
8.468000	 63.4849
8.552000	 63.3046
8.635999	 63.3229
8.719999	 63.4704
8.804000	 63.5477
8.888000	 63.3338
8.972000	 63.2962
9.056000	 63.432
9.140000	 63.4858
9.224000	 63.4153
9.308000	 63.5159
9.391999	 63.5296
9.475999	 63.2653
9.560000	 63.3947
9.644000	 63.2657
9.728000	 63.2703
9.812000	 63.2904
9.896000	 63.1896
9.980000	 63.3921
10.064	63.3543
10.148	63.4965
10.232	63.3862
10.316	63.2823
10.4	63.5023
10.484	63.3614
10.568	63.2742
10.652	63.3523
10.736	63.3712
10.82	63.4149
10.904	63.1617
10.988	63.3632
11.072	63.4275
11.156	63.3279
11.24	63.3438
11.324	63.3771
11.408	63.4855
11.492	63.6781
11.576	63.4098
11.66	63.2639
11.744	63.3201
11.828	63.2372
11.912	63.1428
11.996	63.1989
12.08	63.2445
12.164	63.4271
12.248	63.4249
12.332	63.2857
12.416	63.2726
12.5	63.2617
12.584	63.0676
12.668	63.1196
12.752	63.2721
12.836	63.3231
12.92	63.1649
13.004	62.9414
13.088	63.0138
13.172	63.2117
13.256	63.1882
13.34	63.2457
13.424	63.3065
13.508	63.0955
13.592	63.0225
13.676	62.9102
13.76	62.6473
13.844	62.7556
13.928	62.9778
14.012	63.0397
14.096	62.8967
14.18	62.5748
14.264	62.4045
14.348	62.5296
14.432	62.9115
14.516	63.4365
14.6	63.732
14.684	63.7809
14.768	63.7674
14.852	63.4914
14.936	63.2158
15.02	63.2267
15.104	63.2853
15.188	63.2878
15.272	63.2894
15.356	63.2076
15.44	62.9654
15.524	62.531
15.608	61.9255
15.692	61.5392
15.776	61.8186
15.86	62.4527
15.944	62.8045
16.028	62.7555
16.112	62.5309
16.196	62.4278
16.28	62.7582
16.364	63.4187
16.448	63.8606
16.532	63.8205
16.616	63.5296
16.7	63.1938
16.784	62.851
16.868	62.6021
16.952	62.5323
17.036	62.6255
17.12	62.8763
17.204	63.2274
17.288	63.4665
17.372	63.4325
17.456	63.2003
17.54	62.9528
17.624	62.8209
17.708	62.8377
17.792	62.9131
17.876	62.9125
17.96	62.8317
18.044	62.7972
18.128	62.8743
18.212	63.0014
18.296	63.1102
18.38	63.1913
18.464	63.2367
18.548	63.2204
18.632	63.1408
18.716	63.0512
18.8	63.0242
18.884	63.0921
18.968	63.1928
19.052	63.1834
19.136	62.9712
19.22	62.631
19.304	62.3517
19.388	62.257
19.472	62.312
19.556	62.3878
19.64	62.3903
19.724	62.3178
19.808	62.227
19.892	62.1825
19.976	62.2312
20.06	62.3844
20.144	62.6058
20.228	62.8182
20.312	62.9435
20.396	62.9503
20.48	62.8684
20.564	62.7641
20.648	62.6879
20.732	62.6576
20.816	62.6765
20.9	62.7486
20.984	62.8648
21.068	62.9845
21.152	63.0467
21.236	63.005
21.32	62.8525
21.404	62.6288
21.488	62.3983
21.572	62.2249
21.656	62.1521
21.74	62.1846
21.824	62.2834
21.908	62.3813
21.992	62.4239
22.076	62.4
22.16	62.3386
22.244	62.275
22.328	62.2208
22.412	62.1782
22.496	62.1623
22.58	62.218
22.664	62.3941
22.748	62.6966
22.832	63.0685
22.916	63.4071
23	63.6084
23.084	63.6265
23.168	63.4933
23.252	63.289
23.336	63.0966
23.42	62.9589
23.504	62.8709
23.588	62.7993
23.672	62.7102
23.756	62.5766
23.84	62.3781
23.924	62.0935
24.008	61.7033
24.092	61.2082
24.176	60.6568
24.26	60.1711
24.344	59.9121
24.428	59.9826
24.512	60.3797
24.596	60.9608
24.68	61.5018
24.764	61.7973
24.848	61.7616
24.932	61.4166
25.016	60.8627
25.1	60.2394
25.184	59.6215
25.268	59.021
25.352	58.4774
25.436	58.0452
25.52	57.7995
25.604	57.8106
25.688	58.0758
25.772	58.468
25.856	58.7564
25.94	58.6752
26.024	58.0255
26.108	56.7828
26.192	55.096
26.276	53.2297
26.36	51.4812
26.444	50.0888
26.528	49.2279
26.612	49.009
26.696	49.5874
26.78	51.1366
26.864	53.9102
26.948	58.1539
27.028	63.6214

File: BZ1503107-1_t75_cm-1.asc
PE IR       SPECTRUM    SPECTRUM    ASCII       PEDS        1.60
  -1
BZ6DA6~1.ASC
17/04/07
19:25:00.00
17/04/07
19:25:00.00
tln
$BZ1503107-1_t0075$<tbV0>[-7.8,2.6,8.0,0.0,27,1,0]
370
64

2002,4.07
MIRTGS : RIGHTBACK : INTERNAL 2
MIR : ON : INTERNAL 2
OPTKBR

0.200000
8
8.000000
FILLER
RATIO
SPECTRUM
UNLOCKED 256

DOUBLE
64
COMBINED
1
0
0

1.000000
RATIO

1
0
TRUE
51149
0
LEFT NOT FITTED RIGHT NOT FITTED 0
NONE
NONE
15600
12
4.427000
51148
TRUE
1 0 8 72 0 0 0 0

15798

#HDR
-1
-1
#GR
CM-1
%T
2.38419e-05
0.0
5000
-1.000000
4631
8
80.3989
48.9916
#DATA
5000	64.6806
4984	64.9306
4968	64.1408
4952	64.5221
4936	64.6059
4920	64.6423
4904	64.6939
4888	64.631
4872	64.798
4856	64.4869
4840	64.6416
4824	64.5694
4808	64.4568
4792	64.5062
4776	64.5763
4760	64.6823
4744	64.7995
4728	64.5802
4712	64.5378
4696	64.8561
4680	64.4011
4664	64.7632
4648	64.6638
4632	64.6434
4616	64.942
4600	64.6241
4584	64.8703
4568	64.6174
4552	64.1672
4536	64.4518
4520	64.4425
4504	64.5151
4488	64.7765
4472	63.7456
4456	64.0418
4440	63.3443
4424	76.6697
4408	73.4027
4392	63.7243
4376	64.5169
4360	64.8086
4344	64.4212
4328	64.4093
4312	64.6744
4296	64.6388
4280	64.4842
4264	64.4672
4248	64.8476
4232	64.915
4216	64.8804
4200	64.909
4184	64.8004
4168	64.8377
4152	64.7524
4136	64.8973
4120	64.94
4104	64.7708
4088	64.8162
4072	64.9116
4056	65.1072
4040	65.1154
4024	64.9501
4008	65.0201
3992	64.7958
3976	64.9855
3960	64.9136
3944	64.712
3928	64.7083
3912	64.8361
3896	64.9525
3880	64.7383
3864	65.0718
3848	64.5098
3832	64.6338
3816	64.9759
3800	65.0955
3784	64.8571
3768	65.0217
3752	65.1
3736	65.0642
3720	64.9962
3704	65.178
3688	65.0467
3672	65.0677
3656	64.9406
3640	65.0471
3624	64.9544
3608	65.0759
3592	64.8784
3576	64.9377
3560	64.9598
3544	64.9502
3528	65.0101
3512	64.8668
3496	64.9022
3480	64.8438
3464	64.8799
3448	65.053
3432	64.706
3416	64.8908
3400	64.6974
3384	64.7976
3368	65.0065
3352	64.8721
3336	64.938
3320	64.9038
3304	64.8908
3288	64.8737
3272	64.8381
3256	64.9075
3240	64.9034
3224	64.942
3208	64.8451
3192	65.0001
3176	64.9227
3160	64.8854
3144	64.7909
3128	64.6609
3112	64.86
3096	64.746
3080	64.8718
3064	65.0589
3048	64.8632
3032	64.7425
3016	64.8258
3000	64.854
2984	64.8338
2968	64.7727
2952	64.6849
2936	64.8099
2920	64.6516
2904	64.8178
2888	64.8598
2872	64.762
2856	64.8097
2840	64.7737
2824	64.8135
2808	64.8201
2792	64.8215
2776	64.824
2760	64.7747
2744	64.8368
2728	64.7348
2712	64.7452
2696	64.769
2680	64.7999
2664	64.7252
2648	64.7007
2632	64.7063
2616	64.7894
2600	64.7887
2584	64.7697
2568	64.6056
2552	64.6431
2536	64.6199
2520	64.7056
2504	64.7386
2488	64.5987
2472	64.7318
2456	64.7151
2440	64.5965
2424	64.7096
2408	64.6482
2392	64.4487
2376	64.7332
2360	64.5043
2344	64.5048
2328	64.5467
2312	64.5742
2296	64.466
2280	64.5379
2264	64.6174
2248	64.4706
2232	64.5085
2216	64.5209
2200	64.3805
2184	64.5141
2168	64.4416
2152	64.4787
2136	64.3997
2120	64.4253
2104	64.4368
2088	64.4108
2072	64.43
2056	64.3504
2040	64.3961
2024	64.4767
2008	64.4168
1992	64.2689
1976	64.3913
1960	64.4126
1944	64.3599
1928	64.2817
1912	64.4103
1896	64.3258
1880	64.2661
1864	64.2711
1848	64.2506
1832	64.1747
1816	64.2279
1800	64.1442
1784	64.1939
1768	64.2525
1752	63.9599
1736	63.9066
1720	64.0145
1704	63.992
1688	64.0971
1672	64.0015
1656	64.078
1640	63.923
1624	64.1455
1608	63.9143
1592	63.8448
1576	63.953
1560	63.8134
1544	63.9389
1528	63.8881
1512	63.9693
1496	63.8309
1480	63.9158
1464	63.7524
1448	63.8755
1432	63.8841
1416	63.7717
1400	63.7804
1384	63.6821
1368	63.6086
1352	63.5809
1336	63.8047
1320	63.8018
1304	63.6671
1288	63.5409
1272	63.4259
1256	63.544
1240	63.5829
1224	63.5336
1208	63.5046
1192	63.43
1176	63.4592
1160	63.2732
1144	63.4806
1128	63.3406
1112	63.356
1096	63.5151
1080	63.3948
1064	63.498
1048	63.3532
1032	63.2727
1016	63.2624
1000	63.3755
984	 63.5056
968	 63.3118
952	 63.2917
936	 63.3054
920	 63.2134
904	 63.435
888	 63.3418
872	 63.6459
856	 63.2938
840	 63.1444
824	 63.3659
808	 63.2553
792	 63.0547
776	 63.2576
760	 63.1913
744	 63.2772
728	 62.6997
712	 63.0146
696	 62.5981
680	 63.7898
664	 63.2642
648	 62.9956
632	 62.1756
616	 62.5134
600	 63.3298
584	 62.889
568	 62.8362
552	 62.8581
536	 63.112
520	 62.588
504	 62.2005
488	 62.8537
472	 63.0437
456	 62.3992
440	 62.6122
424	 62.8021
408	 60.3664
392	 57.8154
376	 48.9916
370	 63.6214

File: BZ1503107-1_t76.asc
PE IR       SPECTRUM    SPECTRUM    ASCII       PEDS        1.60
  -1
BZ216F~1.ASC
17/04/07
19:29:37.00
17/04/07
19:30:03.00
tln
$BZ1503107-1_t0076$<tbV0>[-10.4,2.6,8.0,0.0,27,1,0]
27.028
64

2002,4.07
MIRTGS : RIGHTBACK : INTERNAL 2
MIR : ON : INTERNAL 2
OPTKBR

0.200000
8
8.000000
FILLER
RATIO
SPECTRUM
UNLOCKED 256

DOUBLE
64
COMBINED
1
0
0

0.002000
RATIO

1
0
TRUE
51149
0
LEFT NOT FITTED RIGHT NOT FITTED 0
NONE
NONE
15600
12
4.427000
51148
TRUE
1 0 8 72 0 0 0 0

15798

#HDR
-1
-1
#GR
µM
%T
2.38419e-05
0.0
2.000000
0.002000
12515
8
95.0537
47.269
#DATA
2.000000	 64.4641
2.084000	 64.5361
2.168000	 65.0772
2.252000	 65.2265
2.336000	 64.8261
2.420000	 64.7794
2.504000	 65.0419
2.588000	 65.0597
2.672000	 65.2296
2.756000	 64.7987
2.840000	 65.0619
2.924000	 65.0164
3.008000	 65.0348
3.092000	 65.0082
3.176000	 65.0352
3.260000	 64.985
3.344000	 64.9566
3.428000	 64.8527
3.512000	 64.7578
3.596000	 64.8382
3.680000	 64.8155
3.764000	 64.8171
3.848000	 64.7666
3.932000	 64.7534
4.016000	 64.781
4.100000	 64.5713
4.184000	 64.5301
4.268000	 64.6031
4.352000	 64.5628
4.436000	 64.6309
4.520000	 64.5478
4.604000	 64.4723
4.688000	 64.4951
4.772000	 64.442
4.856000	 64.2999
4.940000	 64.4271
5.024000	 64.2808
5.108000	 64.4295
5.192000	 64.3225
5.276000	 64.284
5.359999	 64.2624
5.444000	 64.2568
5.528000	 64.2572
5.612000	 64.1601
5.696000	 64.1721
5.780000	 63.9103
5.864000	 63.966
5.948000	 64.0438
6.032000	 63.9607
6.116000	 64.0228
6.200000	 64.0073
6.284000	 63.9775
6.368000	 63.9004
6.452000	 63.9436
6.536000	 63.9843
6.620000	 64.0314
6.704000	 63.9326
6.788000	 63.7828
6.872000	 63.9617
6.956000	 63.8192
7.040000	 63.9725
7.124000	 63.653
7.208000	 63.7306
7.292000	 63.7381
7.376000	 63.6965
7.460000	 63.7161
7.544000	 63.744
7.628000	 63.7212
7.712000	 63.6837
7.796000	 63.4893
7.880000	 63.5289
7.964000	 63.5305
8.048000	 63.5665
8.132000	 63.5271
8.216000	 63.4301
8.300000	 63.4891
8.384000	 63.4937
8.468000	 63.3745
8.552000	 63.4441
8.635999	 63.4067
8.719999	 63.4433
8.804000	 63.4588
8.888000	 63.4398
8.972000	 63.2855
9.056000	 63.3043
9.140000	 63.4013
9.224000	 63.4977
9.308000	 63.3649
9.391999	 63.3312
9.475999	 63.3364
9.560000	 63.3805
9.644000	 63.2505
9.728000	 63.2665
9.812000	 63.1437
9.896000	 63.3027
9.980000	 63.4849
10.064	63.3906
10.148	63.2864
10.232	63.3478
10.316	63.3784
10.4	63.3488
10.484	63.3363
10.568	63.3129
10.652	63.3384
10.736	63.3043
10.82	63.423
10.904	63.515
10.988	63.469
11.072	63.373
11.156	63.4081
11.24	63.4857
11.324	63.4307
11.408	63.5244
11.492	63.6454
11.576	63.3533
11.66	63.2726
11.744	63.2976
11.828	63.5259
11.912	63.3693
11.996	63.0844
12.08	63.0873
12.164	63.4156
12.248	63.4418
12.332	63.2031
12.416	63.0174
12.5	62.9627
12.584	62.9686
12.668	63.0343
12.752	63.1586
12.836	63.2887
12.92	63.3501
13.004	63.1508
13.088	62.9706
13.172	62.9916
13.256	63.1362
13.34	63.1864
13.424	62.9637
13.508	62.9146
13.592	62.9077
13.676	62.5973
13.76	62.6037
13.844	62.8966
13.928	62.9703
14.012	63.1057
14.096	63.0328
14.18	62.7456
14.264	62.7515
14.348	62.8787
14.432	62.9956
14.516	63.0441
14.6	63.0098
14.684	63.1715
14.768	63.5157
14.852	63.6762
14.936	63.3737
15.02	63.0927
15.104	63.3709
15.188	63.4718
15.272	62.9519
15.356	62.631
15.44	62.8321
15.524	62.999
15.608	62.7163
15.692	62.1899
15.776	62.0125
15.86	62.3292
15.944	62.6982
16.028	62.9349
16.112	63.1997
16.196	63.3911
16.28	63.3303
16.364	63.2962
16.448	63.6759
16.532	64.2691
16.616	64.4352
16.7	63.9199
16.784	63.1835
16.868	62.793
16.952	62.808
17.036	62.958
17.12	63.0882
17.204	63.1763
17.288	63.1725
17.372	63.0497
17.456	62.9006
17.54	62.8623
17.624	62.9819
17.708	63.1719
17.792	63.3073
17.876	63.3438
17.96	63.2988
18.044	63.1726
18.128	63.0127
18.212	62.9777
18.296	63.1771
18.38	63.4714
18.464	63.5905
18.548	63.4448
18.632	63.1951
18.716	63.0328
18.8	63.006
18.884	63.0497
18.968	63.0721
19.052	62.986
19.136	62.7724
19.22	62.5327
19.304	62.3936
19.388	62.3644
19.472	62.3368
19.556	62.2168
19.64	62.0271
19.724	61.8784
19.808	61.8599
19.892	61.9738
19.976	62.1636
20.06	62.3716
20.144	62.5695
20.228	62.7434
20.312	62.8569
20.396	62.859
20.48	62.7377
20.564	62.5529
20.648	62.3937
20.732	62.3102
20.816	62.301
20.9	62.3422
20.984	62.4097
21.068	62.4884
21.152	62.5755
21.236	62.6819
21.32	62.823
21.404	63.0026
21.488	63.1997
21.572	63.3665
21.656	63.4478
21.74	63.4029
21.824	63.2191
21.908	62.9282
21.992	62.6069
22.076	62.3543
22.16	62.2551
22.244	62.327
22.328	62.5151
22.412	62.7387
22.496	62.9461
22.58	63.1374
22.664	63.3285
22.748	63.5014
22.832	63.5904
22.916	63.5126
23	63.245
23.084	62.8667
23.168	62.5546
23.252	62.4791
23.336	62.7198
23.42	63.1981
23.504	63.7228
23.588	64.0849
23.672	64.166
23.756	63.9938
23.84	63.7222
23.924	63.5275
24.008	63.4934
24.092	63.5627
24.176	63.5747
24.26	63.404
24.344	63.0315
24.428	62.5519
24.512	62.1256
24.596	61.8825
24.68	61.8512
24.764	61.9397
24.848	62.0734
24.932	62.2024
25.016	62.3151
25.1	62.4534
25.184	62.5833
25.268	62.5597
25.352	62.1784
25.436	61.2987
25.52	59.9551
25.604	58.3461
25.688	56.7243
25.772	55.2572
25.856	53.9551
25.94	52.6865
26.024	51.2992
26.108	49.7855
26.192	48.3373
26.276	47.3897
26.36	47.5115
26.444	49.2512
26.528	52.9445
26.612	58.6844
26.696	66.1605
26.78	74.6131
26.864	82.982
26.948	90.1528
27.028	95.0537