Folder: Masteroppgave/Bakgrunnsmateriale/MATLAB/FTIR/ftir_data/subAa/Mapping_121 (part 30)

File: BZ1503107-1_t66_cm-1.asc
PE IR       SPECTRUM    SPECTRUM    ASCII       PEDS        1.60
  -1
BZ6E21~1.ASC
17/04/07
18:36:41.00
17/04/07
18:36:41.00
tln
$BZ1503107-1_t0066$<tbV0>[-13.0,0.0,8.0,0.0,27,1,0]
370
64

2002,4.07
MIRTGS : RIGHTBACK : INTERNAL 2
MIR : ON : INTERNAL 2
OPTKBR

0.200000
8
8.000000
FILLER
RATIO
SPECTRUM
UNLOCKED 256

DOUBLE
64
COMBINED
1
0
0

1.000000
RATIO

1
0
TRUE
51149
0
LEFT NOT FITTED RIGHT NOT FITTED 0
NONE
NONE
15600
12
4.427000
51148
TRUE
1 0 8 72 0 0 0 0

15798

#HDR
-1
-1
#GR
CM-1
%T
2.38419e-05
0.0
5000
-1.000000
4631
8
79.5573
54.8076
#DATA
5000	65.6723
4984	65.9544
4968	65.1518
4952	64.9275
4936	65.5577
4920	65.0018
4904	64.5517
4888	64.5713
4872	64.9878
4856	65.2067
4840	65.3412
4824	64.9812
4808	65.2705
4792	65.2037
4776	65.6732
4760	65.2619
4744	65.343
4728	65.5355
4712	65.2564
4696	65.3455
4680	65.684
4664	65.5759
4648	65.1321
4632	65.4327
4616	64.6271
4600	65.0742
4584	65.1295
4568	64.7948
4552	65.1691
4536	64.9065
4520	64.5396
4504	64.8807
4488	64.7587
4472	64.4706
4456	64.605
4440	64.1655
4424	65.0279
4408	66.5058
4392	65.2167
4376	64.6824
4360	65.6121
4344	64.6617
4328	65.1409
4312	64.7512
4296	64.8422
4280	65.1732
4264	65.1516
4248	65.013
4232	65.0577
4216	65.0569
4200	65.5075
4184	65.1765
4168	65.2949
4152	65.0915
4136	65.1649
4120	65.4225
4104	65.1558
4088	65.4757
4072	65.4353
4056	65.2196
4040	65.3581
4024	65.253
4008	65.3888
3992	65.5209
3976	65.3687
3960	65.3407
3944	65.2248
3928	65.1771
3912	65.3842
3896	65.2066
3880	65.1207
3864	65.4148
3848	65.0973
3832	65.295
3816	65.2867
3800	65.209
3784	65.3777
3768	65.2949
3752	65.3025
3736	65.175
3720	65.3301
3704	65.4061
3688	65.3552
3672	65.4339
3656	65.4346
3640	65.249
3624	65.2413
3608	65.205
3592	65.1619
3576	65.2122
3560	65.333
3544	65.3526
3528	65.2073
3512	65.3679
3496	65.3744
3480	65.1978
3464	65.0345
3448	65.3229
3432	65.0378
3416	65.1868
3400	64.9985
3384	65.1506
3368	65.3141
3352	65.0184
3336	65.2991
3320	65.2237
3304	65.2477
3288	65.3465
3272	65.1533
3256	65.2472
3240	65.2594
3224	65.4143
3208	65.2384
3192	65.3612
3176	65.2056
3160	65.2686
3144	65.1638
3128	65.0937
3112	65.1849
3096	65.1266
3080	65.1024
3064	65.165
3048	65.0308
3032	65.1387
3016	65.0437
3000	64.8886
2984	64.9602
2968	64.6493
2952	64.6748
2936	64.8298
2920	64.9481
2904	64.9425
2888	65.0083
2872	64.8633
2856	65.0781
2840	65.1369
2824	65.1698
2808	65.0421
2792	65.1836
2776	64.9818
2760	64.9945
2744	65.136
2728	65.2002
2712	65.1575
2696	65.0416
2680	65.0947
2664	65.0819
2648	65.098
2632	64.9568
2616	64.9512
2600	64.9367
2584	65.0387
2568	64.9605
2552	64.9751
2536	64.8251
2520	65.0518
2504	64.8568
2488	65.0504
2472	64.9453
2456	64.8191
2440	64.9559
2424	64.8622
2408	65.0764
2392	64.9129
2376	64.8374
2360	64.8985
2344	64.8516
2328	64.8972
2312	64.7289
2296	64.9304
2280	64.8952
2264	64.885
2248	64.7642
2232	64.8379
2216	64.8617
2200	64.844
2184	64.7136
2168	64.6991
2152	64.7404
2136	64.6972
2120	64.7631
2104	64.648
2088	64.6124
2072	64.581
2056	64.7633
2040	64.7016
2024	64.678
2008	64.6789
1992	64.7108
1976	64.6751
1960	64.4506
1944	64.7106
1928	64.7177
1912	64.6142
1896	64.6572
1880	64.5592
1864	64.6354
1848	64.5795
1832	64.5603
1816	64.5198
1800	64.4626
1784	64.5208
1768	64.3638
1752	64.1602
1736	63.45
1720	64.0622
1704	64.1192
1688	64.288
1672	64.2154
1656	64.2205
1640	64.2538
1624	64.2664
1608	64.201
1592	64.2102
1576	64.1937
1560	64.2999
1544	64.2093
1528	64.1593
1512	64.2611
1496	64.3955
1480	64.2626
1464	64.1251
1448	64.0064
1432	64.0882
1416	64.0899
1400	64.1026
1384	63.944
1368	64.0306
1352	63.9822
1336	64.0124
1320	63.8993
1304	63.893
1288	64.0004
1272	63.8455
1256	63.6743
1240	63.6987
1224	63.6412
1208	63.7293
1192	63.6727
1176	63.4842
1160	63.2339
1144	63.6993
1128	63.7261
1112	63.6033
1096	63.7488
1080	63.6709
1064	63.8918
1048	63.7506
1032	63.4382
1016	63.6537
1000	63.8815
984	 63.8491
968	 63.9008
952	 63.683
936	 63.7908
920	 63.9823
904	 63.7825
888	 63.6044
872	 63.763
856	 63.7717
840	 63.7802
824	 63.7273
808	 63.6263
792	 63.4357
776	 63.4914
760	 63.3802
744	 63.4299
728	 63.3622
712	 63.5717
696	 63.8169
680	 63.8692
664	 63.3836
648	 64.1369
632	 62.8571
616	 63.8927
600	 63.6711
584	 64.0897
568	 63.8876
552	 63.5086
536	 63.0656
520	 64.0178
504	 63.2029
488	 63.5473
472	 63.8121
456	 62.7792
440	 61.7226
424	 64.0465
408	 61.717
392	 55.8412
376	 78.7421
370	 61.9095

File: BZ1503107-1_t67.asc
PE IR       SPECTRUM    SPECTRUM    ASCII       PEDS        1.60
  -1
BZ2561~1.ASC
17/04/07
18:48:03.00
17/04/07
18:48:29.00
tln
$BZ1503107-1_t0067$<tbV0>[13.0,2.6,8.0,0.0,27,1,0]
27.028
64

2002,4.07
MIRTGS : RIGHTBACK : INTERNAL 2
MIR : ON : INTERNAL 2
OPTKBR

0.200000
8
8.000000
FILLER
RATIO
SPECTRUM
UNLOCKED 256

DOUBLE
64
COMBINED
1
0
0

0.002000
RATIO

1
0
TRUE
51149
0
LEFT NOT FITTED RIGHT NOT FITTED 0
NONE
NONE
15600
12
4.427000
51148
TRUE
1 0 8 72 0 0 0 0

15798

#HDR
-1
-1
#GR
µM
%T
2.38419e-05
0.0
2.000000
0.002000
12515
8
71.1623
34.9017
#DATA
2.000000	 63.6259
2.084000	 63.0695
2.168000	 63.4841
2.252000	 60.1434
2.336000	 63.2614
2.420000	 63.5673
2.504000	 63.5804
2.588000	 63.543
2.672000	 63.6731
2.756000	 63.7812
2.840000	 63.7388
2.924000	 63.5776
3.008000	 63.5823
3.092000	 63.5852
3.176000	 63.5505
3.260000	 63.7788
3.344000	 63.7003
3.428000	 63.6691
3.512000	 63.6233
3.596000	 63.7883
3.680000	 63.6496
3.764000	 63.6651
3.848000	 63.6057
3.932000	 63.6014
4.016000	 63.6911
4.100000	 63.6684
4.184000	 63.6042
4.268000	 63.5977
4.352000	 63.5512
4.436000	 63.5803
4.520000	 63.658
4.604000	 63.5325
4.688000	 63.5695
4.772000	 63.5481
4.856000	 63.3514
4.940000	 63.4574
5.024000	 63.4431
5.108000	 63.5006
5.192000	 63.6127
5.276000	 63.4338
5.359999	 63.4993
5.444000	 63.4172
5.528000	 63.4849
5.612000	 63.4547
5.696000	 63.4067
5.780000	 63.1104
5.864000	 63.3825
5.948000	 63.4104
6.032000	 63.2833
6.116000	 63.1827
6.200000	 63.4553
6.284000	 63.2528
6.368000	 63.2779
6.452000	 63.2582
6.536000	 63.234
6.620000	 63.3052
6.704000	 63.1489
6.788000	 63.2533
6.872000	 63.1882
6.956000	 63.1169
7.040000	 63.1468
7.124000	 63.186
7.208000	 63.1218
7.292000	 63.1307
7.376000	 62.9931
7.460000	 63.2005
7.544000	 63.29
7.628000	 63.0878
7.712000	 63.0938
7.796000	 63.0389
7.880000	 63.059
7.964000	 63.1045
8.048000	 63.055
8.132000	 63.0826
8.216000	 62.9323
8.300000	 63.0986
8.384000	 63.1046
8.468000	 63.0951
8.552000	 63.0325
8.635999	 62.9507
8.719999	 63.0348
8.804000	 63.1465
8.888000	 63.071
8.972000	 62.9636
9.056000	 62.8508
9.140000	 62.9059
9.224000	 62.9631
9.308000	 63.2241
9.391999	 63.0641
9.475999	 63.0406
9.560000	 63.0826
9.644000	 63.0021
9.728000	 63.1758
9.812000	 62.9842
9.896000	 62.9286
9.980000	 63.2066
10.064	63.0928
10.148	63.0403
10.232	63.1597
10.316	63.1168
10.4	63.1306
10.484	63.0678
10.568	62.9799
10.652	62.8994
10.736	62.9078
10.82	63.0481
10.904	62.913
10.988	62.9704
11.072	62.9358
11.156	63.037
11.24	63.3088
11.324	63.2666
11.408	63.1471
11.492	63.189
11.576	62.9492
11.66	62.9685
11.744	62.9681
11.828	63.0215
11.912	63.1909
11.996	63.0715
12.08	62.9956
12.164	63.1852
12.248	63.2564
12.332	63.0745
12.416	62.8885
12.5	62.8585
12.584	62.9758
12.668	62.9305
12.752	62.9961
12.836	63.1691
12.92	63.0118
13.004	62.7788
13.088	62.7445
13.172	62.8949
13.256	63.1144
13.34	63.1429
13.424	63.0517
13.508	62.999
13.592	62.9304
13.676	62.647
13.76	62.3783
13.844	62.4359
13.928	62.6815
14.012	62.8432
14.096	62.4592
14.18	61.8818
14.264	61.9753
14.348	62.207
14.432	62.5975
14.516	63.1261
14.6	63.215
14.684	63.2861
14.768	63.2419
14.852	62.701
14.936	61.9928
15.02	61.7242
15.104	62.2287
15.188	62.6427
15.272	62.5162
15.356	62.6363
15.44	62.9488
15.524	62.8112
15.608	62.3485
15.692	62.05
15.776	62.1747
15.86	62.4274
15.944	62.3577
16.028	62.1855
16.112	62.3737
16.196	62.8128
16.28	63.0924
16.364	63.1302
16.448	63.2089
16.532	63.4362
16.616	63.4396
16.7	62.9513
16.784	62.3126
16.868	61.9389
16.952	61.8686
17.036	62.0722
17.12	62.5811
17.204	63.2121
17.288	63.6218
17.372	63.6566
17.456	63.4382
17.54	63.1799
17.624	62.9944
17.708	62.8612
17.792	62.7451
17.876	62.683
17.96	62.7421
18.044	62.9139
18.128	63.1035
18.212	63.2123
18.296	63.2104
18.38	63.1485
18.464	63.0811
18.548	63.0116
18.632	62.9152
18.716	62.7768
18.8	62.6015
18.884	62.4351
18.968	62.3523
19.052	62.3879
19.136	62.4834
19.22	62.5387
19.304	62.5231
19.388	62.4922
19.472	62.5061
19.556	62.577
19.64	62.6855
19.724	62.7938
19.808	62.8499
19.892	62.8248
19.976	62.7601
20.06	62.7585
20.144	62.8862
20.228	63.1005
20.312	63.2913
20.396	63.3902
20.48	63.4172
20.564	63.4282
20.648	63.4488
20.732	63.4575
20.816	63.4101
20.9	63.2735
20.984	63.0445
21.068	62.7558
21.152	62.4804
21.236	62.3127
21.32	62.333
21.404	62.5534
21.488	62.9014
21.572	63.2486
21.656	63.4808
21.74	63.5487
21.824	63.4759
21.908	63.3328
21.992	63.1882
22.076	63.0801
22.16	63.0171
22.244	62.9794
22.328	62.9324
22.412	62.8417
22.496	62.6878
22.58	62.4652
22.664	62.1854
22.748	61.8701
22.832	61.5308
22.916	61.1822
23	60.8531
23.084	60.5911
23.168	60.4802
23.252	60.6065
23.336	61.0105
23.42	61.6343
23.504	62.3139
23.588	62.834
23.672	63.025
23.756	62.8355
23.84	62.3714
23.924	61.8757
24.008	61.6301
24.092	61.8517
24.176	62.6077
24.26	63.7886
24.344	65.12
24.428	66.2739
24.512	66.9527
24.596	67.0083
24.68	66.4908
24.764	65.6321
24.848	64.7064
24.932	63.9325
25.016	63.366
25.1	62.8896
25.184	62.2894
25.268	61.4113
25.352	60.2683
25.436	59.0595
25.52	58.0901
25.604	57.6157
25.688	57.7076
25.772	58.175
25.856	58.6475
25.94	58.7309
26.024	58.1531
26.108	56.8827
26.192	55.0973
26.276	53.0621
26.36	51.0214
26.444	49.0731
26.528	47.1604
26.612	45.1548
26.696	42.9587
26.78	40.6047
26.864	38.2496
26.948	36.1898
27.028	34.9017

File: BZ1503107-1_t67_cm-1.asc
PE IR       SPECTRUM    SPECTRUM    ASCII       PEDS        1.60
  -1
BZ6F21~1.ASC
17/04/07
18:48:03.00
17/04/07
18:48:03.00
tln
$BZ1503107-1_t0067$<tbV0>[13.0,2.6,8.0,0.0,27,1,0]
370
64

2002,4.07
MIRTGS : RIGHTBACK : INTERNAL 2
MIR : ON : INTERNAL 2
OPTKBR

0.200000
8
8.000000
FILLER
RATIO
SPECTRUM
UNLOCKED 256

DOUBLE
64
COMBINED
1
0
0

1.000000
RATIO

1
0
TRUE
51149
0
LEFT NOT FITTED RIGHT NOT FITTED 0
NONE
NONE
15600
12
4.427000
51148
TRUE
1 0 8 72 0 0 0 0

15798

#HDR
-1
-1
#GR
CM-1
%T
2.38419e-05
0.0
5000
-1.000000
4631
8
72.4642
34.9017
#DATA
5000	63.6259
4984	63.4652
4968	63.0872
4952	62.9689
4936	62.4466
4920	62.3454
4904	62.924
4888	63.3577
4872	63.3537
4856	62.7695
4840	63.3565
4824	63.0986
4808	63.2306
4792	63.3913
4776	63.2253
4760	63.1343
4744	63.2942
4728	63.3146
4712	63.0784
4696	63.3311
4680	63.0809
4664	63.2906
4648	63.0219
4632	63.1804
4616	63.3
4600	63.3124
4584	63.4179
4568	63.4641
4552	63.0586
4536	62.899
4520	62.9039
4504	63.124
4488	63.2032
4472	62.7267
4456	61.5639
4440	60.1434
4424	66.0445
4408	69.17
4392	63.2987
4376	62.6676
4360	63.5024
4344	63.1339
4328	63.0116
4312	62.9294
4296	63.2472
4280	63.2634
4264	63.3089
4248	63.2574
4232	62.8961
4216	63.2992
4200	63.5354
4184	63.286
4168	63.4048
4152	63.3828
4136	63.4093
4120	63.5857
4104	63.5601
4088	63.565
4072	63.6708
4056	63.5838
4040	63.6155
4024	63.7229
4008	63.6883
3992	63.6067
3976	63.5637
3960	63.6803
3944	63.5405
3928	63.5449
3912	63.4724
3896	63.7106
3880	63.4284
3864	63.5429
3848	63.3248
3832	63.4925
3816	63.6919
3800	63.4146
3784	63.7188
3768	63.6809
3752	63.3443
3736	63.5722
3720	63.3996
3704	63.6585
3688	63.6453
3672	63.681
3656	63.6837
3640	63.797
3624	63.6779
3608	63.7073
3592	63.4926
3576	63.4697
3560	63.7291
3544	63.473
3528	63.7469
3512	63.7327
3496	63.3655
3480	63.6974
3464	63.6691
3448	63.6823
3432	63.5178
3416	63.6328
3400	63.6263
3384	63.5945
3368	63.7237
3352	63.7943
3336	63.5904
3320	63.6465
3304	63.579
3288	63.5875
3272	63.396
3256	63.5532
3240	63.5448
3224	63.6912
3208	63.601
3192	63.6346
3176	63.7067
3160	63.6376
3144	63.5653
3128	63.576
3112	63.8221
3096	63.4423
3080	63.6734
3064	63.807
3048	63.7687
3032	63.6258
3016	63.6507
3000	63.6287
2984	63.6993
2968	63.3991
2952	63.5286
2936	63.5262
2920	63.6549
2904	63.6371
2888	63.544
2872	63.7061
2856	63.7091
2840	63.6836
2824	63.5757
2808	63.7228
2792	63.5893
2776	63.7476
2760	63.7472
2744	63.5815
2728	63.7568
2712	63.6626
2696	63.6298
2680	63.7348
2664	63.6367
2648	63.6605
2632	63.6014
2616	63.5256
2600	63.6233
2584	63.5594
2568	63.5988
2552	63.5641
2536	63.6199
2520	63.5553
2504	63.6584
2488	63.7061
2472	63.6552
2456	63.7501
2440	63.7011
2424	63.7358
2408	63.6866
2392	63.5829
2376	63.7111
2360	63.6157
2344	63.595
2328	63.6217
2312	63.753
2296	63.5447
2280	63.6155
2264	63.6561
2248	63.6007
2232	63.6363
2216	63.6351
2200	63.571
2184	63.5754
2168	63.5318
2152	63.6156
2136	63.5567
2120	63.4838
2104	63.5508
2088	63.5023
2072	63.6094
2056	63.3832
2040	63.5156
2024	63.4638
2008	63.4724
1992	63.4293
1976	63.422
1960	63.4898
1944	63.4173
1928	63.5954
1912	63.5736
1896	63.4303
1880	63.4011
1864	63.4923
1848	63.4446
1832	63.3482
1816	63.4897
1800	63.4745
1784	63.4794
1768	63.4654
1752	63.3124
1736	63.0783
1720	63.2257
1704	63.3916
1688	63.4179
1672	63.3851
1656	63.2484
1640	63.2173
1624	63.3814
1608	63.4094
1592	63.2551
1576	63.3031
1560	63.3467
1544	63.338
1528	63.2213
1512	63.3157
1496	63.1632
1480	63.4315
1464	63.0767
1448	63.1764
1432	63.1171
1416	63.1444
1400	63.1593
1384	63.1071
1368	63.1556
1352	63.0101
1336	63.2442
1320	63.2796
1304	63.1058
1288	63.1441
1272	63.033
1256	63.0963
1240	63.0676
1224	63.0904
1208	63.0955
1192	63.0904
1176	63.1154
1160	62.91
1144	63.11
1128	63.0048
1112	62.9042
1096	62.9107
1080	63.0684
1064	63.0468
1048	63.074
1032	63.1214
1016	62.9413
1000	63.1865
984	 63.0464
968	 63.1191
952	 63.0456
936	 62.8412
920	 62.934
904	 62.9264
888	 63.3401
872	 63.2021
856	 62.9991
840	 63.1869
824	 63.105
808	 62.9673
792	 62.9705
776	 63.1193
760	 62.8535
744	 63.0323
728	 62.4287
712	 62.777
696	 62.2637
680	 63.313
664	 61.8974
648	 62.9332
632	 62.3377
616	 62.9748
600	 63.1931
584	 62.6055
568	 63.0284
552	 63.0795
536	 62.8792
520	 62.5402
504	 62.8493
488	 63.4186
472	 62.3929
456	 63.2932
440	 61.9505
424	 62.8202
408	 66.9427
392	 58.1797
376	 45.5573
370	 34.9017

File: BZ1503107-1_t68.asc
PE IR       SPECTRUM    SPECTRUM    ASCII       PEDS        1.60
  -1
BZ2961~1.ASC
17/04/07
18:52:40.00
17/04/07
18:53:06.00
tln
$BZ1503107-1_t0068$<tbV0>[10.4,2.6,8.0,0.0,27,1,0]
27.028
64

2002,4.07
MIRTGS : RIGHTBACK : INTERNAL 2
MIR : ON : INTERNAL 2
OPTKBR

0.200000
8
8.000000
FILLER
RATIO
SPECTRUM
UNLOCKED 256

DOUBLE
64
COMBINED
1
0
0

0.002000
RATIO

1
0
TRUE
51149
0
LEFT NOT FITTED RIGHT NOT FITTED 0
NONE
NONE
15600
12
4.427000
51148
TRUE
1 0 8 72 0 0 0 0

15798

#HDR
-1
-1
#GR
µM
%T
2.38419e-05
0.0
2.000000
0.002000
12515
8
79.9162
51.4777
#DATA
2.000000	 65.2046
2.084000	 64.9096
2.168000	 64.8629
2.252000	 64.5778
2.336000	 64.8494
2.420000	 65.043
2.504000	 64.9869
2.588000	 65.1792
2.672000	 65.1175
2.756000	 65.1712
2.840000	 64.9803
2.924000	 64.9347
3.008000	 65.0476
3.092000	 65.0354
3.176000	 65.0647
3.260000	 65.037
3.344000	 65.0416
3.428000	 64.8677
3.512000	 64.7902
3.596000	 64.9539
3.680000	 64.9882
3.764000	 64.9213
3.848000	 64.7367
3.932000	 64.8376
4.016000	 64.8077
4.100000	 64.7361
4.184000	 64.6829
4.268000	 64.7348
4.352000	 64.6239
4.436000	 64.7197
4.520000	 64.6297
4.604000	 64.5993
4.688000	 64.5775
4.772000	 64.4968
4.856000	 64.5052
4.940000	 64.4548
5.024000	 64.4093
5.108000	 64.536
5.192000	 64.4354
5.276000	 64.3701
5.359999	 64.3099
5.444000	 64.2207
5.528000	 64.4793
5.612000	 64.3236
5.696000	 64.3101
5.780000	 64.1154
5.864000	 64.2265
5.948000	 64.2533
6.032000	 64.1027
6.116000	 64.065
6.200000	 64.1531
6.284000	 64.0205
6.368000	 64.0449
6.452000	 63.8783
6.536000	 63.9955
6.620000	 64.0406
6.704000	 63.9884
6.788000	 63.9184
6.872000	 64.0515
6.956000	 63.949
7.040000	 64.1038
7.124000	 63.8826
7.208000	 63.9168
7.292000	 63.9303
7.376000	 63.7922
7.460000	 63.9662
7.544000	 63.9232
7.628000	 63.8839
7.712000	 63.9091
7.796000	 63.6132
7.880000	 63.6564
7.964000	 63.8365
8.048000	 63.8861
8.132000	 63.7699
8.216000	 63.7151
8.300000	 63.5676
8.384000	 63.6257
8.468000	 63.5902
8.552000	 63.5976
8.635999	 63.5372
8.719999	 63.6694
8.804000	 63.6036
8.888000	 63.65
8.972000	 63.6141
9.056000	 63.6058
9.140000	 63.3771
9.224000	 63.5121
9.308000	 63.7435
9.391999	 63.565
9.475999	 63.4755
9.560000	 63.4458
9.644000	 63.4683
9.728000	 63.4828
9.812000	 63.5344
9.896000	 63.4611
9.980000	 63.616
10.064	63.5382
10.148	63.6239
10.232	63.5826
10.316	63.4613
10.4	63.6266
10.484	63.6785
10.568	63.4898
10.652	63.6398
10.736	63.6173
10.82	63.7642
10.904	63.7816
10.988	63.5926
11.072	63.4245
11.156	63.5183
11.24	63.5636
11.324	63.4968
11.408	63.6082
11.492	63.7076
11.576	63.5675
11.66	63.6025
11.744	63.5385
11.828	63.378
11.912	63.4511
11.996	63.4964
12.08	63.3649
12.164	63.5766
12.248	63.7147
12.332	63.7066
12.416	63.717
12.5	63.724
12.584	63.5585
12.668	63.5374
12.752	63.5478
12.836	63.6476
12.92	63.4769
13.004	63.2505
13.088	63.3407
13.172	63.4711
13.256	63.6457
13.34	63.6728
13.424	63.4974
13.508	63.4571
13.592	63.3661
13.676	63.1448
13.76	63.0497
13.844	63.0369
13.928	63.0655
14.012	63.104
14.096	62.8326
14.18	62.6773
14.264	62.9086
14.348	63.1726
14.432	63.3613
14.516	63.2928
14.6	63.0804
14.684	63.209
14.768	63.4118
14.852	62.9957
14.936	62.2708
15.02	62.3544
15.104	63.3023
15.188	64.069
15.272	64.2036
15.356	63.9878
15.44	63.6542
15.524	63.3164
15.608	62.9814
15.692	62.5758
15.776	62.2136
15.86	62.0195
15.944	61.9026
16.028	61.8864
16.112	62.1367
16.196	62.5782
16.28	62.9388
16.364	63.1183
16.448	63.2775
16.532	63.533
16.616	63.6643
16.7	63.4195
16.784	62.9768
16.868	62.6999
16.952	62.6927
17.036	62.81
17.12	62.8948
17.204	62.9306
17.288	63.0393
17.372	63.2857
17.456	63.5352
17.54	63.6092
17.624	63.4991
17.708	63.3434
17.792	63.2564
17.876	63.2164
17.96	63.1241
18.044	62.9432
18.128	62.7638
18.212	62.7028
18.296	62.7704
18.38	62.8616
18.464	62.8584
18.548	62.7374
18.632	62.6088
18.716	62.5971
18.8	62.7164
18.884	62.8935
18.968	63.052
19.052	63.135
19.136	63.1279
19.22	63.094
19.304	63.1311
19.388	63.249
19.472	63.3297
19.556	63.2648
19.64	63.0945
19.724	62.9522
19.808	62.9087
19.892	62.938
19.976	62.9992
20.06	63.0885
20.144	63.1984
20.228	63.2781
20.312	63.2731
20.396	63.1978
20.48	63.1366
20.564	63.1538
20.648	63.2257
20.732	63.2647
20.816	63.2107
20.9	63.0842
20.984	62.9548
21.068	62.8758
21.152	62.8478
21.236	62.8474
21.32	62.861
21.404	62.8832
21.488	62.8897
21.572	62.8241
21.656	62.6347
21.74	62.3251
21.824	61.9711
21.908	61.6842
21.992	61.5392
22.076	61.5401
22.16	61.643
22.244	61.8027
22.328	62.0144
22.412	62.2911
22.496	62.6223
22.58	62.9381
22.664	63.1298
22.748	63.1046
22.832	62.8446
22.916	62.4196
23	61.9592
23.084	61.5937
23.168	61.4219
23.252	61.4859
23.336	61.7874
23.42	62.3119
23.504	63.021
23.588	63.8463
23.672	64.692
23.756	65.4441
23.84	66.0349
23.924	66.4644
24.008	66.7769
24.092	67.0163
24.176	67.1923
24.26	67.3038
24.344	67.3584
24.428	67.3804
24.512	67.4099
24.596	67.4744
24.68	67.5604
24.764	67.6021
24.848	67.5256
24.932	67.2365
25.016	66.6551
25.1	65.7618
25.184	64.5934
25.268	63.2443
25.352	61.8399
25.436	60.6074
25.52	59.7799
25.604	59.4703
25.688	59.6607
25.772	60.1425
25.856	60.569
25.94	60.6233
26.024	60.1262
26.108	59.1157
26.192	57.819
26.276	56.5814
26.36	55.7651
26.444	55.6156
26.528	56.2199
26.612	57.6115
26.696	59.7301
26.78	62.3968
26.864	65.3889
26.948	68.3625
27.028	70.6604

File: BZ1503107-1_t68_cm-1.asc
PE IR       SPECTRUM    SPECTRUM    ASCII       PEDS        1.60
  -1
BZ6031~1.ASC
17/04/07
18:52:40.00
17/04/07
18:52:40.00
tln
$BZ1503107-1_t0068$<tbV0>[10.4,2.6,8.0,0.0,27,1,0]
370
64

2002,4.07
MIRTGS : RIGHTBACK : INTERNAL 2
MIR : ON : INTERNAL 2
OPTKBR

0.200000
8
8.000000
FILLER
RATIO
SPECTRUM
UNLOCKED 256

DOUBLE
64
COMBINED
1
0
0

1.000000
RATIO

1
0
TRUE
51149
0
LEFT NOT FITTED RIGHT NOT FITTED 0
NONE
NONE
15600
12
4.427000
51148
TRUE
1 0 8 72 0 0 0 0

15798

#HDR
-1
-1
#GR
CM-1
%T
2.38419e-05
0.0
5000
-1.000000
4631
8
80.1269
50.4947
#DATA
5000	65.2046
4984	64.9664
4968	64.6374
4952	64.6173
4936	64.6473
4920	64.9829
4904	64.8147
4888	65.0018
4872	64.9509
4856	64.6805
4840	65.2917
4824	64.4839
4808	65.1548
4792	64.5275
4776	64.7574
4760	64.6865
4744	65.0672
4728	65.1834
4712	64.7609
4696	65.3495
4680	64.8886
4664	64.9094
4648	64.7446
4632	65.3469
4616	64.8893
4600	65.0099
4584	64.6173
4568	64.8852
4552	64.5266
4536	64.8693
4520	64.7945
4504	64.8758
4488	64.6222
4472	63.9842
4456	64.7494
4440	64.6189
4424	50.7051
4408	78.6129
4392	64.7523
4376	64.975
4360	64.8187
4344	64.9713
4328	64.3888
4312	64.6735
4296	64.5925
4280	64.8316
4264	64.5517
4248	64.9066
4232	64.8352
4216	64.8555
4200	64.8178
4184	64.9919
4168	65.1869
4152	65.0043
4136	64.7639
4120	65.0819
4104	65.2195
4088	65.1374
4072	64.9228
4056	65.2061
4040	65.1444
4024	65.0586
4008	65.1766
3992	64.9991
3976	65.2005
3960	65.1149
3944	65.1446
3928	64.6755
3912	65.0981
3896	65.2458
3880	65.1321
3864	65.1791
3848	64.985
3832	64.8633
3816	65.0812
3800	64.9818
3784	65.342
3768	65.0094
3752	65.1499
3736	65.1385
3720	65.1598
3704	65.2064
3688	64.9791
3672	65.1784
3656	65.1424
3640	65.2797
3624	65.0618
3608	65.175
3592	65.1131
3576	65.1617
3560	65.1129
3544	65.1354
3528	65.0622
3512	65.0914
3496	65.1065
3480	65.155
3464	65.0941
3448	65.1802
3432	64.9686
3416	65.0249
3400	64.9695
3384	65.061
3368	65.0448
3352	65.1393
3336	65.1966
3320	65.0721
3304	65.0931
3288	65.0492
3272	64.9451
3256	64.9372
3240	64.9705
3224	65.0257
3208	65.1498
3192	65.0654
3176	64.9532
3160	65.1086
3144	65.0768
3128	65.004
3112	64.9053
3096	64.8639
3080	64.967
3064	65.0975
3048	64.8823
3032	64.882
3016	64.9564
3000	65.066
2984	64.9358
2968	64.923
2952	64.8289
2936	64.8742
2920	64.866
2904	64.8243
2888	64.8221
2872	64.8734
2856	64.8651
2840	64.7541
2824	64.7783
2808	64.9844
2792	64.895
2776	65.0326
2760	64.9557
2744	64.9504
2728	64.9005
2712	65.0565
2696	64.9092
2680	65.0788
2664	64.8741
2648	64.9453
2632	64.8334
2616	64.8359
2600	64.7348
2584	64.8031
2568	64.72
2552	64.8514
2536	64.774
2520	64.8612
2504	64.8369
2488	64.7961
2472	64.837
2456	64.7798
2440	64.7393
2424	64.7244
2408	64.9085
2392	64.6876
2376	64.7363
2360	64.7397
2344	64.7302
2328	64.7094
2312	64.7651
2296	64.6218
2280	64.7
2264	64.7293
2248	64.6074
2232	64.6088
2216	64.6352
2200	64.5921
2184	64.6683
2168	64.5582
2152	64.5368
2136	64.5858
2120	64.509
2104	64.5109
2088	64.5559
2072	64.4999
2056	64.4599
2040	64.4221
2024	64.4564
2008	64.5042
1992	64.3919
1976	64.4974
1960	64.5253
1944	64.3843
1928	64.45
1912	64.5365
1896	64.3661
1880	64.4918
1864	64.3114
1848	64.3529
1832	64.2505
1816	64.4353
1800	64.3788
1784	64.3236
1768	64.3842
1752	64.2314
1736	64.0247
1720	64.1025
1704	64.2246
1688	64.2569
1672	64.1292
1656	64.0991
1640	64.091
1624	64.2482
1608	64.079
1592	64.0192
1576	64.0371
1560	64.0584
1544	64.025
1528	64.0073
1512	64.049
1496	63.858
1480	63.9875
1464	63.8194
1448	64.0492
1432	64.0682
1416	64.0354
1400	63.9166
1384	63.8513
1368	63.9136
1352	63.831
1336	64.0008
1320	63.9604
1304	63.8487
1288	63.6686
1272	63.6406
1256	63.8314
1240	63.8558
1224	63.7449
1208	63.6231
1192	63.6022
1176	63.5614
1160	63.4968
1144	63.6969
1128	63.5875
1112	63.5829
1096	63.4145
1080	63.6038
1064	63.5409
1048	63.4622
1032	63.4863
1016	63.5164
1000	63.5442
984	 63.6208
968	 63.4831
952	 63.6061
936	 63.6127
920	 63.7717
904	 63.4237
888	 63.5306
872	 63.6967
856	 63.6109
840	 63.4319
824	 63.4922
808	 63.6889
792	 63.5382
776	 63.5897
760	 63.4485
744	 63.4759
728	 63.0589
712	 63.0305
696	 63.2263
680	 63.2868
664	 62.7601
648	 63.6873
632	 62.0877
616	 62.7635
600	 63.5604
584	 62.8967
568	 63.5328
552	 62.7842
536	 62.5898
520	 63.0932
504	 62.9147
488	 63.1337
472	 62.8455
456	 61.6314
440	 63.1337
424	 63.8151
408	 67.4087
392	 59.8502
376	 57.2824
370	 70.6604