Folder: Masteroppgave/Bakgrunnsmateriale/MATLAB/FTIR/ftir_data/subAa/Mapping_121 (part 4)

File: BZ1503107-1_t01_cm-1.asc
PE IR       SPECTRUM    SPECTRUM    ASCII       PEDS        1.60
  -1
BZ1503~3.ASC
17/04/07
13:20:30.00
17/04/07
13:20:30.00
tln
$BZ1503107-1_t0001$<tbV0>[13.0,-13.0,8.0,0.0,27,1,0]
370
64

2002,4.07
MIRTGS : RIGHTBACK : INTERNAL 2
MIR : ON : INTERNAL 2
OPTKBR

0.200000
8
8.000000
FILLER
RATIO
SPECTRUM
UNLOCKED 256

DOUBLE
64
COMBINED
1
0
0

1.000000
RATIO

1
0
TRUE
51149
0
LEFT NOT FITTED RIGHT NOT FITTED 0
NONE
NONE
15600
12
4.427000
51148
TRUE
1 0 8 72 0 0 0 0

15798

#HDR
-1
-1
#GR
CM-1
%T
2.38419e-05
0.0
5000
-1.000000
4631
8
109.6
41.8679
#DATA
5000	65.3366
4984	64.5979
4968	64.3287
4952	65.0338
4936	64.8546
4920	65.3629
4904	65.0283
4888	64.5375
4872	64.1431
4856	64.2826
4840	65.5128
4824	63.7036
4808	65.4245
4792	64.2516
4776	65.3901
4760	64.9213
4744	64.6391
4728	64.6293
4712	64.2423
4696	64.4834
4680	64.8527
4664	64.9813
4648	64.9414
4632	64.9333
4616	64.6528
4600	65.3401
4584	65.6537
4568	65.241
4552	64.7901
4536	65.0983
4520	64.9369
4504	65.6779
4488	67.7379
4472	62.5103
4456	58.9083
4440	65.7604
4424	65.3414
4408	65.9009
4392	65.2709
4376	65.0345
4360	65.0255
4344	65.3696
4328	64.9877
4312	65.3794
4296	65.0169
4280	65.0591
4264	65.0306
4248	65.0322
4232	65.2667
4216	64.9779
4200	65.1531
4184	65.1557
4168	64.7509
4152	64.8537
4136	64.9303
4120	64.9854
4104	65.1808
4088	65.3153
4072	65.2694
4056	65.0735
4040	65.034
4024	64.899
4008	65.1112
3992	65.0142
3976	65.2442
3960	65.0978
3944	65.5681
3928	65.1638
3912	65.1501
3896	65.1967
3880	65.0788
3864	65.0453
3848	65.1539
3832	65.2929
3816	65.0486
3800	65.2665
3784	65.0874
3768	65.0506
3752	65.2855
3736	65.2924
3720	65.1728
3704	65.0913
3688	65.1016
3672	65.5644
3656	65.153
3640	65.0956
3624	65.3239
3608	65.1866
3592	65.1443
3576	65.2285
3560	65.0001
3544	64.9982
3528	65.0423
3512	65.1344
3496	65.0365
3480	65.1145
3464	65.0327
3448	65.0621
3432	65.328
3416	65.195
3400	64.9707
3384	65.1309
3368	65.1345
3352	64.915
3336	65.1979
3320	65.2506
3304	65.0617
3288	65.0103
3272	65.0439
3256	65.019
3240	64.993
3224	65.0525
3208	65.1381
3192	65.0569
3176	65.0285
3160	65.1148
3144	65.0635
3128	65.2155
3112	65.128
3096	65.1999
3080	65.133
3064	65.2108
3048	65.1155
3032	65.2068
3016	65.1721
3000	65.0868
2984	65.2277
2968	65.1475
2952	65.1343
2936	64.9368
2920	64.8575
2904	64.9528
2888	65.057
2872	65.0454
2856	64.9829
2840	65.0358
2824	65.0572
2808	65.0569
2792	65.0312
2776	65.1074
2760	65.0721
2744	65.1246
2728	65.0842
2712	65.082
2696	65.125
2680	65.1419
2664	64.8967
2648	65.1265
2632	65.1021
2616	64.9726
2600	64.9802
2584	65.1191
2568	65.0835
2552	65.027
2536	65.0694
2520	65.1101
2504	65.0058
2488	65.0633
2472	65.0644
2456	65.0262
2440	65.0091
2424	64.9782
2408	65.0647
2392	65.1108
2376	65.0573
2360	65.0717
2344	65.0271
2328	64.8868
2312	64.972
2296	64.9293
2280	64.9138
2264	65.0196
2248	64.9524
2232	64.8616
2216	64.8684
2200	64.9254
2184	64.9032
2168	65.0945
2152	64.665
2136	64.977
2120	64.9444
2104	64.8215
2088	64.9355
2072	64.8742
2056	64.9133
2040	64.7933
2024	64.9523
2008	64.9605
1992	64.8212
1976	64.88
1960	64.9313
1944	64.8475
1928	64.8187
1912	64.8472
1896	64.9172
1880	64.7922
1864	64.9103
1848	64.8461
1832	64.7655
1816	64.948
1800	64.783
1784	64.7502
1768	64.8089
1752	64.6638
1736	64.6415
1720	64.6007
1704	64.7435
1688	64.5388
1672	64.6993
1656	64.718
1640	64.5475
1624	64.6873
1608	64.6002
1592	64.6001
1576	64.7858
1560	64.6843
1544	64.6253
1528	64.6335
1512	64.5847
1496	64.7485
1480	64.6668
1464	64.5945
1448	64.5458
1432	64.7139
1416	64.4794
1400	64.5309
1384	64.5183
1368	64.5684
1352	64.5111
1336	64.6291
1320	64.4141
1304	64.4
1288	64.5041
1272	64.3491
1256	64.2921
1240	64.1863
1224	64.3833
1208	64.3301
1192	64.3131
1176	64.1408
1160	64.3256
1144	64.132
1128	64.4162
1112	64.2002
1096	64.4091
1080	64.3871
1064	64.2494
1048	64.2186
1032	64.3136
1016	64.1458
1000	64.3376
984	 64.2698
968	 64.2524
952	 64.2998
936	 64.1911
920	 64.4055
904	 64.0976
888	 64.327
872	 64.2815
856	 64.1825
840	 64.3981
824	 64.1284
808	 64.1895
792	 64.2424
776	 64.348
760	 64.1042
744	 63.9797
728	 64.1309
712	 64.1124
696	 64.1065
680	 64.151
664	 64.137
648	 64.2478
632	 64.1686
616	 63.9766
600	 63.7863
584	 64.1206
568	 64.2176
552	 64.0429
536	 64.302
520	 64.5154
504	 64.5401
488	 64.6669
472	 64.3912
456	 63.6216
440	 64.0683
424	 63.925
408	 68.3642
392	 67.3865
376	 55.7326
370	 109.6

File: BZ1503107-1_t02.asc
PE IR       SPECTRUM    SPECTRUM    ASCII       PEDS        1.60
  -1
BZ1155~1.ASC
17/04/07
13:25:07.00
17/04/07
13:25:33.00
tln
$BZ1503107-1_t0002$<tbV0>[10.4,-13.0,8.0,0.0,27,1,0]
27.028
64

2002,4.07
MIRTGS : RIGHTBACK : INTERNAL 2
MIR : ON : INTERNAL 2
OPTKBR

0.200000
8
8.000000
FILLER
RATIO
SPECTRUM
UNLOCKED 256

DOUBLE
64
COMBINED
1
0
0

0.002000
RATIO

1
0
TRUE
51149
0
LEFT NOT FITTED RIGHT NOT FITTED 0
NONE
NONE
15600
12
4.427000
51148
TRUE
1 0 8 72 0 0 0 0

15798

#HDR
-1
-1
#GR
µM
%T
2.38419e-05
0.0
2.000000
0.002000
12515
8
69.6666
6.861902
#DATA
2.000000	 65.1864
2.084000	 65.3343
2.168000	 64.5598
2.252000	 65.8879
2.336000	 64.8928
2.420000	 65.1748
2.504000	 65.2117
2.588000	 65.0368
2.672000	 65.3659
2.756000	 65.3246
2.840000	 65.0592
2.924000	 65.2015
3.008000	 65.2492
3.092000	 65.0922
3.176000	 65.2731
3.260000	 65.0322
3.344000	 65.0503
3.428000	 65.1041
3.512000	 65.0368
3.596000	 65.1863
3.680000	 65.0709
3.764000	 65.0852
3.848000	 65.1017
3.932000	 65.015
4.016000	 64.9047
4.100000	 65.1033
4.184000	 64.927
4.268000	 65.0164
4.352000	 64.9146
4.436000	 64.9977
4.520000	 64.9937
4.604000	 64.9484
4.688000	 64.9412
4.772000	 64.9599
4.856000	 64.801
4.940000	 64.9205
5.024000	 64.8518
5.108000	 64.9435
5.192000	 64.8182
5.276000	 64.8905
5.359999	 64.9199
5.444000	 64.8419
5.528000	 64.8072
5.612000	 64.7434
5.696000	 64.7834
5.780000	 64.5522
5.864000	 64.6552
5.948000	 64.8453
6.032000	 64.7167
6.116000	 64.7481
6.200000	 64.6508
6.284000	 64.6944
6.368000	 64.675
6.452000	 64.6837
6.536000	 64.7139
6.620000	 64.6749
6.704000	 64.591
6.788000	 64.7437
6.872000	 64.5264
6.956000	 64.7113
7.040000	 64.5915
7.124000	 64.5171
7.208000	 64.4841
7.292000	 64.43
7.376000	 64.5595
7.460000	 64.5339
7.544000	 64.4918
7.628000	 64.3668
7.712000	 64.4803
7.796000	 64.4007
7.880000	 64.2663
7.964000	 64.3513
8.048000	 64.2363
8.132000	 64.3177
8.216000	 64.3916
8.300000	 64.44
8.384000	 64.4196
8.468000	 64.1816
8.552000	 64.348
8.635999	 64.3025
8.719999	 64.3202
8.804000	 64.3144
8.888000	 64.3489
8.972000	 64.4822
9.056000	 64.2497
9.140000	 64.482
9.224000	 64.4486
9.308000	 64.5104
9.391999	 64.1352
9.475999	 64.2094
9.560000	 64.1067
9.644000	 64.1486
9.728000	 64.1947
9.812000	 64.2136
9.896000	 64.1429
9.980000	 64.2356
10.064	64.3343
10.148	64.2019
10.232	63.979
10.316	64.1454
10.4	64.2776
10.484	64.2082
10.568	64.3976
10.652	64.3063
10.736	64.3543
10.82	64.3595
10.904	64.4289
10.988	64.4839
11.072	64.2953
11.156	64.3232
11.24	64.2317
11.324	64.2221
11.408	64.2632
11.492	64.1758
11.576	64.1491
11.66	64.1727
11.744	64.4504
11.828	64.555
11.912	64.2346
11.996	64.009
12.08	64.033
12.164	64.0718
12.248	64.1901
12.332	64.3652
12.416	64.3922
12.5	64.2628
12.584	64.3175
12.668	64.225
12.752	64.1885
12.836	64.2301
12.92	64.3541
13.004	64.4098
13.088	64.2036
13.172	64.0336
13.256	63.937
13.34	63.8682
13.424	63.9622
13.508	64.2141
13.592	64.2672
13.676	64.2372
13.76	64.3526
13.844	64.3577
13.928	64.2433
14.012	64.1981
14.096	64.2658
14.18	64.1938
14.264	64.0178
14.348	63.9013
14.432	63.9389
14.516	64.1711
14.6	64.2596
14.684	64.1294
14.768	64.0547
14.852	64.11
14.936	64.2068
15.02	64.2829
15.104	64.3803
15.188	64.3719
15.272	64.1612
15.356	64.0512
15.44	64.1593
15.524	64.2063
15.608	64.0997
15.692	64.0114
15.776	64.0622
15.86	64.2042
15.944	64.2814
16.028	64.2215
16.112	64.1235
16.196	64.1077
16.28	64.1619
16.364	64.1459
16.448	63.9779
16.532	63.7911
16.616	63.7658
16.7	63.8737
16.784	63.963
16.868	63.9928
16.952	64.0362
17.036	64.155
17.12	64.3396
17.204	64.5156
17.288	64.6023
17.372	64.538
17.456	64.3013
17.54	63.9794
17.624	63.7626
17.708	63.7825
17.792	63.9908
17.876	64.2417
17.96	64.4001
18.044	64.3891
18.128	64.2476
18.212	64.1069
18.296	64.0862
18.38	64.2337
18.464	64.5053
18.548	64.762
18.632	64.8508
18.716	64.7491
18.8	64.5968
18.884	64.5447
18.968	64.5929
19.052	64.6147
19.136	64.5398
19.22	64.4359
19.304	64.3974
19.388	64.4218
19.472	64.4387
19.556	64.4031
19.64	64.3334
19.724	64.2895
19.808	64.3251
19.892	64.4385
19.976	64.571
20.06	64.6487
20.144	64.6234
20.228	64.4922
20.312	64.2974
20.396	64.1036
20.48	63.9624
20.564	63.8906
20.648	63.8965
20.732	64.0104
20.816	64.2726
20.9	64.6689
20.984	65.0809
21.068	65.3256
21.152	65.2905
21.236	65.0352
21.32	64.7534
21.404	64.6209
21.488	64.6732
21.572	64.7977
21.656	64.8223
21.74	64.6484
21.824	64.3436
21.908	64.1003
21.992	64.0679
22.076	64.2259
22.16	64.384
22.244	64.3598
22.328	64.1348
22.412	63.8391
22.496	63.6422
22.58	63.5824
22.664	63.5508
22.748	63.3946
22.832	63.0733
22.916	62.6937
23	62.452
23.084	62.458
23.168	62.6341
23.252	62.7439
23.336	62.5048
23.42	61.7887
23.504	60.6842
23.588	59.5114
23.672	58.6785
23.756	58.5328
23.84	59.2624
23.924	60.8072
24.008	62.8734
24.092	64.9911
24.176	66.615
24.26	67.3487
24.344	67.0038
24.428	65.6529
24.512	63.6305
24.596	61.3522
24.68	59.1901
24.764	57.3818
24.848	56.0458
24.932	55.1423
25.016	54.4997
25.1	53.9228
25.184	53.2214
25.268	52.2751
25.352	51.049
25.436	49.5739
25.52	47.9127
25.604	46.1133
25.688	44.2754
25.772	42.4366
25.856	40.4852
25.94	37.9822
26.024	34.5022
26.108	29.9956
26.192	24.9656
26.276	20.0505
26.36	14.9438
26.444	10.1252
26.528	6.984092
26.612	8.683415
26.696	16.9408
26.78	30.2569
26.864	43.0535
26.948	49.1672
27.028	47.5534

File: BZ1503107-1_t02_cm-1.asc
PE IR       SPECTRUM    SPECTRUM    ASCII       PEDS        1.60
  -1
BZ6A22~1.ASC
17/04/07
13:25:07.00
17/04/07
13:25:07.00
tln
$BZ1503107-1_t0002$<tbV0>[10.4,-13.0,8.0,0.0,27,1,0]
370
64

2002,4.07
MIRTGS : RIGHTBACK : INTERNAL 2
MIR : ON : INTERNAL 2
OPTKBR

0.200000
8
8.000000
FILLER
RATIO
SPECTRUM
UNLOCKED 256

DOUBLE
64
COMBINED
1
0
0

1.000000
RATIO

1
0
TRUE
51149
0
LEFT NOT FITTED RIGHT NOT FITTED 0
NONE
NONE
15600
12
4.427000
51148
TRUE
1 0 8 72 0 0 0 0

15798

#HDR
-1
-1
#GR
CM-1
%T
2.38419e-05
0.0
5000
-1.000000
4631
8
69.7163
7.017636
#DATA
5000	65.1864
4984	64.7685
4968	64.5522
4952	64.6833
4936	65.4109
4920	64.3627
4904	64.2134
4888	64.2829
4872	62.0616
4856	65.3312
4840	63.9736
4824	64.5081
4808	64.2489
4792	65.2732
4776	64.3833
4760	64.9385
4744	64.7777
4728	64.569
4712	64.7777
4696	64.7253
4680	65.1799
4664	64.9887
4648	64.8395
4632	64.6526
4616	64.4844
4600	65.3534
4584	65.1367
4568	64.8419
4552	64.4639
4536	64.3836
4520	64.602
4504	65.0023
4488	67.7371
4472	67.5359
4456	52.4538
4440	65.8081
4424	65.4894
4408	65.2101
4392	65.0964
4376	64.6845
4360	65.2382
4344	65.1063
4328	64.9009
4312	65.1355
4296	64.8319
4280	64.8921
4264	64.7276
4248	65.3118
4232	65.2446
4216	65.1108
4200	65.0149
4184	65.044
4168	64.8684
4152	64.8961
4136	65.1125
4120	65.1962
4104	65.5013
4088	65.2831
4072	65.416
4056	65.0119
4040	65.0464
4024	65.1613
4008	65.3266
3992	65.2021
3976	65.0157
3960	64.919
3944	65.3468
3928	65.1061
3912	65.0939
3896	65.2083
3880	65.2468
3864	65.0369
3848	65.1265
3832	65.2449
3816	65.506
3800	65.162
3784	65.2569
3768	65.0827
3752	65.5368
3736	65.3415
3720	65.1975
3704	65.1962
3688	65.3446
3672	65.4099
3656	65.1834
3640	65.3383
3624	65.2426
3608	65.2229
3592	65.1566
3576	65.2089
3560	65.0989
3544	65.3258
3528	65.0565
3512	64.9434
3496	65.0836
3480	65.051
3464	65.0739
3448	64.9421
3432	65.3023
3416	65.2374
3400	65.1712
3384	65.1778
3368	65.2088
3352	64.9629
3336	65.129
3320	65.2839
3304	65.0628
3288	65.1822
3272	65.0523
3256	65.0678
3240	65.0749
3224	65.2565
3208	65.2247
3192	65.1912
3176	65.165
3160	65.3603
3144	65.1473
3128	65.1703
3112	65.0354
3096	64.9813
3080	65.1742
3064	65.0164
3048	65.2197
3032	65.133
3016	65.2869
3000	65.0256
2984	65.0968
2968	65.0444
2952	65.0824
2936	65.0597
2920	65.1314
2904	65.0006
2888	65.082
2872	65.141
2856	65.0562
2840	65.1374
2824	65.1191
2808	65.142
2792	65.063
2776	65.1454
2760	65.0505
2744	65.1257
2728	65.1095
2712	65.0345
2696	65.0994
2680	65.0493
2664	65.1616
2648	64.9147
2632	65.006
2616	64.9122
2600	65.0889
2584	65.0392
2568	65.0706
2552	65.156
2536	65.049
2520	64.9921
2504	64.9384
2488	64.9694
2472	65.0271
2456	64.973
2440	65.1061
2424	64.9694
2408	64.8938
2392	64.9271
2376	64.9979
2360	65.1209
2344	65.0312
2328	64.9185
2312	65.0659
2296	64.9319
2280	64.9513
2264	64.9497
2248	65.0729
2232	64.9252
2216	65.0048
2200	65.0508
2184	64.8387
2168	65.009
2152	64.9576
2136	64.8641
2120	65.0047
2104	64.9365
2088	64.9699
2072	64.9105
2056	64.8441
2040	64.9307
2024	64.9181
2008	65.004
1992	64.8288
1976	64.8834
1960	64.9716
1944	64.8487
1928	64.8205
1912	64.9031
1896	64.8778
1880	64.748
1864	64.9361
1848	64.8104
1832	64.8878
1816	64.8596
1800	64.7231
1784	64.7745
1768	64.6895
1752	64.7878
1736	64.6079
1720	64.6227
1704	64.7022
1688	64.7916
1672	64.8051
1656	64.6903
1640	64.7049
1624	64.702
1608	64.6912
1592	64.6872
1576	64.8386
1560	64.8273
1544	64.7451
1528	64.7065
1512	64.683
1496	64.6568
1480	64.6471
1464	64.5436
1448	64.5243
1432	64.7063
1416	64.619
1400	64.4881
1384	64.4753
1368	64.4881
1352	64.5349
1336	64.4802
1320	64.426
1304	64.3907
1288	64.4544
1272	64.314
1256	64.3502
1240	64.2433
1224	64.2792
1208	64.4732
1192	64.4244
1176	64.1603
1160	64.2968
1144	64.2716
1128	64.3925
1112	64.4456
1096	64.4219
1080	64.5256
1064	64.1487
1048	64.1465
1032	64.1754
1016	64.2156
1000	64.2773
984	 64.1506
968	 64.1776
952	 64.2568
936	 64.3142
920	 64.3478
904	 64.3048
888	 64.2135
872	 64.2038
856	 64.2225
840	 64.2692
824	 64.0461
808	 64.4262
792	 64.2829
776	 64.2956
760	 64.0531
744	 64.0095
728	 64.3191
712	 64.2231
696	 63.89
680	 64.0965
664	 64.328
648	 64.1472
632	 64.1394
616	 64.13
600	 63.8254
584	 64.3472
568	 63.7918
552	 64.2712
536	 64.8369
520	 64.4262
504	 64.3631
488	 63.948
472	 65.2027
456	 64.0682
440	 63.4499
424	 59.5501
408	 63.6877
392	 48.1148
376	 7.825207
370	 47.5534

File: BZ1503107-1_t03.asc
PE IR       SPECTRUM    SPECTRUM    ASCII       PEDS        1.60
  -1
BZ1555~1.ASC
17/04/07
13:29:44.00
17/04/07
13:30:10.00
tln
$BZ1503107-1_t0003$<tbV0>[7.8,-13.0,8.0,0.0,27,1,0]
27.028
64

2002,4.07
MIRTGS : RIGHTBACK : INTERNAL 2
MIR : ON : INTERNAL 2
OPTKBR

0.200000
8
8.000000
FILLER
RATIO
SPECTRUM
UNLOCKED 256

DOUBLE
64
COMBINED
1
0
0

0.002000
RATIO

1
0
TRUE
51149
0
LEFT NOT FITTED RIGHT NOT FITTED 0
NONE
NONE
15600
12
4.427000
51148
TRUE
1 0 8 72 0 0 0 0

15798

#HDR
-1
-1
#GR
µM
%T
2.38419e-05
0.0
2.000000
0.002000
12515
8
101.089
29.3808
#DATA
2.000000	 64.8863
2.084000	 65.5851
2.168000	 64.8745
2.252000	 65.7085
2.336000	 65.0818
2.420000	 64.991
2.504000	 65.1076
2.588000	 64.9271
2.672000	 65.2389
2.756000	 65.2554
2.840000	 64.9399
2.924000	 65.0481
3.008000	 65.0523
3.092000	 64.9112
3.176000	 65.0573
3.260000	 65.1805
3.344000	 65.0848
3.428000	 64.9075
3.512000	 65.0078
3.596000	 65.0944
3.680000	 64.9734
3.764000	 65.0788
3.848000	 65.0569
3.932000	 65.063
4.016000	 64.9629
4.100000	 64.9907
4.184000	 65.0067
4.268000	 64.8622
4.352000	 64.8924
4.436000	 64.9406
4.520000	 64.9665
4.604000	 64.9709
4.688000	 64.8002
4.772000	 64.8267
4.856000	 64.9167
4.940000	 64.8831
5.024000	 64.8231
5.108000	 64.8626
5.192000	 64.6961
5.276000	 64.7702
5.359999	 64.8131
5.444000	 64.798
5.528000	 64.8262
5.612000	 64.7323
5.696000	 64.6827
5.780000	 64.4174
5.864000	 64.6678
5.948000	 64.6678
6.032000	 64.7264
6.116000	 64.7641
6.200000	 64.5714
6.284000	 64.5562
6.368000	 64.5971
6.452000	 64.6301
6.536000	 64.5304
6.620000	 64.5945
6.704000	 64.6151
6.788000	 64.6344
6.872000	 64.5767
6.956000	 64.6339
7.040000	 64.6359
7.124000	 64.4954
7.208000	 64.3732
7.292000	 64.4018
7.376000	 64.5062
7.460000	 64.4615
7.544000	 64.3531
7.628000	 64.3452
7.712000	 64.3921
7.796000	 64.2725
7.880000	 64.3111
7.964000	 64.386
8.048000	 64.2742
8.132000	 64.2777
8.216000	 64.3165
8.300000	 64.3965
8.384000	 64.4117
8.468000	 64.2357
8.552000	 64.2608
8.635999	 64.1484
8.719999	 64.2395
8.804000	 64.4361
8.888000	 64.3999
8.972000	 64.254
9.056000	 64.1211
9.140000	 64.3724
9.224000	 64.3624
9.308000	 64.2815
9.391999	 64.0949
9.475999	 64.112
9.560000	 64.0565
9.644000	 64.211
9.728000	 64.3337
9.812000	 64.2156
9.896000	 64.2651
9.980000	 64.2475
10.064	64.2517
10.148	64.2815
10.232	64.1138
10.316	64.2629
10.4	64.304
10.484	64.3479
10.568	64.2797
10.652	64.3647
10.736	64.3249
10.82	64.3102
10.904	64.1949
10.988	64.2967
11.072	64.2412
11.156	64.261
11.24	64.2007
11.324	64.0639
11.408	64.1408
11.492	64.1396
11.576	64.0491
11.66	64.1315
11.744	64.2575
11.828	64.2417
11.912	64.2446
11.996	64.2924
12.08	64.3807
12.164	64.0374
12.248	63.9115
12.332	64.0972
12.416	64.052
12.5	64.0682
12.584	64.1694
12.668	64.2842
12.752	64.2618
12.836	64.2053
12.92	64.138
13.004	63.9404
13.088	63.9366
13.172	64.098
13.256	64.1052
13.34	64.0846
13.424	64.1022
13.508	64.1066
13.592	64.0297
13.676	63.9936
13.76	64.0617
13.844	64.0225
13.928	63.9351
14.012	63.9006
14.096	63.9127
14.18	63.9525
14.264	63.8979
14.348	63.6997
14.432	63.6691
14.516	63.8523
14.6	63.9527
14.684	63.9227
14.768	63.8477
14.852	63.9019
14.936	64.0927
15.02	64.1295
15.104	63.9759
15.188	63.7826
15.272	63.6588
15.356	63.7328
15.44	63.9412
15.524	64.0693
15.608	64.0374
15.692	63.913
15.776	63.8319
15.86	63.8989
15.944	64.0104
16.028	63.9959
16.112	63.9355
16.196	63.9881
16.28	64.0565
16.364	63.985
16.448	63.8599
16.532	63.8066
16.616	63.7815
16.7	63.7315
16.784	63.6951
16.868	63.6829
16.952	63.6178
17.036	63.4673
17.12	63.3356
17.204	63.3692
17.288	63.5959
17.372	63.8395
17.456	63.878
17.54	63.7395
17.624	63.7094
17.708	63.9524
17.792	64.3069
17.876	64.5219
17.96	64.5255
18.044	64.3894
18.128	64.2063
18.212	64.0423
18.296	63.9416
18.38	63.9473
18.464	64.0887
18.548	64.3335
18.632	64.5793
18.716	64.7221
18.8	64.7517
18.884	64.7547
18.968	64.7963
19.052	64.8196
19.136	64.7133
19.22	64.4579
19.304	64.1563
19.388	63.9272
19.472	63.8084
19.556	63.7458
19.64	63.6757
19.724	63.6231
19.808	63.6784
19.892	63.8821
19.976	64.1708
20.06	64.4456
20.144	64.6353
20.228	64.694
20.312	64.5938
20.396	64.3687
20.48	64.1486
20.564	64.1051
20.648	64.3137
20.732	64.6893
20.816	65.0641
20.9	65.3107
20.984	65.3866
21.068	65.2914
21.152	65.0285
21.236	64.6196
21.32	64.1361
21.404	63.6881
21.488	63.382
21.572	63.2687
21.656	63.3379
21.74	63.5398
21.824	63.8015
21.908	64.033
21.992	64.1408
22.076	64.0642
22.16	63.8182
22.244	63.4981
22.328	63.2319
22.412	63.1073
22.496	63.1069
22.58	63.1273
22.664	63.056
22.748	62.8458
22.832	62.5422
22.916	62.2559
23	62.0891
23.084	62.079
23.168	62.1719
23.252	62.2754
23.336	62.339
23.42	62.4185
23.504	62.6363
23.588	63.0932
23.672	63.763
23.756	64.4336
23.84	64.8334
23.924	64.7575
24.008	64.2077
24.092	63.422
24.176	62.7385
24.26	62.4331
24.344	62.5904
24.428	63.0808
24.512	63.6907
24.596	64.27
24.68	64.7883
24.764	65.3031
24.848	65.9446
24.932	66.6692
25.016	67.1811
25.1	67.1183
25.184	66.1603
25.268	64.226
25.352	61.53
25.436	58.4595
25.52	55.4311
25.604	52.7617
25.688	50.5186
25.772	48.6462
25.856	47.0588
25.94	45.9237
26.024	44.8712
26.108	42.542
26.192	38.2681
26.276	32.8791
26.36	29.5647
26.444	30.7517
26.528	36.9277
26.612	44.614
26.696	50.8671
26.78	55.9387
26.864	64.3607
26.948	80.7502
27.028	101.089

File: BZ1503107-1_t03_cm-1.asc
PE IR       SPECTRUM    SPECTRUM    ASCII       PEDS        1.60
  -1
BZ6B22~1.ASC
17/04/07
13:29:44.00
17/04/07
13:29:44.00
tln
$BZ1503107-1_t0003$<tbV0>[7.8,-13.0,8.0,0.0,27,1,0]
370
64

2002,4.07
MIRTGS : RIGHTBACK : INTERNAL 2
MIR : ON : INTERNAL 2
OPTKBR

0.200000
8
8.000000
FILLER
RATIO
SPECTRUM
UNLOCKED 256

DOUBLE
64
COMBINED
1
0
0

1.000000
RATIO

1
0
TRUE
51149
0
LEFT NOT FITTED RIGHT NOT FITTED 0
NONE
NONE
15600
12
4.427000
51148
TRUE
1 0 8 72 0 0 0 0

15798

#HDR
-1
-1
#GR
CM-1
%T
2.38419e-05
0.0
5000
-1.000000
4631
8
101.089
29.3866
#DATA
5000	64.8863
4984	64.5957
4968	64.5313
4952	64.1214
4936	65.064
4920	64.5233
4904	63.8613
4888	64.1517
4872	68.1323
4856	65.4213
4840	65.8336
4824	65.0887
4808	64.7104
4792	65.3724
4776	64.6719
4760	65.5664
4744	64.5156
4728	64.8379
4712	64.6789
4696	64.4742
4680	65.1303
4664	64.9979
4648	64.9761
4632	64.6945
4616	64.8441
4600	64.7145
4584	65.2429
4568	64.6293
4552	64.3011
4536	64.8636
4520	65.1556
4504	65.7107
4488	66.9543
4472	64.5459
4456	61.2737
4440	65.7064
4424	64.738
4408	65.2102
4392	65.5035
4376	64.9851
4360	64.5528
4344	65.315
4328	64.7797
4312	65.0952
4296	65.011
4280	65.0967
4264	65.1467
4248	65.0472
4232	65.0753
4216	64.9389
4200	64.9471
4184	64.8725
4168	65.2252
4152	65.1387
4136	65.0679
4120	65.1302
4104	65.3375
4088	65.3741
4072	65.224
4056	65.6259
4040	64.9732
4024	65.2789
4008	64.8392
3992	65.0426
3976	65.007
3960	64.7726
3944	65.2575
3928	64.8119
3912	65.0887
3896	65.2294
3880	65.0326
3864	64.9272
3848	65.2689
3832	65.16
3816	65.1668
3800	65.0634
3784	65.1182
3768	65.1507
3752	65.2807
3736	65.187
3720	65.1792
3704	65.1269
3688	65.3726
3672	65.4403
3656	65.0676
3640	65.1424
3624	65.3383
3608	65.1241
3592	65.1868
3576	65.161
3560	64.9684
3544	65.1617
3528	65.04
3512	64.9507
3496	64.96
3480	65.1282
3464	64.9544
3448	65.0476
3432	65.1189
3416	64.9638
3400	65.0482
3384	65.0589
3368	65.0337
3352	64.8865
3336	65.1779
3320	65.1624
3304	65.0956
3288	65.0591
3272	65.0505
3256	65.0004
3240	64.9247
3224	64.9503
3208	65.1662
3192	65.1328
3176	65.0214
3160	65.1488
3144	65.086
3128	64.9937
3112	64.8608
3096	65.151
3080	65.0177
3064	65.1907
3048	65.0166
3032	65.0249
3016	65.212
3000	65.2199
2984	65.0319
2968	64.9651
2952	64.9121
2936	65.0146
2920	64.9599
2904	65.0008
2888	64.9733
2872	65.0818
2856	65.0918
2840	65.0198
2824	64.9172
2808	65.0425
2792	65.0047
2776	65.0297
2760	65.0269
2744	65.0684
2728	65.0369
2712	64.9783
2696	65.1098
2680	64.9631
2664	65.0634
2648	64.9214
2632	65.0278
2616	64.9449
2600	65.0335
2584	65.0744
2568	65.144
2552	65.1248
2536	65.0916
2520	65.0387
2504	65.0379
2488	64.995
2472	64.8987
2456	64.8819
2440	65.0067
2424	64.9042
2408	64.9668
2392	64.9796
2376	64.9315
2360	64.9266
2344	64.8851
2328	64.9721
2312	64.9232
2296	64.9331
2280	64.8422
2264	64.9248
2248	64.9401
2232	64.7782
2216	64.9534
2200	64.9245
2184	64.8015
2168	65.0326
2152	64.7659
2136	64.7629
2120	64.9252
2104	64.7777
2088	64.7955
2072	64.7689
2056	64.8651
2040	64.8411
2024	64.8816
2008	64.8937
1992	64.8287
1976	64.8068
1960	64.8912
1944	64.9013
1928	64.6806
1912	64.8968
1896	64.7609
1880	64.829
1864	64.7875
1848	64.8131
1832	64.811
1816	64.8237
1800	64.8541
1784	64.7726
1768	64.6955
1752	64.7614
1736	64.4865
1720	64.6178
1704	64.7154
1688	64.6246
1672	64.7014
1656	64.7295
1640	64.6842
1624	64.625
1608	64.6728
1592	64.5518
1576	64.6862
1560	64.6219
1544	64.5977
1528	64.5087
1512	64.6005
1496	64.5725
1480	64.6313
1464	64.5869
1448	64.5862
1432	64.5945
1416	64.6119
1400	64.4801
1384	64.416
1368	64.4356
1352	64.4962
1336	64.3843
1320	64.3919
1304	64.3317
1288	64.4246
1272	64.2951
1256	64.3887
1240	64.2861
1224	64.373
1208	64.343
1192	64.4049
1176	64.2324
1160	64.1641
1144	64.2336
1128	64.4247
1112	64.2136
1096	64.3433
1080	64.3215
1064	64.0894
1048	64.1086
1032	64.3177
1016	64.1794
1000	64.2231
984	 64.2482
968	 64.2776
952	 64.3172
936	 64.3511
920	 64.2115
904	 64.2493
888	 64.1594
872	 64.1585
856	 64.1802
840	 64.2421
824	 64.201
808	 64.0823
792	 64.2359
776	 64.182
760	 64.0787
744	 64.1061
728	 64.0462
712	 63.9003
696	 63.6653
680	 63.9028
664	 64.0692
648	 63.9222
632	 63.852
616	 64.0302
600	 63.7529
584	 63.3331
568	 63.6929
552	 64.2326
536	 64.635
520	 64.4191
504	 63.7431
488	 64.1286
472	 64.8756
456	 64.0765
440	 62.9097
424	 63.072
408	 63.675
392	 55.7682
376	 43.233
370	 101.089