Folder: Masteroppgave/Bakgrunnsmateriale/MATLAB/FTIR/ftir_data/subAa/Mapping_121 (part 28)

File: BZ1503107-1_t61_cm-1.asc
PE IR       SPECTRUM    SPECTRUM    ASCII       PEDS        1.60
  -1
BZ6921~1.ASC
17/04/07
18:13:35.00
17/04/07
18:13:35.00
tln
$BZ1503107-1_t0061$<tbV0>[0.0,0.0,8.0,0.0,27,1,0]
370
64

2002,4.07
MIRTGS : RIGHTBACK : INTERNAL 2
MIR : ON : INTERNAL 2
OPTKBR

0.200000
8
8.000000
FILLER
RATIO
SPECTRUM
UNLOCKED 256

DOUBLE
64
COMBINED
1
0
0

1.000000
RATIO

1
0
TRUE
51149
0
LEFT NOT FITTED RIGHT NOT FITTED 0
NONE
NONE
15600
12
4.427000
51148
TRUE
1 0 8 72 0 0 0 0

15798

#HDR
-1
-1
#GR
CM-1
%T
2.38419e-05
0.0
5000
-1.000000
4631
8
74.5521
50.5408
#DATA
5000	64.7628
4984	65.1053
4968	66.9316
4952	61.7058
4936	64.067
4920	64.2675
4904	64.6344
4888	64.4383
4872	64.5339
4856	64.4447
4840	64.829
4824	64.3534
4808	64.7069
4792	64.7857
4776	65.0759
4760	64.7146
4744	64.5665
4728	64.6347
4712	64.5305
4696	65.278
4680	65.2966
4664	64.8047
4648	65.3908
4632	65.1802
4616	64.6044
4600	65.2053
4584	65.3277
4568	65.0411
4552	65.3115
4536	65.1842
4520	65.6314
4504	65.4508
4488	64.8317
4472	64.9046
4456	65.3067
4440	54.6667
4424	59.5782
4408	64.7936
4392	65.5266
4376	65.0562
4360	65.7257
4344	64.9861
4328	65.1645
4312	65.1586
4296	65.1713
4280	65.1065
4264	64.9495
4248	64.9206
4232	65.1953
4216	64.9872
4200	65.4003
4184	64.9325
4168	64.8179
4152	65.0265
4136	64.9092
4120	65.105
4104	64.904
4088	65.0984
4072	64.9961
4056	65.0648
4040	65.0537
4024	65.0387
4008	65.069
3992	65.0667
3976	65.1502
3960	65.015
3944	64.6575
3928	64.9818
3912	64.9871
3896	65.0258
3880	64.9577
3864	65.0805
3848	65.1768
3832	65.0517
3816	65.1147
3800	65.209
3784	65.0824
3768	65.2287
3752	64.946
3736	65.1092
3720	65.0901
3704	65.2771
3688	65.1022
3672	65.0284
3656	65.039
3640	65.1856
3624	64.9296
3608	65.0838
3592	65.1469
3576	65.1423
3560	64.9339
3544	65.0067
3528	65.1345
3512	65.218
3496	65.2335
3480	65.299
3464	65.0892
3448	65.0779
3432	65.0169
3416	65.1965
3400	64.9551
3384	64.998
3368	65.1119
3352	64.8109
3336	65.1566
3320	64.9066
3304	65.1024
3288	64.9455
3272	64.8538
3256	65.0736
3240	64.8603
3224	65.0285
3208	64.8956
3192	65.0515
3176	65.0334
3160	64.9582
3144	64.8051
3128	65.0503
3112	64.8705
3096	65.0712
3080	64.852
3064	64.9629
3048	64.8628
3032	64.8649
3016	65.0249
3000	65.0584
2984	64.9136
2968	64.8287
2952	64.8354
2936	64.9166
2920	64.8165
2904	64.8791
2888	64.9918
2872	64.8778
2856	64.9601
2840	64.9737
2824	64.9215
2808	64.965
2792	65.0134
2776	65.0283
2760	64.9405
2744	64.9047
2728	64.9611
2712	64.9507
2696	64.8853
2680	64.9743
2664	64.878
2648	64.8731
2632	64.9603
2616	64.9383
2600	64.9365
2584	64.9059
2568	64.7605
2552	64.7919
2536	64.7216
2520	64.8822
2504	64.7834
2488	64.8856
2472	64.7762
2456	64.7755
2440	64.9228
2424	64.9378
2408	64.7389
2392	64.8451
2376	64.6389
2360	64.7998
2344	64.6825
2328	64.8562
2312	64.698
2296	64.8293
2280	64.7053
2264	64.7879
2248	64.5924
2232	64.6268
2216	64.7504
2200	64.7496
2184	64.5952
2168	64.6065
2152	64.6826
2136	64.6046
2120	64.6077
2104	64.5677
2088	64.5976
2072	64.6853
2056	64.5732
2040	64.5457
2024	64.6166
2008	64.5957
1992	64.5476
1976	64.5797
1960	64.4782
1944	64.5311
1928	64.4922
1912	64.397
1896	64.4052
1880	64.3703
1864	64.4372
1848	64.4714
1832	64.451
1816	64.4501
1800	64.3947
1784	64.4133
1768	64.3974
1752	64.2395
1736	64.0786
1720	64.1828
1704	64.2063
1688	64.227
1672	64.2222
1656	64.2216
1640	64.1799
1624	64.1823
1608	64.171
1592	64.1342
1576	64.0333
1560	64.0981
1544	64.03
1528	64.0119
1512	64.1217
1496	64.1481
1480	64.1081
1464	64.0282
1448	63.8829
1432	64.0354
1416	64.0986
1400	63.9464
1384	63.9891
1368	63.9251
1352	63.8021
1336	63.8498
1320	63.8086
1304	63.8747
1288	63.8117
1272	63.7299
1256	63.8195
1240	63.6442
1224	63.7226
1208	63.7512
1192	63.6744
1176	63.7165
1160	63.5506
1144	63.5822
1128	63.6356
1112	63.6902
1096	63.7133
1080	63.5947
1064	63.6878
1048	63.5513
1032	63.4174
1016	63.6389
1000	63.6413
984	 63.7305
968	 63.6648
952	 63.4469
936	 63.5755
920	 63.61
904	 63.5879
888	 63.4605
872	 63.5703
856	 63.8564
840	 63.4887
824	 63.798
808	 63.4833
792	 63.5048
776	 63.1548
760	 63.4163
744	 63.4519
728	 63.2407
712	 63.2454
696	 63.0722
680	 63.4087
664	 63.1055
648	 63.3024
632	 62.8491
616	 63.6456
600	 63.1461
584	 62.6195
568	 63.2808
552	 62.5347
536	 62.3467
520	 62.492
504	 62.2668
488	 62.7394
472	 62.0661
456	 63.5368
440	 63.5539
424	 64.3354
408	 57.1328
392	 64.4786
376	 68.8502
370	 72.9014

File: BZ1503107-1_t62.asc
PE IR       SPECTRUM    SPECTRUM    ASCII       PEDS        1.60
  -1
BZ2151~1.ASC
17/04/07
18:18:13.00
17/04/07
18:18:39.00
tln
$BZ1503107-1_t0062$<tbV0>[-2.6,0.0,8.0,0.0,27,1,0]
27.028
64

2002,4.07
MIRTGS : RIGHTBACK : INTERNAL 2
MIR : ON : INTERNAL 2
OPTKBR

0.200000
8
8.000000
FILLER
RATIO
SPECTRUM
UNLOCKED 256

DOUBLE
64
COMBINED
1
0
0

0.002000
RATIO

1
0
TRUE
51149
0
LEFT NOT FITTED RIGHT NOT FITTED 0
NONE
NONE
15600
12
4.427000
51148
TRUE
1 0 8 72 0 0 0 0

15798

#HDR
-1
-1
#GR
µM
%T
2.38419e-05
0.0
2.000000
0.002000
12515
8
77.5
45.6467
#DATA
2.000000	 65.66
2.084000	 64.7456
2.168000	 64.6049
2.252000	 70.6082
2.336000	 64.8189
2.420000	 64.9321
2.504000	 65.0992
2.588000	 65.1343
2.672000	 65.1421
2.756000	 65.2088
2.840000	 65.114
2.924000	 65.0558
3.008000	 65.2294
3.092000	 64.9472
3.176000	 65.1343
3.260000	 64.9625
3.344000	 64.9359
3.428000	 65.0274
3.512000	 64.942
3.596000	 64.8838
3.680000	 64.8613
3.764000	 64.763
3.848000	 65.0078
3.932000	 64.8285
4.016000	 64.788
4.100000	 64.8721
4.184000	 64.7734
4.268000	 64.6966
4.352000	 64.7908
4.436000	 64.7526
4.520000	 64.5892
4.604000	 64.6198
4.688000	 64.5748
4.772000	 64.6181
4.856000	 64.5739
4.940000	 64.5265
5.024000	 64.5945
5.108000	 64.3227
5.192000	 64.444
5.276000	 64.4526
5.359999	 64.3465
5.444000	 64.4424
5.528000	 64.4566
5.612000	 64.2599
5.696000	 64.2212
5.780000	 64.0614
5.864000	 64.2197
5.948000	 64.0747
6.032000	 64.2252
6.116000	 64.1539
6.200000	 64.115
6.284000	 64.1052
6.368000	 64.0977
6.452000	 64.1188
6.536000	 64.0614
6.620000	 64.0218
6.704000	 64.1383
6.788000	 64.007
6.872000	 63.991
6.956000	 63.9693
7.040000	 64.1346
7.124000	 63.9285
7.208000	 64.0286
7.292000	 63.9357
7.376000	 63.9927
7.460000	 63.8794
7.544000	 63.8952
7.628000	 63.7955
7.712000	 63.9928
7.796000	 63.8928
7.880000	 63.8222
7.964000	 63.8265
8.048000	 63.8252
8.132000	 63.8017
8.216000	 63.7742
8.300000	 63.8109
8.384000	 63.6212
8.468000	 63.8192
8.552000	 63.8384
8.635999	 63.6114
8.719999	 63.6669
8.804000	 63.6226
8.888000	 63.6248
8.972000	 63.646
9.056000	 63.7595
9.140000	 63.7695
9.224000	 63.707
9.308000	 63.6709
9.391999	 63.6834
9.475999	 63.5972
9.560000	 63.7365
9.644000	 63.5519
9.728000	 63.5733
9.812000	 63.6626
9.896000	 63.6522
9.980000	 63.6497
10.064	63.7238
10.148	63.7251
10.232	63.7581
10.316	63.7011
10.4	63.5338
10.484	63.4249
10.568	63.4612
10.652	63.3504
10.736	63.5079
10.82	63.6111
10.904	63.6223
10.988	63.6239
11.072	63.6232
11.156	63.4744
11.24	63.3903
11.324	63.5867
11.408	63.6091
11.492	63.5757
11.576	63.688
11.66	63.5304
11.744	63.369
11.828	63.5207
11.912	63.6006
11.996	63.5543
12.08	63.5346
12.164	63.3795
12.248	63.4935
12.332	63.6262
12.416	63.5807
12.5	63.3908
12.584	63.3236
12.668	63.2736
12.752	63.305
12.836	63.4726
12.92	63.4811
13.004	63.5801
13.088	63.6267
13.172	63.4053
13.256	63.135
13.34	63.144
13.424	63.3014
13.508	63.3646
13.592	63.2913
13.676	63.2034
13.76	63.2976
13.844	63.3839
13.928	63.3263
14.012	63.2411
14.096	63.0964
14.18	63.0183
14.264	63.098
14.348	63.1351
14.432	63.1265
14.516	63.2451
14.6	63.2658
14.684	63.3097
14.768	63.4196
14.852	63.2417
14.936	63.0904
15.02	63.1489
15.104	63.2065
15.188	63.3508
15.272	63.4078
15.356	63.2755
15.44	63.3098
15.524	63.4617
15.608	63.457
15.692	63.336
15.776	63.1274
15.86	62.8857
15.944	62.912
16.028	63.3905
16.112	63.8927
16.196	63.7144
16.28	62.9555
16.364	62.5929
16.448	63.1219
16.532	63.9418
16.616	64.3225
16.7	64.2924
16.784	64.2905
16.868	64.3521
16.952	64.1562
17.036	63.7632
17.12	63.5602
17.204	63.404
17.288	62.7683
17.372	61.8161
17.456	61.3909
17.54	61.8416
17.624	62.5911
17.708	63.0133
17.792	63.1197
17.876	63.2653
17.96	63.5391
18.044	63.7371
18.128	63.7432
18.212	63.6716
18.296	63.6042
18.38	63.4216
18.464	63.0079
18.548	62.5195
18.632	62.3025
18.716	62.5647
18.8	63.1949
18.884	63.8734
18.968	64.2857
19.052	64.269
19.136	63.8594
19.22	63.2642
19.304	62.7564
19.388	62.513
19.472	62.5268
19.556	62.6688
19.64	62.8215
19.724	62.9416
19.808	63.0378
19.892	63.1273
19.976	63.213
20.06	63.267
20.144	63.2353
20.228	63.0766
20.312	62.8159
20.396	62.5535
20.48	62.3888
20.564	62.3495
20.648	62.3928
20.732	62.4625
20.816	62.5274
20.9	62.5814
20.984	62.6407
21.068	62.7315
21.152	62.8691
21.236	63.0391
21.32	63.204
21.404	63.3283
21.488	63.4073
21.572	63.4649
21.656	63.5174
21.74	63.5502
21.824	63.5289
21.908	63.4365
21.992	63.297
22.076	63.1607
22.16	63.074
22.244	63.0554
22.328	63.0868
22.412	63.1233
22.496	63.1075
22.58	62.9996
22.664	62.7988
22.748	62.5566
22.832	62.3526
22.916	62.2604
23	62.3098
23.084	62.4616
23.168	62.6127
23.252	62.6588
23.336	62.5403
23.42	62.2778
23.504	61.9583
23.588	61.6868
23.672	61.5266
23.756	61.4741
23.84	61.4824
23.924	61.503
24.008	61.5375
24.092	61.6401
24.176	61.8533
24.26	62.1555
24.344	62.4256
24.428	62.4968
24.512	62.2332
24.596	61.6449
24.68	60.907
24.764	60.2962
24.848	60.0504
24.932	60.3045
25.016	61.0135
25.1	61.953
25.184	62.8351
25.268	63.4381
25.352	63.6612
25.436	63.5072
25.52	63.0317
25.604	62.2739
25.688	61.2441
25.772	59.9444
25.856	58.4122
25.94	56.6986
26.024	54.9235
26.108	53.2958
26.192	52.1555
26.276	51.8561
26.36	52.6488
26.444	54.4391
26.528	56.7236
26.612	58.6905
26.696	59.4571
26.78	58.3769
26.864	55.3119
26.948	50.6865
27.028	45.6467

File: BZ1503107-1_t62_cm-1.asc
PE IR       SPECTRUM    SPECTRUM    ASCII       PEDS        1.60
  -1
BZ6A21~1.ASC
17/04/07
18:18:13.00
17/04/07
18:18:13.00
tln
$BZ1503107-1_t0062$<tbV0>[-2.6,0.0,8.0,0.0,27,1,0]
370
64

2002,4.07
MIRTGS : RIGHTBACK : INTERNAL 2
MIR : ON : INTERNAL 2
OPTKBR

0.200000
8
8.000000
FILLER
RATIO
SPECTRUM
UNLOCKED 256

DOUBLE
64
COMBINED
1
0
0

1.000000
RATIO

1
0
TRUE
51149
0
LEFT NOT FITTED RIGHT NOT FITTED 0
NONE
NONE
15600
12
4.427000
51148
TRUE
1 0 8 72 0 0 0 0

15798

#HDR
-1
-1
#GR
CM-1
%T
2.38419e-05
0.0
5000
-1.000000
4631
8
77.8431
45.6467
#DATA
5000	65.66
4984	66.7936
4968	67.0589
4952	65.8242
4936	64.7314
4920	65.5246
4904	65.0149
4888	65.0044
4872	64.9915
4856	64.5488
4840	64.5495
4824	64.7811
4808	64.393
4792	64.8729
4776	64.9222
4760	64.7109
4744	64.6878
4728	64.8512
4712	64.7769
4696	64.9296
4680	65.0302
4664	64.9387
4648	65.219
4632	64.8521
4616	64.6143
4600	64.7876
4584	64.6723
4568	64.7145
4552	64.8607
4536	64.8033
4520	65.1053
4504	64.9684
4488	64.8634
4472	64.5771
4456	64.537
4440	71.6843
4424	60.8008
4408	64.8274
4392	65.3835
4376	64.9682
4360	65.2404
4344	64.8247
4328	65.3728
4312	64.9448
4296	65.0397
4280	64.854
4264	65.0109
4248	64.9702
4232	65.0769
4216	65.0203
4200	65.1235
4184	64.8889
4168	65.2717
4152	64.7389
4136	64.8681
4120	65.1294
4104	65.1114
4088	64.9079
4072	64.8207
4056	64.9468
4040	65.2114
4024	64.8969
4008	64.9437
3992	65.1078
3976	65.1875
3960	64.9664
3944	64.9922
3928	64.8529
3912	65.0474
3896	64.9913
3880	65.137
3864	65.1345
3848	65.1272
3832	65.1872
3816	64.9105
3800	65.0169
3784	65.1029
3768	65.0411
3752	65.0439
3736	65.1862
3720	65.0843
3704	65.3183
3688	65.1189
3672	65.0222
3656	65.1711
3640	65.4501
3624	65.2287
3608	65.0553
3592	65.0895
3576	64.9137
3560	65.1872
3544	64.9851
3528	65.0098
3512	65.1421
3496	65.2106
3480	65.0605
3464	64.9498
3448	65.0785
3432	65.0039
3416	64.9805
3400	65.1067
3384	65.0479
3368	65.1891
3352	64.8818
3336	65.1087
3320	65.0826
3304	65.1059
3288	64.9496
3272	64.9477
3256	64.9983
3240	65.0223
3224	65.0391
3208	64.9712
3192	65.0798
3176	65.0049
3160	64.8406
3144	65.0703
3128	64.9558
3112	64.9702
3096	65.0304
3080	64.836
3064	65.0463
3048	64.9251
3032	64.9565
3016	64.9933
3000	64.9869
2984	64.9598
2968	64.6767
2952	64.9455
2936	64.7185
2920	65.0641
2904	65.0321
2888	64.9163
2872	64.8625
2856	64.9527
2840	65.0083
2824	64.9234
2808	65.0034
2792	64.8688
2776	64.9238
2760	64.9233
2744	64.8264
2728	64.8729
2712	64.9189
2696	65.0203
2680	64.9032
2664	64.8054
2648	64.8198
2632	64.9199
2616	64.6951
2600	64.9955
2584	64.9508
2568	64.7986
2552	64.8089
2536	64.7911
2520	64.8676
2504	64.7984
2488	64.7744
2472	64.7197
2456	64.7942
2440	64.8821
2424	64.923
2408	64.8523
2392	64.777
2376	64.6728
2360	64.8056
2344	64.7064
2328	64.7278
2312	64.6867
2296	64.7624
2280	64.692
2264	64.7501
2248	64.6526
2232	64.7483
2216	64.5795
2200	64.7289
2184	64.6042
2168	64.5552
2152	64.7138
2136	64.656
2120	64.6227
2104	64.5714
2088	64.5897
2072	64.5866
2056	64.5608
2040	64.5025
2024	64.5243
2008	64.6218
1992	64.5792
1976	64.4735
1960	64.3838
1944	64.5265
1928	64.4624
1912	64.5014
1896	64.4594
1880	64.4867
1864	64.3618
1848	64.3711
1832	64.4415
1816	64.4334
1800	64.2917
1784	64.256
1768	64.3721
1752	64.1895
1736	64.0631
1720	64.113
1704	64.205
1688	64.0247
1672	64.1694
1656	64.2021
1640	64.2128
1624	64.1937
1608	64.1396
1592	64.1004
1576	64.0291
1560	64.1189
1544	64.0603
1528	64.0733
1512	64.0122
1496	64.0952
1480	64.0498
1464	63.9499
1448	63.8522
1432	64.0129
1416	64.0528
1400	63.9125
1384	64.024
1368	63.8684
1352	63.9621
1336	63.8848
1320	63.8881
1304	63.7797
1288	63.9346
1272	63.7807
1256	63.8317
1240	63.8374
1224	63.8242
1208	63.7767
1192	63.6075
1176	63.8227
1160	63.6267
1144	63.6915
1128	63.5879
1112	63.6296
1096	63.7799
1080	63.7793
1064	63.7011
1048	63.7055
1032	63.4937
1016	63.5905
1000	63.6349
984	 63.7338
968	 63.6757
952	 63.4382
936	 63.3663
920	 63.5974
904	 63.6325
888	 63.4167
872	 63.571
856	 63.465
840	 63.6081
824	 63.4088
808	 63.6321
792	 63.3085
776	 63.4834
760	 63.4576
744	 63.3257
728	 63.2556
712	 63.1896
696	 63.1265
680	 63.3496
664	 63.1749
648	 63.2962
632	 62.9816
616	 63.3952
600	 64.3229
584	 63.5563
568	 62.4421
552	 63.7509
536	 62.3281
520	 63.1891
504	 63.0733
488	 62.376
472	 62.9369
456	 63.403
440	 62.616
424	 61.6949
408	 62.2445
392	 63.1021
376	 58.3867
370	 45.6467

File: BZ1503107-1_t63.asc
PE IR       SPECTRUM    SPECTRUM    ASCII       PEDS        1.60
  -1
BZ2551~1.ASC
17/04/07
18:22:50.00
17/04/07
18:23:16.00
tln
$BZ1503107-1_t0063$<tbV0>[-5.2,0.0,8.0,0.0,27,1,0]
27.028
64

2002,4.07
MIRTGS : RIGHTBACK : INTERNAL 2
MIR : ON : INTERNAL 2
OPTKBR

0.200000
8
8.000000
FILLER
RATIO
SPECTRUM
UNLOCKED 256

DOUBLE
64
COMBINED
1
0
0

0.002000
RATIO

1
0
TRUE
51149
0
LEFT NOT FITTED RIGHT NOT FITTED 0
NONE
NONE
15600
12
4.427000
51148
TRUE
1 0 8 72 0 0 0 0

15798

#HDR
-1
-1
#GR
µM
%T
2.38419e-05
0.0
2.000000
0.002000
12515
8
75.2715
53.6849
#DATA
2.000000	 64.8516
2.084000	 64.8306
2.168000	 64.5436
2.252000	 62.4473
2.336000	 65.2971
2.420000	 65.0189
2.504000	 65.2618
2.588000	 65.0955
2.672000	 65.0644
2.756000	 65.0287
2.840000	 64.9442
2.924000	 65.0354
3.008000	 65.0194
3.092000	 64.9304
3.176000	 65.0256
3.260000	 64.9863
3.344000	 65.0511
3.428000	 64.9715
3.512000	 64.9618
3.596000	 64.9253
3.680000	 64.9459
3.764000	 64.9553
3.848000	 64.9133
3.932000	 64.8125
4.016000	 64.9769
4.100000	 64.7541
4.184000	 64.8066
4.268000	 64.703
4.352000	 64.8304
4.436000	 64.7281
4.520000	 64.6704
4.604000	 64.5994
4.688000	 64.5392
4.772000	 64.5443
4.856000	 64.5792
4.940000	 64.5357
5.024000	 64.5646
5.108000	 64.519
5.192000	 64.5146
5.276000	 64.4007
5.359999	 64.4752
5.444000	 64.3709
5.528000	 64.395
5.612000	 64.4046
5.696000	 64.2727
5.780000	 64.0285
5.864000	 64.1531
5.948000	 64.1184
6.032000	 64.2289
6.116000	 64.0706
6.200000	 64.2331
6.284000	 64.0877
6.368000	 64.0819
6.452000	 64.1557
6.536000	 63.9784
6.620000	 64.2082
6.704000	 64.0788
6.788000	 64.0857
6.872000	 64.2243
6.956000	 63.9206
7.040000	 64.0657
7.124000	 63.9842
7.208000	 63.9811
7.292000	 63.9552
7.376000	 63.7808
7.460000	 63.8238
7.544000	 63.8947
7.628000	 63.9446
7.712000	 63.937
7.796000	 63.8498
7.880000	 63.9597
7.964000	 63.8401
8.048000	 63.8098
8.132000	 63.7201
8.216000	 63.702
8.300000	 63.8117
8.384000	 63.6584
8.468000	 63.7817
8.552000	 63.7796
8.635999	 63.4961
8.719999	 63.4584
8.804000	 63.6997
8.888000	 63.5828
8.972000	 63.7528
9.056000	 63.654
9.140000	 63.6565
9.224000	 63.6102
9.308000	 63.6539
9.391999	 63.6023
9.475999	 63.635
9.560000	 63.5705
9.644000	 63.6408
9.728000	 63.6855
9.812000	 63.5726
9.896000	 63.4974
9.980000	 63.6292
10.064	63.6978
10.148	63.6665
10.232	63.7213
10.316	63.6224
10.4	63.5698
10.484	63.5008
10.568	63.5265
10.652	63.2701
10.736	63.5822
10.82	63.6396
10.904	63.3507
10.988	63.4464
11.072	63.5137
11.156	63.3757
11.24	63.3887
11.324	63.5598
11.408	63.7207
11.492	63.6509
11.576	63.5963
11.66	63.7853
11.744	63.7609
11.828	63.5602
11.912	63.5915
11.996	63.6373
12.08	63.8786
12.164	63.756
12.248	63.4893
12.332	63.523
12.416	63.4263
12.5	63.3681
12.584	63.3766
12.668	63.3229
12.752	63.352
12.836	63.4955
12.92	63.5403
13.004	63.5311
13.088	63.5115
13.172	63.5514
13.256	63.5978
13.34	63.4262
13.424	63.312
13.508	63.3195
13.592	63.351
13.676	63.4315
13.76	63.5178
13.844	63.4138
13.928	63.2896
14.012	63.3601
14.096	63.3455
14.18	63.2773
14.264	63.2442
14.348	63.1685
14.432	63.2367
14.516	63.5688
14.6	63.689
14.684	63.581
14.768	63.4986
14.852	63.2597
14.936	63.1525
15.02	63.4188
15.104	63.7519
15.188	63.8243
15.272	63.5102
15.356	63.1775
15.44	63.0899
15.524	62.8497
15.608	62.4573
15.692	62.3439
15.776	62.4369
15.86	62.5991
15.944	62.933
16.028	63.2371
16.112	63.336
16.196	63.4875
16.28	63.825
16.364	64.0335
16.448	63.7729
16.532	63.1536
16.616	62.7051
16.7	62.7341
16.784	62.9611
16.868	63.0456
16.952	62.999
17.036	62.9927
17.12	63.132
17.204	63.3724
17.288	63.5093
17.372	63.372
17.456	63.069
17.54	62.8931
17.624	63.0008
17.708	63.315
17.792	63.6563
17.876	63.8222
17.96	63.6963
18.044	63.3619
18.128	63.0056
18.212	62.7011
18.296	62.3702
18.38	61.9621
18.464	61.6057
18.548	61.5423
18.632	61.9078
18.716	62.5686
18.8	63.2096
18.884	63.6281
18.968	63.877
19.052	64.101
19.136	64.2823
19.22	64.2563
19.304	63.9514
19.388	63.52
19.472	63.1848
19.556	63.0365
19.64	63.0072
19.724	63.0068
19.808	63.0125
19.892	63.0424
19.976	63.0954
20.06	63.1564
20.144	63.2099
20.228	63.2431
20.312	63.2451
20.396	63.2164
20.48	63.1683
20.564	63.1048
20.648	63.0132
20.732	62.8884
20.816	62.7628
20.9	62.6938
20.984	62.7063
21.068	62.7674
21.152	62.826
21.236	62.8687
21.32	62.9291
21.404	63.0316
21.488	63.1466
21.572	63.2051
21.656	63.154
21.74	63.0016
21.824	62.7893
21.908	62.545
21.992	62.287
22.076	62.0562
22.16	61.9336
22.244	62.0018
22.328	62.2653
22.412	62.6315
22.496	62.9349
22.58	63.027
22.664	62.8415
22.748	62.4416
22.832	61.9913
22.916	61.694
23	61.7324
23.084	62.1922
23.168	63.0197
23.252	64.0341
23.336	64.9709
23.42	65.5771
23.504	65.6882
23.588	65.2954
23.672	64.5255
23.756	63.5973
23.84	62.7504
23.924	62.1821
24.008	61.987
24.092	62.1292
24.176	62.4561
24.26	62.7352
24.344	62.7188
24.428	62.2653
24.512	61.3619
24.596	60.1845
24.68	59.0597
24.764	58.3425
24.848	58.2547
24.932	58.8104
25.016	59.7772
25.1	60.758
25.184	61.2852
25.268	61.0367
25.352	59.9564
25.436	58.2753
25.52	56.4237
25.604	54.8458
25.688	53.8931
25.772	53.7108
25.856	54.2596
25.94	55.406
26.024	57.0543
26.108	59.2188
26.192	61.9355
26.276	65.1453
26.36	68.6146
26.444	71.8684
26.528	74.2911
26.612	75.2691
26.696	74.4706
26.78	72.0535
26.864	68.6783
26.948	65.3179
27.028	63.061

File: BZ1503107-1_t63_cm-1.asc
PE IR       SPECTRUM    SPECTRUM    ASCII       PEDS        1.60
  -1
BZ6B21~1.ASC
17/04/07
18:22:50.00
17/04/07
18:22:50.00
tln
$BZ1503107-1_t0063$<tbV0>[-5.2,0.0,8.0,0.0,27,1,0]
370
64

2002,4.07
MIRTGS : RIGHTBACK : INTERNAL 2
MIR : ON : INTERNAL 2
OPTKBR

0.200000
8
8.000000
FILLER
RATIO
SPECTRUM
UNLOCKED 256

DOUBLE
64
COMBINED
1
0
0

1.000000
RATIO

1
0
TRUE
51149
0
LEFT NOT FITTED RIGHT NOT FITTED 0
NONE
NONE
15600
12
4.427000
51148
TRUE
1 0 8 72 0 0 0 0

15798

#HDR
-1
-1
#GR
CM-1
%T
2.38419e-05
0.0
5000
-1.000000
4631
8
75.2188
53.7136
#DATA
5000	64.8516
4984	65.7259
4968	65.0049
4952	65.0947
4936	64.7467
4920	64.7286
4904	64.9443
4888	64.7134
4872	65.1892
4856	64.8046
4840	64.6691
4824	64.5716
4808	64.7228
4792	64.5215
4776	64.8818
4760	64.8515
4744	64.9353
4728	64.6329
4712	65.0319
4696	64.544
4680	65.1472
4664	64.8868
4648	64.8122
4632	65.1628
4616	64.6039
4600	65.3883
4584	65.1761
4568	64.6298
4552	64.897
4536	64.6843
4520	65.2421
4504	65.0737
4488	64.8394
4472	64.9308
4456	65.0278
4440	62.4705
4424	58.8002
4408	65.5429
4392	65.3966
4376	64.9614
4360	65.3946
4344	64.9893
4328	65.2035
4312	65.0336
4296	65.2188
4280	65.3217
4264	65.1398
4248	64.7051
4232	65.0674
4216	65.1119
4200	65.1917
4184	65.1977
4168	64.781
4152	64.9134
4136	65.0681
4120	64.9226
4104	65.1088
4088	64.8066
4072	65.0529
4056	65.1594
4040	65.0887
4024	64.9808
4008	64.942
3992	65.2679
3976	65.2804
3960	65.1586
3944	64.8703
3928	64.8696
3912	65.0888
3896	65.2557
3880	65.1717
3864	65.0952
3848	65.0948
3832	65.0191
3816	65.1688
3800	65.0339
3784	65.4524
3768	65.1577
3752	65.0611
3736	65.001
3720	64.9691
3704	65.2432
3688	64.9229
3672	64.9554
3656	65.1825
3640	65.1443
3624	65.1171
3608	65.0017
3592	65.0645
3576	65.0924
3560	65.0007
3544	65.1226
3528	64.8369
3512	65.1217
3496	65.313
3480	65.1081
3464	65.0988
3448	65.2105
3432	64.9451
3416	65.0495
3400	64.9333
3384	65.0984
3368	65.0213
3352	64.9744
3336	65.0497
3320	65.0087
3304	65.0443
3288	64.8796
3272	65.0256
3256	65.0739
3240	65.0161
3224	65.0893
3208	64.9346
3192	65.0783
3176	65.0423
3160	65.0662
3144	65.1125
3128	65.2182
3112	65.0192
3096	65.1099
3080	64.8216
3064	64.9841
3048	64.9662
3032	64.8589
3016	64.8875
3000	65.0871
2984	64.9277
2968	64.774
2952	64.8814
2936	64.9015
2920	64.9562
2904	64.9528
2888	64.8694
2872	64.9311
2856	64.8839
2840	64.9998
2824	65.0295
2808	64.8601
2792	64.8679
2776	64.9144
2760	64.9319
2744	64.9263
2728	64.8975
2712	64.9599
2696	64.9682
2680	64.902
2664	64.9435
2648	64.9663
2632	64.8759
2616	64.9627
2600	64.9091
2584	64.9196
2568	64.761
2552	64.7867
2536	64.868
2520	64.8102
2504	64.6479
2488	64.974
2472	64.7546
2456	64.8248
2440	64.7665
2424	64.866
2408	64.7521
2392	64.8116
2376	64.7404
2360	64.6346
2344	64.7076
2328	64.7043
2312	64.7513
2296	64.8085
2280	64.647
2264	64.7371
2248	64.7034
2232	64.5779
2216	64.715
2200	64.7206
2184	64.5873
2168	64.571
2152	64.6835
2136	64.554
2120	64.6551
2104	64.641
2088	64.5276
2072	64.5815
2056	64.5583
2040	64.5758
2024	64.5393
2008	64.5807
1992	64.5722
1976	64.4334
1960	64.5612
1944	64.4892
1928	64.5018
1912	64.4957
1896	64.406
1880	64.365
1864	64.465
1848	64.4687
1832	64.4134
1816	64.3908
1800	64.4634
1784	64.3883
1768	64.2725
1752	64.2461
1736	64.0491
1720	64.1217
1704	64.1276
1688	64.1653
1672	64.1098
1656	64.223
1640	64.1868
1624	64.1742
1608	64.2519
1592	64.098
1576	64.1409
1560	64.1684
1544	64.0599
1528	64.0073
1512	64.222
1496	64.1261
1480	64.0947
1464	64.1069
1448	64.0534
1432	63.9786
1416	64.1082
1400	63.9405
1384	63.9283
1368	64.0095
1352	63.7592
1336	63.8843
1320	63.918
1304	63.8852
1288	63.8373
1272	63.9306
1256	63.8453
1240	63.7949
1224	63.7206
1208	63.7967
1192	63.6673
1176	63.7493
1160	63.5755
1144	63.4961
1128	63.5443
1112	63.6799
1096	63.6471
1080	63.6289
1064	63.6116
1048	63.5486
1032	63.5935
1016	63.521
1000	63.6303
984	 63.673
968	 63.5994
952	 63.5302
936	 63.376
920	 63.4538
904	 63.5309
888	 63.4075
872	 63.6951
856	 63.8243
840	 63.59
824	 63.8693
808	 63.4855
792	 63.3547
776	 63.5367
760	 63.5366
744	 63.31
728	 63.5036
712	 63.3737
696	 63.1585
680	 63.5632
664	 63.5935
648	 63.0976
632	 62.5101
616	 63.6268
600	 62.6738
584	 63.1403
568	 62.9542
552	 63.0531
536	 62.0843
520	 64.2318
504	 63.0211
488	 63.1604
472	 62.8441
456	 62.4785
440	 62.5522
424	 65.3173
408	 61.3897
392	 56.6308
376	 75.2188
370	 63.061