Folder: Masteroppgave/Bakgrunnsmateriale/MATLAB/FTIR/ftir_data/subAa/Mapping_121 (part 23)

File: BZ1503107-1_t49.asc
PE IR       SPECTRUM    SPECTRUM    ASCII       PEDS        1.60
  -1
BZ2D6D~1.ASC
17/04/07
17:17:31.00
17/04/07
17:17:57.00
tln
$BZ1503107-1_t0049$<tbV0>[2.6,-2.6,8.0,0.0,27,1,0]
27.028
64

2002,4.07
MIRTGS : RIGHTBACK : INTERNAL 2
MIR : ON : INTERNAL 2
OPTKBR

0.200000
8
8.000000
FILLER
RATIO
SPECTRUM
UNLOCKED 256

DOUBLE
64
COMBINED
1
0
0

0.002000
RATIO

1
0
TRUE
51149
0
LEFT NOT FITTED RIGHT NOT FITTED 0
NONE
NONE
15600
12
4.427000
51148
TRUE
1 0 8 72 0 0 0 0

15798

#HDR
-1
-1
#GR
µM
%T
2.38419e-05
0.0
2.000000
0.002000
12515
8
83.0415
56.8627
#DATA
2.000000	 67.5335
2.084000	 64.9448
2.168000	 64.6581
2.252000	 63.0183
2.336000	 65.1922
2.420000	 65.0211
2.504000	 65.1793
2.588000	 65.1117
2.672000	 65.129
2.756000	 65.0088
2.840000	 64.9886
2.924000	 64.9841
3.008000	 65.1216
3.092000	 64.8228
3.176000	 64.9304
3.260000	 64.9173
3.344000	 64.9473
3.428000	 64.8881
3.512000	 64.9565
3.596000	 64.9337
3.680000	 64.9229
3.764000	 64.8881
3.848000	 64.8651
3.932000	 64.902
4.016000	 64.9876
4.100000	 64.8693
4.184000	 64.7751
4.268000	 64.7698
4.352000	 64.7663
4.436000	 64.7332
4.520000	 64.8483
4.604000	 64.6792
4.688000	 64.6717
4.772000	 64.7182
4.856000	 64.7085
4.940000	 64.6133
5.024000	 64.7303
5.108000	 64.5406
5.192000	 64.5861
5.276000	 64.4241
5.359999	 64.5538
5.444000	 64.5712
5.528000	 64.4465
5.612000	 64.5176
5.696000	 64.4208
5.780000	 64.2735
5.864000	 64.3601
5.948000	 64.1825
6.032000	 64.2691
6.116000	 64.3368
6.200000	 64.3288
6.284000	 64.256
6.368000	 64.165
6.452000	 64.2118
6.536000	 64.1418
6.620000	 64.19
6.704000	 64.2354
6.788000	 64.2663
6.872000	 64.0761
6.956000	 64.1765
7.040000	 64.246
7.124000	 64.1688
7.208000	 64.1499
7.292000	 64.1298
7.376000	 64.0607
7.460000	 64.0999
7.544000	 64.1604
7.628000	 64.0285
7.712000	 64.197
7.796000	 64.08
7.880000	 63.9391
7.964000	 63.9155
8.048000	 63.9144
8.132000	 63.8358
8.216000	 63.8779
8.300000	 63.9498
8.384000	 63.757
8.468000	 63.8684
8.552000	 63.9134
8.635999	 63.6063
8.719999	 63.8001
8.804000	 63.7292
8.888000	 63.7241
8.972000	 63.7679
9.056000	 63.7298
9.140000	 63.775
9.224000	 63.6339
9.308000	 63.8307
9.391999	 63.7327
9.475999	 63.6598
9.560000	 63.7037
9.644000	 63.8416
9.728000	 63.8501
9.812000	 64.0295
9.896000	 63.9759
9.980000	 63.8101
10.064	63.7986
10.148	63.8531
10.232	63.9468
10.316	63.9173
10.4	63.7529
10.484	63.755
10.568	63.7215
10.652	63.6278
10.736	63.7333
10.82	63.6619
10.904	63.7559
10.988	63.6742
11.072	63.8335
11.156	63.7005
11.24	63.741
11.324	63.9068
11.408	63.791
11.492	63.711
11.576	63.8127
11.66	63.8848
11.744	63.8365
11.828	63.8457
11.912	63.926
11.996	63.7054
12.08	63.8208
12.164	63.715
12.248	63.7022
12.332	63.686
12.416	63.6548
12.5	63.6525
12.584	63.6599
12.668	63.7708
12.752	63.7087
12.836	63.6253
12.92	63.6481
13.004	63.6939
13.088	63.6047
13.172	63.4946
13.256	63.5134
13.34	63.5136
13.424	63.5749
13.508	63.6058
13.592	63.4956
13.676	63.4012
13.76	63.4484
13.844	63.5118
13.928	63.5388
14.012	63.465
14.096	63.2157
14.18	63.0662
14.264	63.1111
14.348	63.1738
14.432	63.293
14.516	63.4775
14.6	63.4335
14.684	63.4073
14.768	63.6129
14.852	63.5577
14.936	63.279
15.02	63.1546
15.104	63.1873
15.188	63.3392
15.272	63.4081
15.356	63.203
15.44	62.9534
15.524	62.9394
15.608	63.171
15.692	63.3244
15.776	63.0625
15.86	62.6644
15.944	62.7102
16.028	63.3631
16.112	64.1974
16.196	64.4252
16.28	63.7235
16.364	62.7958
16.448	62.4847
16.532	62.7824
16.616	63.0587
16.7	62.8678
16.784	62.3919
16.868	62.2188
16.952	62.7181
17.036	63.6131
17.12	64.2673
17.204	64.3758
17.288	64.1352
17.372	63.8375
17.456	63.6105
17.54	63.5316
17.624	63.6785
17.708	63.9859
17.792	64.2728
17.876	64.4645
17.96	64.6831
18.044	65.0268
18.128	65.3605
18.212	65.4386
18.296	65.1883
18.38	64.7578
18.464	64.343
18.548	64.0281
18.632	63.7825
18.716	63.5801
18.8	63.4617
18.884	63.4535
18.968	63.514
19.052	63.6188
19.136	63.8111
19.22	64.1078
19.304	64.4018
19.388	64.5257
19.472	64.4158
19.556	64.1827
19.64	64.0172
19.724	64.0399
19.808	64.2352
19.892	64.4833
19.976	64.6279
20.06	64.5432
20.144	64.2175
20.228	63.7813
20.312	63.4241
20.396	63.2608
20.48	63.2729
20.564	63.3542
20.648	63.3954
20.732	63.3384
20.816	63.1968
20.9	63.0504
20.984	63.0079
21.068	63.1384
21.152	63.4002
21.236	63.6492
21.32	63.7411
21.404	63.6435
21.488	63.4567
21.572	63.3277
21.656	63.3428
21.74	63.4857
21.824	63.6695
21.908	63.8087
21.992	63.8698
22.076	63.8686
22.16	63.8479
22.244	63.851
22.328	63.9003
22.412	63.9968
22.496	64.1118
22.58	64.206
22.664	64.2511
22.748	64.2426
22.832	64.1939
22.916	64.1226
23	64.0372
23.084	63.9364
23.168	63.8307
23.252	63.7575
23.336	63.7752
23.42	63.9274
23.504	64.1932
23.588	64.4672
23.672	64.5978
23.756	64.4382
23.84	63.9237
23.924	63.1314
24.008	62.2631
24.092	61.5758
24.176	61.2773
24.26	61.4177
24.344	61.8791
24.428	62.4439
24.512	62.8461
24.596	62.9452
24.68	62.7561
24.764	62.4029
24.848	62.0088
24.932	61.6366
25.016	61.2491
25.1	60.7208
25.184	59.9522
25.268	58.9946
25.352	58.0865
25.436	57.52
25.52	57.503
25.604	58.0825
25.688	59.0876
25.772	60.202
25.856	61.1458
25.94	61.8179
26.024	62.3799
26.108	63.1902
26.192	64.7422
26.276	67.374
26.36	71.0591
26.444	75.2223
26.528	78.8507
26.612	80.8003
26.696	80.1567
26.78	76.6009
26.864	70.6838
26.948	63.7695
27.028	57.9876

File: BZ1503107-1_t49_cm-1.asc
PE IR       SPECTRUM    SPECTRUM    ASCII       PEDS        1.60
  -1
BZ6134~1.ASC
17/04/07
17:17:31.00
17/04/07
17:17:31.00
tln
$BZ1503107-1_t0049$<tbV0>[2.6,-2.6,8.0,0.0,27,1,0]
370
64

2002,4.07
MIRTGS : RIGHTBACK : INTERNAL 2
MIR : ON : INTERNAL 2
OPTKBR

0.200000
8
8.000000
FILLER
RATIO
SPECTRUM
UNLOCKED 256

DOUBLE
64
COMBINED
1
0
0

1.000000
RATIO

1
0
TRUE
51149
0
LEFT NOT FITTED RIGHT NOT FITTED 0
NONE
NONE
15600
12
4.427000
51148
TRUE
1 0 8 72 0 0 0 0

15798

#HDR
-1
-1
#GR
CM-1
%T
2.38419e-05
0.0
5000
-1.000000
4631
8
83.0601
55.7191
#DATA
5000	67.5335
4984	64.1126
4968	64.5782
4952	64.8127
4936	65.0811
4920	65.035
4904	64.8875
4888	65.0157
4872	64.5216
4856	65.0827
4840	64.968
4824	64.598
4808	64.8398
4792	64.6025
4776	64.9811
4760	64.9336
4744	64.8291
4728	65.0888
4712	64.7184
4696	64.8707
4680	65.0688
4664	64.7584
4648	64.755
4632	65.068
4616	64.6006
4600	65.2137
4584	65.0919
4568	64.919
4552	65.186
4536	65.2021
4520	65.1322
4504	64.7701
4488	64.6679
4472	64.544
4456	65.4985
4440	63.1949
4424	55.9356
4408	65.3514
4392	64.5368
4376	64.9873
4360	65.4454
4344	65.1446
4328	64.9657
4312	65.1888
4296	65.1378
4280	65.2042
4264	65.0614
4248	64.7528
4232	65.132
4216	65.0156
4200	64.8716
4184	65.1087
4168	65.0875
4152	64.8111
4136	65.0522
4120	65.0393
4104	65.2009
4088	64.6754
4072	64.8665
4056	65.2073
4040	64.9677
4024	65.0225
4008	64.7129
3992	65.2616
3976	65.2645
3960	65.0668
3944	65.0016
3928	65.031
3912	65.0508
3896	65.1528
3880	65.0155
3864	65.1115
3848	65.1848
3832	65.1528
3816	65.0939
3800	65.0662
3784	65.2407
3768	65.0949
3752	65.2372
3736	65.1955
3720	65.085
3704	65.2784
3688	64.9819
3672	65.0038
3656	65.1453
3640	65.267
3624	64.8905
3608	65.172
3592	64.9443
3576	64.9298
3560	65.0146
3544	65.0301
3528	64.8739
3512	65.0733
3496	65.2905
3480	65.1797
3464	65.0154
3448	65.0413
3432	64.999
3416	64.925
3400	65.0545
3384	65.0176
3368	65.2661
3352	64.8325
3336	64.9309
3320	65.0503
3304	65.0359
3288	65.018
3272	64.9126
3256	65.0848
3240	64.9534
3224	65.2098
3208	65.0593
3192	65.1287
3176	65.1077
3160	65.101
3144	65.0224
3128	65.126
3112	64.9163
3096	65.1942
3080	65.002
3064	65.0019
3048	65.036
3032	65.0782
3016	65.0033
3000	65.0976
2984	64.8199
2968	64.9499
2952	64.8939
2936	64.8176
2920	64.8461
2904	64.9215
2888	65.0055
2872	64.9335
2856	64.8624
2840	64.9069
2824	64.977
2808	64.8455
2792	64.8513
2776	64.8667
2760	64.8653
2744	64.9294
2728	64.9144
2712	64.9946
2696	64.9473
2680	64.9421
2664	64.8677
2648	64.87
2632	64.9236
2616	64.9384
2600	64.8427
2584	64.818
2568	64.724
2552	64.9021
2536	64.8565
2520	64.9431
2504	64.7815
2488	64.9615
2472	64.8174
2456	64.7987
2440	64.8599
2424	64.8425
2408	64.8288
2392	64.8005
2376	64.7705
2360	64.8289
2344	64.768
2328	64.7338
2312	64.7578
2296	64.7982
2280	64.7469
2264	64.793
2248	64.596
2232	64.7363
2216	64.8376
2200	64.784
2184	64.6205
2168	64.6444
2152	64.6732
2136	64.6945
2120	64.7533
2104	64.6235
2088	64.6266
2072	64.638
2056	64.7031
2040	64.5488
2024	64.6127
2008	64.647
1992	64.7238
1976	64.5823
1960	64.5253
1944	64.5841
1928	64.5698
1912	64.5931
1896	64.4275
1880	64.5066
1864	64.5564
1848	64.5824
1832	64.4977
1816	64.4828
1800	64.4778
1784	64.5163
1768	64.3924
1752	64.4295
1736	64.3106
1720	64.2678
1704	64.3211
1688	64.2279
1672	64.2769
1656	64.2868
1640	64.3338
1624	64.1354
1608	64.2796
1592	64.2583
1576	64.1235
1560	64.2331
1544	64.2399
1528	64.1361
1512	64.206
1496	64.1874
1480	64.2692
1464	64.1887
1448	64.0213
1432	64.0826
1416	64.1828
1400	64.1769
1384	64.114
1368	64.0875
1352	64.003
1336	64.1423
1320	64.1688
1304	64.0926
1288	64.1216
1272	63.9585
1256	63.9154
1240	63.8967
1224	63.7997
1208	63.9251
1192	63.7592
1176	63.8783
1160	63.5743
1144	63.7556
1128	63.6686
1112	63.7557
1096	63.7978
1080	63.796
1064	63.7297
1048	63.6452
1032	63.7878
1016	63.9864
1000	63.7746
984	 63.8572
968	 63.8921
952	 63.7762
936	 63.6694
920	 63.6855
904	 63.8147
888	 63.7937
872	 63.7053
856	 63.8864
840	 63.939
824	 63.7716
808	 63.6525
792	 63.7256
776	 63.629
760	 63.5017
744	 63.5911
728	 63.4254
712	 63.3778
696	 63.1901
680	 63.4533
664	 63.1538
648	 62.9693
632	 62.8164
616	 64.2034
600	 63.0019
584	 64.2819
568	 63.6275
552	 65.3237
536	 63.7176
520	 64.1489
504	 64.3358
488	 63.2827
472	 63.514
456	 63.8323
440	 64.2491
424	 64.459
408	 62.8394
392	 57.473
376	 80.6127
370	 57.9876

File: BZ1503107-1_t50.asc
PE IR       SPECTRUM    SPECTRUM    ASCII       PEDS        1.60
  -1
BZ2943~1.ASC
17/04/07
17:22:08.00
17/04/07
17:22:35.00
tln
$BZ1503107-1_t0050$<tbV0>[0.0,-2.6,8.0,0.0,27,1,0]
27.028
64

2002,4.07
MIRTGS : RIGHTBACK : INTERNAL 2
MIR : ON : INTERNAL 2
OPTKBR

0.200000
8
8.000000
FILLER
RATIO
SPECTRUM
UNLOCKED 256

DOUBLE
64
COMBINED
1
0
0

0.002000
RATIO

1
0
TRUE
51149
0
LEFT NOT FITTED RIGHT NOT FITTED 0
NONE
NONE
15600
12
4.427000
51148
TRUE
1 0 8 72 0 0 0 0

15798

#HDR
-1
-1
#GR
µM
%T
2.38419e-05
0.0
2.000000
0.002000
12515
8
66.9196
33.3121
#DATA
2.000000	 64.2905
2.084000	 64.658
2.168000	 64.6486
2.252000	 63.7166
2.336000	 65.2285
2.420000	 64.5478
2.504000	 65.169
2.588000	 65.0456
2.672000	 64.9322
2.756000	 65.1121
2.840000	 65.0793
2.924000	 65.0422
3.008000	 65.1896
3.092000	 64.85
3.176000	 65.0079
3.260000	 64.8615
3.344000	 65.0312
3.428000	 64.8612
3.512000	 65.0314
3.596000	 64.9415
3.680000	 64.9533
3.764000	 64.9798
3.848000	 64.9601
3.932000	 64.9125
4.016000	 64.814
4.100000	 64.8381
4.184000	 64.8083
4.268000	 64.8208
4.352000	 64.8315
4.436000	 64.8432
4.520000	 64.7601
4.604000	 64.6871
4.688000	 64.7436
4.772000	 64.7424
4.856000	 64.7303
4.940000	 64.5615
5.024000	 64.5792
5.108000	 64.4543
5.192000	 64.5879
5.276000	 64.5478
5.359999	 64.5439
5.444000	 64.5337
5.528000	 64.4346
5.612000	 64.4565
5.696000	 64.3317
5.780000	 64.3065
5.864000	 64.3548
5.948000	 64.3101
6.032000	 64.3109
6.116000	 64.2835
6.200000	 64.3201
6.284000	 64.164
6.368000	 64.1665
6.452000	 64.1545
6.536000	 64.2196
6.620000	 64.2343
6.704000	 64.196
6.788000	 64.1524
6.872000	 64.2202
6.956000	 64.0645
7.040000	 64.23
7.124000	 64.0804
7.208000	 64.0287
7.292000	 64.2622
7.376000	 64.0162
7.460000	 63.9789
7.544000	 64.0615
7.628000	 64.0617
7.712000	 64.0381
7.796000	 63.9788
7.880000	 63.9248
7.964000	 63.9763
8.048000	 63.9186
8.132000	 63.9243
8.216000	 63.865
8.300000	 63.9914
8.384000	 63.8653
8.468000	 63.9459
8.552000	 63.8643
8.635999	 63.7805
8.719999	 63.7267
8.804000	 63.7956
8.888000	 63.765
8.972000	 63.7325
9.056000	 63.9889
9.140000	 63.7886
9.224000	 63.8932
9.308000	 63.8696
9.391999	 63.768
9.475999	 63.6698
9.560000	 63.8016
9.644000	 63.7717
9.728000	 63.5916
9.812000	 63.8022
9.896000	 63.9502
9.980000	 63.8196
10.064	63.7505
10.148	63.8992
10.232	63.9184
10.316	63.7165
10.4	63.6947
10.484	63.6955
10.568	63.6549
10.652	63.6634
10.736	63.7024
10.82	63.8208
10.904	63.8519
10.988	63.7016
11.072	63.6672
11.156	63.6591
11.24	63.7409
11.324	63.7425
11.408	63.9144
11.492	63.7737
11.576	63.7377
11.66	63.7546
11.744	63.5692
11.828	63.7549
11.912	63.879
11.996	63.7072
12.08	63.7504
12.164	63.8039
12.248	63.7191
12.332	63.7664
12.416	63.7722
12.5	63.6983
12.584	63.6573
12.668	63.5549
12.752	63.5716
12.836	63.6904
12.92	63.6949
13.004	63.6667
13.088	63.6388
13.172	63.7796
13.256	63.8604
13.34	63.7743
13.424	63.7498
13.508	63.7355
13.592	63.644
13.676	63.5435
13.76	63.6288
13.844	63.6744
13.928	63.45
14.012	63.2293
14.096	63.2422
14.18	63.2769
14.264	63.2926
14.348	63.4372
14.432	63.584
14.516	63.6309
14.6	63.527
14.684	63.5101
14.768	63.642
14.852	63.5557
14.936	63.3165
15.02	63.2338
15.104	63.4259
15.188	63.7409
15.272	63.8244
15.356	63.6641
15.44	63.3776
15.524	63.0715
15.608	63.2192
15.692	63.7236
15.776	63.7168
15.86	63.2275
15.944	63.0874
16.028	63.4459
16.112	63.8853
16.196	64.0455
16.28	63.7628
16.364	63.317
16.448	63.1406
16.532	63.3177
16.616	63.6814
16.7	63.9949
16.784	64.0475
16.868	63.9365
16.952	63.9475
17.036	64.069
17.12	64.0551
17.204	63.8928
17.288	63.7888
17.372	63.7241
17.456	63.4345
17.54	62.8578
17.624	62.3218
17.708	62.2019
17.792	62.5526
17.876	63.076
17.96	63.4091
18.044	63.4204
18.128	63.2554
18.212	63.1201
18.296	63.0732
18.38	63.0275
18.464	62.9078
18.548	62.7625
18.632	62.7251
18.716	62.8805
18.8	63.1761
18.884	63.4634
18.968	63.5898
19.052	63.4686
19.136	63.1286
19.22	62.7281
19.304	62.4795
19.388	62.5102
19.472	62.7759
19.556	63.1052
19.64	63.3327
19.724	63.403
19.808	63.3743
19.892	63.3384
19.976	63.3513
20.06	63.4008
20.144	63.4361
20.228	63.4208
20.312	63.3611
20.396	63.2984
20.48	63.2706
20.564	63.275
20.648	63.2741
20.732	63.2424
20.816	63.2251
20.9	63.3161
20.984	63.563
21.068	63.8934
21.152	64.1441
21.236	64.1859
21.32	64.0264
21.404	63.8044
21.488	63.6614
21.572	63.6256
21.656	63.6058
21.74	63.4788
21.824	63.1917
21.908	62.8077
21.992	62.4661
22.076	62.3076
22.16	62.4036
22.244	62.7118
22.328	63.1121
22.412	63.4734
22.496	63.7171
22.58	63.8537
22.664	63.9516
22.748	64.0762
22.832	64.2298
22.916	64.3468
23	64.3453
23.084	64.1736
23.168	63.8514
23.252	63.4698
23.336	63.1562
23.42	63.0243
23.504	63.1446
23.588	63.5069
23.672	64.0219
23.756	64.5359
23.84	64.8794
23.924	64.936
24.008	64.7054
24.092	64.3096
24.176	63.9207
24.26	63.6542
24.344	63.4769
24.428	63.2095
24.512	62.6259
24.596	61.5806
24.68	60.1274
24.764	58.5556
24.848	57.2206
24.932	56.444
25.016	56.3598
25.1	56.8857
25.184	57.7651
25.268	58.7157
25.352	59.58
25.436	60.2942
25.52	60.8955
25.604	61.4704
25.688	61.9995
25.772	62.3366
25.856	62.2793
25.94	61.6577
26.024	60.4012
26.108	58.5772
26.192	56.3056
26.276	53.6598
26.36	50.5665
26.444	47.0371
26.528	43.2678
26.612	39.6048
26.696	36.4904
26.78	34.329
26.864	33.3539
26.948	33.6973
27.028	35.3919

File: BZ1503107-1_t50_cm-1.asc
PE IR       SPECTRUM    SPECTRUM    ASCII       PEDS        1.60
  -1
BZ68A3~1.ASC
17/04/07
17:22:08.00
17/04/07
17:22:08.00
tln
$BZ1503107-1_t0050$<tbV0>[0.0,-2.6,8.0,0.0,27,1,0]
370
64

2002,4.07
MIRTGS : RIGHTBACK : INTERNAL 2
MIR : ON : INTERNAL 2
OPTKBR

0.200000
8
8.000000
FILLER
RATIO
SPECTRUM
UNLOCKED 256

DOUBLE
64
COMBINED
1
0
0

1.000000
RATIO

1
0
TRUE
51149
0
LEFT NOT FITTED RIGHT NOT FITTED 0
NONE
NONE
15600
12
4.427000
51148
TRUE
1 0 8 72 0 0 0 0

15798

#HDR
-1
-1
#GR
CM-1
%T
2.38419e-05
0.0
5000
-1.000000
4631
8
66.921
33.3127
#DATA
5000	64.2905
4984	66.9132
4968	66.2917
4952	64.5245
4936	65.6041
4920	64.7634
4904	64.8266
4888	64.9299
4872	64.5671
4856	64.6547
4840	64.6551
4824	64.6193
4808	65.0193
4792	64.696
4776	65.3353
4760	64.7127
4744	64.6654
4728	64.7187
4712	64.816
4696	64.9513
4680	65.0993
4664	64.5144
4648	64.7178
4632	65.3868
4616	64.7311
4600	65.0938
4584	65.0248
4568	65.0849
4552	65.3227
4536	64.8624
4520	65.4826
4504	65.3525
4488	65.2377
4472	65.1324
4456	66.3991
4440	63.2716
4424	56.7614
4408	65.6074
4392	65.2021
4376	65.3533
4360	65.9324
4344	65.5781
4328	65.1942
4312	65.3176
4296	65.4315
4280	65.2519
4264	65.2655
4248	65.0318
4232	64.7111
4216	64.9152
4200	65.1826
4184	64.6088
4168	64.5966
4152	64.8069
4136	64.6551
4120	65.1223
4104	64.75
4088	64.7658
4072	64.8517
4056	64.8476
4040	65.0008
4024	64.993
4008	65.0909
3992	65.1749
3976	65.2891
3960	64.9518
3944	64.9879
3928	65.3288
3912	65.3486
3896	65.0465
3880	65.0806
3864	65.0455
3848	65.1209
3832	64.8589
3816	65.0089
3800	65.0389
3784	65.0044
3768	65.1402
3752	65.0999
3736	64.9135
3720	64.8871
3704	65.1443
3688	65.024
3672	65.0649
3656	65.1186
3640	65.1764
3624	65.0706
3608	65.0267
3592	65.0296
3576	65.0845
3560	65.1211
3544	65.2062
3528	65.0309
3512	65.2231
3496	65.1955
3480	65.155
3464	65.0767
3448	65.0376
3432	64.957
3416	64.9655
3400	64.8093
3384	65.0471
3368	65.1916
3352	64.998
3336	64.9417
3320	65.0498
3304	65.1743
3288	64.9827
3272	64.894
3256	64.9593
3240	64.9315
3224	64.9112
3208	65.1407
3192	65.0414
3176	65.1231
3160	64.9323
3144	65.0032
3128	64.8232
3112	64.8715
3096	65.1052
3080	64.9983
3064	64.882
3048	64.9355
3032	65.1671
3016	65.0793
3000	65.0597
2984	65.0221
2968	64.7788
2952	64.8667
2936	64.9788
2920	64.8727
2904	64.8769
2888	64.9559
2872	64.8769
2856	64.9895
2840	64.9403
2824	65.0239
2808	65.0342
2792	64.913
2776	64.9694
2760	64.8453
2744	65.0368
2728	64.9706
2712	64.9674
2696	64.991
2680	64.9818
2664	64.9956
2648	64.9664
2632	64.9039
2616	64.9746
2600	64.9517
2584	64.9018
2568	64.8197
2552	64.8905
2536	64.7692
2520	64.9431
2504	64.9089
2488	64.8367
2472	64.8102
2456	64.7949
2440	64.8229
2424	64.8639
2408	64.7814
2392	64.7969
2376	64.7712
2360	64.8642
2344	64.8238
2328	64.7951
2312	64.8077
2296	64.7993
2280	64.7988
2264	64.8242
2248	64.7217
2232	64.7393
2216	64.7579
2200	64.8414
2184	64.7001
2168	64.5998
2152	64.7314
2136	64.7433
2120	64.6653
2104	64.6895
2088	64.7315
2072	64.6771
2056	64.6776
2040	64.6346
2024	64.5571
2008	64.7536
1992	64.591
1976	64.5714
1960	64.4619
1944	64.5932
1928	64.5877
1912	64.549
1896	64.5522
1880	64.4987
1864	64.5325
1848	64.5474
1832	64.5304
1816	64.4744
1800	64.466
1784	64.4783
1768	64.4193
1752	64.2928
1736	64.345
1720	64.3335
1704	64.3362
1688	64.2473
1672	64.3598
1656	64.3466
1640	64.3894
1624	64.2193
1608	64.359
1592	64.1612
1576	64.1087
1560	64.1146
1544	64.173
1528	64.2107
1512	64.2484
1496	64.1398
1480	64.2234
1464	64.1092
1448	64.0736
1432	64.1525
1416	64.1212
1400	64.044
1384	64.0399
1368	64.23
1352	63.9791
1336	64.1126
1320	64.0943
1304	64.0914
1288	63.9247
1272	63.9447
1256	63.9808
1240	63.8982
1224	63.8756
1208	63.9407
1192	63.8698
1176	63.8378
1160	63.7878
1144	63.6908
1128	63.7737
1112	63.7766
1096	63.8166
1080	64.0176
1064	63.7738
1048	63.7687
1032	63.6178
1016	63.8459
1000	63.7831
984	 63.9336
968	 63.685
952	 63.6758
936	 63.6612
920	 63.8664
904	 63.6632
888	 63.7423
872	 63.8438
856	 63.692
840	 63.8836
824	 63.8233
808	 63.7826
792	 63.6136
776	 63.7012
760	 63.7478
744	 63.7497
728	 63.5901
712	 63.2113
696	 63.4771
680	 63.5439
664	 63.2919
648	 63.4099
632	 63.4476
616	 63.9679
600	 63.894
584	 64.0505
568	 62.4134
552	 63.281
536	 62.7503
520	 62.6838
504	 63.3562
488	 63.2698
472	 64.1898
456	 62.7086
440	 64.0415
424	 63.4903
408	 62.6468
392	 60.8273
376	 40.2793
370	 35.3919

File: BZ1503107-1_t51.asc
PE IR       SPECTRUM    SPECTRUM    ASCII       PEDS        1.60
  -1
BZ2D43~1.ASC
17/04/07
17:26:46.00
17/04/07
17:27:12.00
tln
$BZ1503107-1_t0051$<tbV0>[-2.6,-2.6,8.0,0.0,27,1,0]
27.028
64

2002,4.07
MIRTGS : RIGHTBACK : INTERNAL 2
MIR : ON : INTERNAL 2
OPTKBR

0.200000
8
8.000000
FILLER
RATIO
SPECTRUM
UNLOCKED 256

DOUBLE
64
COMBINED
1
0
0

0.002000
RATIO

1
0
TRUE
51149
0
LEFT NOT FITTED RIGHT NOT FITTED 0
NONE
NONE
15600
12
4.427000
51148
TRUE
1 0 8 72 0 0 0 0

15798

#HDR
-1
-1
#GR
µM
%T
2.38419e-05
0.0
2.000000
0.002000
12515
8
70.1771
39.9292
#DATA
2.000000	 64.8716
2.084000	 64.4765
2.168000	 64.6278
2.252000	 70.1771
2.336000	 65.3858
2.420000	 64.4885
2.504000	 65.007
2.588000	 65.0601
2.672000	 65.1491
2.756000	 65.109
2.840000	 65.0884
2.924000	 65.1856
3.008000	 65.1479
3.092000	 64.8096
3.176000	 64.9758
3.260000	 64.9804
3.344000	 64.8802
3.428000	 65.0352
3.512000	 65.0282
3.596000	 65.0287
3.680000	 64.9775
3.764000	 64.9575
3.848000	 64.9497
3.932000	 64.94
4.016000	 64.885
4.100000	 64.8162
4.184000	 64.8495
4.268000	 64.7759
4.352000	 64.8162
4.436000	 64.838
4.520000	 64.6597
4.604000	 64.6883
4.688000	 64.6473
4.772000	 64.8068
4.856000	 64.7977
4.940000	 64.6555
5.024000	 64.6728
5.108000	 64.5078
5.192000	 64.4785
5.276000	 64.4571
5.359999	 64.5289
5.444000	 64.545
5.528000	 64.5787
5.612000	 64.4532
5.696000	 64.4204
5.780000	 64.2116
5.864000	 64.2771
5.948000	 64.2771
6.032000	 64.2738
6.116000	 64.1723
6.200000	 64.1785
6.284000	 64.1707
6.368000	 64.1242
6.452000	 64.18
6.536000	 64.1749
6.620000	 64.0938
6.704000	 64.0744
6.788000	 64.0346
6.872000	 64.077
6.956000	 64.0956
7.040000	 64.1826
7.124000	 64.0552
7.208000	 64.0711
7.292000	 64.0943
7.376000	 64.0747
7.460000	 63.9802
7.544000	 64.0901
7.628000	 64.0011
7.712000	 64.188
7.796000	 64.0297
7.880000	 64.0908
7.964000	 63.9381
8.048000	 63.9127
8.132000	 63.9186
8.216000	 63.8902
8.300000	 63.9801
8.384000	 63.8072
8.468000	 63.9094
8.552000	 63.7511
8.635999	 63.6596
8.719999	 63.7115
8.804000	 63.7278
8.888000	 63.8126
8.972000	 63.7683
9.056000	 63.9916
9.140000	 63.9771
9.224000	 63.6788
9.308000	 63.6481
9.391999	 63.8387
9.475999	 63.6761
9.560000	 63.6021
9.644000	 63.6453
9.728000	 63.6633
9.812000	 63.6654
9.896000	 63.838
9.980000	 64.0298
10.064	63.9518
10.148	63.9165
10.232	63.806
10.316	63.7828
10.4	63.691
10.484	63.5354
10.568	63.5066
10.652	63.5556
10.736	63.7697
10.82	63.7332
10.904	63.6617
10.988	63.7247
11.072	63.87
11.156	63.9448
11.24	63.8468
11.324	63.8667
11.408	63.8602
11.492	63.7011
11.576	63.6842
11.66	63.7639
11.744	63.8392
11.828	63.8339
11.912	63.7498
11.996	63.7005
12.08	63.6477
12.164	63.7544
12.248	63.6233
12.332	63.6092
12.416	63.5284
12.5	63.4562
12.584	63.5247
12.668	63.5757
12.752	63.6763
12.836	63.8473
12.92	63.8653
13.004	63.7646
13.088	63.6156
13.172	63.5578
13.256	63.4724
13.34	63.3786
13.424	63.6158
13.508	63.7019
13.592	63.5096
13.676	63.4914
13.76	63.6215
13.844	63.6643
13.928	63.5449
14.012	63.2963
14.096	63.0589
14.18	63.0775
14.264	63.1355
14.348	63.0569
14.432	62.9503
14.516	62.9832
14.6	63.1156
14.684	63.3641
14.768	63.6866
14.852	63.6265
14.936	63.2297
15.02	63.0588
15.104	63.3302
15.188	63.8201
15.272	64.1637
15.356	64.2731
15.44	64.289
15.524	64.1452
15.608	63.834
15.692	63.7057
15.776	63.8031
15.86	63.589
15.944	62.8749
16.028	62.4501
16.112	62.8725
16.196	63.3394
16.28	62.9739
16.364	62.2765
16.448	62.1614
16.532	62.6973
16.616	63.3603
16.7	63.7263
16.784	63.7137
16.868	63.4885
16.952	63.2579
17.036	63.1918
17.12	63.3432
17.204	63.4974
17.288	63.3649
17.372	62.9573
17.456	62.5137
17.54	62.1501
17.624	61.9097
17.708	61.948
17.792	62.3622
17.876	62.9669
17.96	63.4094
18.044	63.4981
18.128	63.3465
18.212	63.1946
18.296	63.122
18.38	62.9847
18.464	62.6521
18.548	62.227
18.632	61.9566
18.716	61.991
18.8	62.3078
18.884	62.8271
18.968	63.4542
19.052	64.0158
19.136	64.2914
19.22	64.1876
19.304	63.8371
19.388	63.4858
19.472	63.2922
19.556	63.2566
19.64	63.286
19.724	63.2873
19.808	63.2209
19.892	63.1065
19.976	63.0014
20.06	62.95
20.144	62.9579
20.228	63.0055
20.312	63.0762
20.396	63.1504
20.48	63.1796
20.564	63.0988
20.648	62.8941
20.732	62.6553
20.816	62.5294
20.9	62.6167
20.984	62.9007
21.068	63.2644
21.152	63.5635
21.236	63.7044
21.32	63.6754
21.404	63.5307
21.488	63.3331
21.572	63.1214
21.656	62.9064
21.74	62.6925
21.824	62.4961
21.908	62.3477
21.992	62.2734
22.076	62.2772
22.16	62.3417
22.244	62.4407
22.328	62.5491
22.412	62.6558
22.496	62.7555
22.58	62.8542
22.664	62.9691
22.748	63.1179
22.832	63.301
22.916	63.4945
23	63.6707
23.084	63.8102
23.168	63.9282
23.252	64.0742
23.336	64.2987
23.42	64.6005
23.504	64.9146
23.588	65.1075
23.672	65.0292
23.756	64.5849
23.84	63.8079
23.924	62.8637
24.008	61.9955
24.092	61.4417
24.176	61.3212
24.26	61.5802
24.344	61.9807
24.428	62.2041
24.512	61.958
24.596	61.1081
24.68	59.749
24.764	58.2005
24.848	56.8751
24.932	56.1717
25.016	56.2883
25.1	57.184
25.184	58.5029
25.268	59.7151
25.352	60.3549
25.436	60.085
25.52	58.8522
25.604	56.8819
25.688	54.5849
25.772	52.3738
25.856	50.4942
25.94	48.9881
26.024	47.741
26.108	46.5968
26.192	45.4115
26.276	44.1197
26.36	42.7139
26.444	41.3458
26.528	40.3082
26.612	39.9333
26.696	40.5089
26.78	42.1242
26.864	44.7396
26.948	48.3135
27.028	52.6925