Folder: Masteroppgave/Bakgrunnsmateriale/MATLAB/FTIR/ftir_data/subAa/Mapping_121 (part 38)

File: BZ1503107-1_t86_cm-1.asc
PE IR       SPECTRUM    SPECTRUM    ASCII       PEDS        1.60
  -1
BZ6E26~1.ASC
17/04/07
20:16:25.00
17/04/07
20:16:25.00
tln
$BZ1503107-1_t0086$<tbV0>[-7.8,5.2,8.0,0.0,27,1,0]
370
64

2002,4.07
MIRTGS : RIGHTBACK : INTERNAL 2
MIR : ON : INTERNAL 2
OPTKBR

0.200000
8
8.000000
FILLER
RATIO
SPECTRUM
UNLOCKED 256

DOUBLE
64
COMBINED
1
0
0

1.000000
RATIO

1
0
TRUE
51149
0
LEFT NOT FITTED RIGHT NOT FITTED 0
NONE
NONE
15600
12
4.427000
51148
TRUE
1 0 8 72 0 0 0 0

15798

#HDR
-1
-1
#GR
CM-1
%T
2.38419e-05
0.0
5000
-1.000000
4631
8
89.9827
56.1762
#DATA
5000	65.0197
4984	63.5672
4968	63.8408
4952	64.9199
4936	64.3385
4920	65.0496
4904	64.8782
4888	65.3135
4872	65.0952
4856	64.6737
4840	65.2929
4824	64.8496
4808	64.9838
4792	64.9798
4776	64.708
4760	64.7698
4744	64.8763
4728	64.5352
4712	65.0769
4696	64.54
4680	64.4588
4664	64.8531
4648	64.8074
4632	64.945
4616	64.751
4600	64.3254
4584	64.4366
4568	65.0664
4552	64.6343
4536	64.9895
4520	64.8906
4504	64.3657
4488	65.6999
4472	64.1373
4456	64.7925
4440	70.4429
4424	63.3685
4408	66.3928
4392	64.2011
4376	64.2441
4360	65.0647
4344	65.283
4328	64.7012
4312	64.9508
4296	64.9229
4280	65.0098
4264	64.8151
4248	64.814
4232	64.8323
4216	64.9471
4200	65.1939
4184	64.7629
4168	64.8186
4152	64.9689
4136	64.5561
4120	65.0572
4104	65.192
4088	64.8457
4072	64.9131
4056	65.116
4040	64.8375
4024	64.8717
4008	65.1283
3992	64.9852
3976	64.8493
3960	65.0522
3944	64.9146
3928	64.4373
3912	64.8744
3896	64.9053
3880	65.1131
3864	65.0983
3848	65.0153
3832	64.833
3816	64.9655
3800	65.1617
3784	65.0535
3768	64.9282
3752	64.9542
3736	65.1241
3720	64.9786
3704	64.9678
3688	64.9782
3672	65.1179
3656	65.1213
3640	65.0078
3624	64.9765
3608	65.1762
3592	64.9796
3576	64.9589
3560	65.0878
3544	65.0259
3528	65.1749
3512	64.9512
3496	64.931
3480	65.0453
3464	64.9277
3448	65.0998
3432	64.8277
3416	64.9729
3400	64.9952
3384	64.8737
3368	65.0073
3352	65.0322
3336	65.0333
3320	64.7878
3304	64.7828
3288	64.7154
3272	64.9369
3256	64.9251
3240	64.8029
3224	65.0196
3208	64.9483
3192	64.8559
3176	64.922
3160	64.9837
3144	64.8677
3128	64.8192
3112	64.9049
3096	64.9463
3080	64.7947
3064	64.9969
3048	64.9906
3032	64.7903
3016	64.8155
3000	64.796
2984	64.8054
2968	64.747
2952	64.6348
2936	64.6611
2920	64.7547
2904	64.806
2888	64.6442
2872	64.7445
2856	64.6804
2840	64.8288
2824	64.7248
2808	64.9282
2792	64.6699
2776	64.8735
2760	64.7712
2744	64.8262
2728	64.8221
2712	64.8153
2696	64.6917
2680	64.8737
2664	64.7201
2648	64.6998
2632	64.7185
2616	64.8355
2600	64.5893
2584	64.6104
2568	64.6818
2552	64.6451
2536	64.5569
2520	64.728
2504	64.6513
2488	64.6835
2472	64.6658
2456	64.5669
2440	64.6764
2424	64.5579
2408	64.5499
2392	64.53
2376	64.4944
2360	64.5039
2344	64.5086
2328	64.5495
2312	64.5454
2296	64.3483
2280	64.4929
2264	64.526
2248	64.3953
2232	64.4624
2216	64.464
2200	64.3614
2184	64.5046
2168	64.3439
2152	64.3773
2136	64.3882
2120	64.2763
2104	64.4604
2088	64.2947
2072	64.3059
2056	64.242
2040	64.2429
2024	64.1899
2008	64.2265
1992	64.207
1976	64.3317
1960	64.1857
1944	64.1998
1928	64.0937
1912	64.1214
1896	64.0352
1880	64.1418
1864	64.1904
1848	64.1637
1832	64.0141
1816	64.0907
1800	64.0518
1784	64.0058
1768	64.114
1752	63.8414
1736	63.8006
1720	63.8462
1704	63.851
1688	63.9372
1672	63.8268
1656	63.9161
1640	63.889
1624	64.0515
1608	63.8393
1592	63.7947
1576	63.8015
1560	63.6882
1544	63.8702
1528	63.7188
1512	63.9302
1496	63.7116
1480	63.7443
1464	63.6184
1448	63.6786
1432	63.9236
1416	63.6321
1400	63.6775
1384	63.5495
1368	63.5422
1352	63.5139
1336	63.7249
1320	63.5826
1304	63.4437
1288	63.3424
1272	63.4385
1256	63.4045
1240	63.3528
1224	63.4774
1208	63.3693
1192	63.4232
1176	63.166
1160	63.2002
1144	63.2919
1128	63.0675
1112	63.2057
1096	63.2302
1080	63.2359
1064	63.2391
1048	63.2034
1032	63.166
1016	63.0136
1000	62.9693
984	 63.2743
968	 63.2774
952	 63.2151
936	 63.1981
920	 63.2359
904	 63.0616
888	 63.2548
872	 63.3251
856	 63.1856
840	 63.1397
824	 63.1027
808	 62.8821
792	 62.8947
776	 63.0767
760	 62.9392
744	 62.6942
728	 62.495
712	 62.8628
696	 62.4604
680	 63.1441
664	 62.7254
648	 62.4814
632	 62.11
616	 62.1022
600	 62.8826
584	 61.7451
568	 62.259
552	 62.2906
536	 63.6055
520	 63.1462
504	 62.8299
488	 62.8456
472	 61.7565
456	 61.2421
440	 62.2816
424	 59.3374
408	 63.7451
392	 57.8767
376	 75.0309
370	 89.9827

File: BZ1503107-1_t87.asc
PE IR       SPECTRUM    SPECTRUM    ASCII       PEDS        1.60
  -1
BZ2565~1.ASC
17/04/07
20:21:02.00
17/04/07
20:21:28.00
tln
$BZ1503107-1_t0087$<tbV0>[-10.4,5.2,8.0,0.0,27,1,0]
27.028
64

2002,4.07
MIRTGS : RIGHTBACK : INTERNAL 2
MIR : ON : INTERNAL 2
OPTKBR

0.200000
8
8.000000
FILLER
RATIO
SPECTRUM
UNLOCKED 256

DOUBLE
64
COMBINED
1
0
0

0.002000
RATIO

1
0
TRUE
51149
0
LEFT NOT FITTED RIGHT NOT FITTED 0
NONE
NONE
15600
12
4.427000
51148
TRUE
1 0 8 72 0 0 0 0

15798

#HDR
-1
-1
#GR
µM
%T
2.38419e-05
0.0
2.000000
0.002000
12515
8
68.8017
40.6801
#DATA
2.000000	 63.8935
2.084000	 63.6342
2.168000	 64.2849
2.252000	 62.5559
2.336000	 63.7717
2.420000	 64.1336
2.504000	 64.2358
2.588000	 64.5105
2.672000	 64.5652
2.756000	 64.3733
2.840000	 64.4556
2.924000	 64.3624
3.008000	 64.3871
3.092000	 64.3518
3.176000	 64.4392
3.260000	 64.5141
3.344000	 64.3399
3.428000	 64.1825
3.512000	 64.304
3.596000	 64.253
3.680000	 64.311
3.764000	 64.1143
3.848000	 64.1329
3.932000	 64.1871
4.016000	 64.2297
4.100000	 64.05
4.184000	 63.975
4.268000	 64.0793
4.352000	 63.9839
4.436000	 64.0648
4.520000	 63.9809
4.604000	 63.9187
4.688000	 63.8702
4.772000	 63.8422
4.856000	 63.899
4.940000	 63.8002
5.024000	 63.694
5.108000	 63.8146
5.192000	 63.8123
5.276000	 63.7227
5.359999	 63.7138
5.444000	 63.625
5.528000	 63.6157
5.612000	 63.6392
5.696000	 63.5989
5.780000	 63.3273
5.864000	 63.4563
5.948000	 63.4825
6.032000	 63.5353
6.116000	 63.4335
6.200000	 63.49
6.284000	 63.3633
6.368000	 63.3005
6.452000	 63.2968
6.536000	 63.3051
6.620000	 63.3656
6.704000	 63.2797
6.788000	 63.3265
6.872000	 63.3807
6.956000	 63.2774
7.040000	 63.4018
7.124000	 63.2751
7.208000	 63.2463
7.292000	 63.3059
7.376000	 63.1871
7.460000	 63.16
7.544000	 63.156
7.628000	 63.0845
7.712000	 62.9938
7.796000	 62.9975
7.880000	 63.0265
7.964000	 62.9413
8.048000	 62.8384
8.132000	 63.0251
8.216000	 62.9899
8.300000	 62.9752
8.384000	 62.876
8.468000	 62.9422
8.552000	 62.8012
8.635999	 62.9639
8.719999	 62.9647
8.804000	 62.8841
8.888000	 62.8767
8.972000	 62.9865
9.056000	 62.7671
9.140000	 62.8257
9.224000	 63.0081
9.308000	 62.8742
9.391999	 62.8975
9.475999	 62.8632
9.560000	 62.9119
9.644000	 62.8054
9.728000	 62.8618
9.812000	 63.0106
9.896000	 63.0027
9.980000	 62.8656
10.064	62.6896
10.148	62.9111
10.232	63.0406
10.316	62.8849
10.4	62.9259
10.484	62.9253
10.568	62.9176
10.652	62.9977
10.736	62.946
10.82	63.0277
10.904	62.7462
10.988	62.9043
11.072	62.9373
11.156	62.7795
11.24	62.9354
11.324	63.0695
11.408	62.9393
11.492	63.0259
11.576	62.82
11.66	62.7581
11.744	62.8351
11.828	62.7949
11.912	62.9164
11.996	62.8203
12.08	62.8133
12.164	62.9693
12.248	62.7842
12.332	62.6372
12.416	62.6478
12.5	62.6236
12.584	62.6693
12.668	62.6694
12.752	62.6192
12.836	62.7805
12.92	62.9209
13.004	62.7711
13.088	62.6818
13.172	62.6521
13.256	62.5748
13.34	62.4954
13.424	62.4344
13.508	62.4772
13.592	62.4971
13.676	62.4301
13.76	62.3841
13.844	62.4116
13.928	62.6195
14.012	62.8381
14.096	62.61
14.18	62.2697
14.264	62.2862
14.348	62.4296
14.432	62.6335
14.516	62.8371
14.6	62.8424
14.684	62.845
14.768	62.8981
14.852	62.7909
14.936	62.5213
15.02	62.2839
15.104	62.3145
15.188	62.4549
15.272	62.462
15.356	62.4161
15.44	62.3248
15.524	62.1276
15.608	61.8605
15.692	61.6076
15.776	61.5802
15.86	61.8654
15.944	62.1458
16.028	62.1739
16.112	62.1905
16.196	62.4818
16.28	62.8953
16.364	63.0488
16.448	62.8205
16.532	62.5258
16.616	62.4025
16.7	62.263
16.784	62.0191
16.868	61.923
16.952	62.029
17.036	62.0989
17.12	62.0991
17.204	62.1683
17.288	62.2593
17.372	62.3274
17.456	62.5227
17.54	62.8486
17.624	63.0341
17.708	62.9778
17.792	62.8896
17.876	62.9088
17.96	62.9516
18.044	62.9389
18.128	62.8607
18.212	62.7284
18.296	62.6434
18.38	62.736
18.464	62.8792
18.548	62.7261
18.632	62.2266
18.716	61.8119
18.8	61.8978
18.884	62.4129
18.968	62.945
19.052	63.1894
19.136	63.1688
19.22	63.092
19.304	63.1265
19.388	63.2887
19.472	63.4613
19.556	63.5028
19.64	63.3623
19.724	63.106
19.808	62.8614
19.892	62.7496
19.976	62.8159
20.06	62.9976
20.144	63.1907
20.228	63.3369
20.312	63.4268
20.396	63.4339
20.48	63.2805
20.564	62.9125
20.648	62.4044
20.732	61.9406
20.816	61.6821
20.9	61.646
20.984	61.7379
21.068	61.8753
21.152	62.0493
21.236	62.2895
21.32	62.5983
21.404	62.93
21.488	63.2226
21.572	63.4348
21.656	63.5432
21.74	63.5123
21.824	63.2838
21.908	62.8257
21.992	62.2045
22.076	61.5963
22.16	61.2275
22.244	61.2401
22.328	61.6021
22.412	62.1315
22.496	62.5949
22.58	62.8652
22.664	62.9543
22.748	62.9676
22.832	62.9895
22.916	63.0141
23	62.9693
23.084	62.8021
23.168	62.5435
23.252	62.3025
23.336	62.2044
23.42	62.2898
23.504	62.4917
23.588	62.6771
23.672	62.737
23.756	62.6421
23.84	62.4315
23.924	62.1681
24.008	61.8847
24.092	61.5551
24.176	61.1038
24.26	60.4839
24.344	59.7037
24.428	58.8379
24.512	58.0436
24.596	57.4857
24.68	57.295
24.764	57.5183
24.848	58.085
24.932	58.7996
25.016	59.4089
25.1	59.7066
25.184	59.5729
25.268	59.0515
25.352	58.3543
25.436	57.7608
25.52	57.4675
25.604	57.4881
25.688	57.6308
25.772	57.5568
25.856	56.9312
25.94	55.4867
26.024	53.1881
26.108	50.3442
26.192	47.3587
26.276	44.6386
26.36	42.5878
26.444	41.3457
26.528	40.8005
26.612	40.6807
26.696	40.8017
26.78	41.1659
26.864	42.1239
26.948	44.1749
27.028	47.4088

File: BZ1503107-1_t87_cm-1.asc
PE IR       SPECTRUM    SPECTRUM    ASCII       PEDS        1.60
  -1
BZ6F26~1.ASC
17/04/07
20:21:02.00
17/04/07
20:21:02.00
tln
$BZ1503107-1_t0087$<tbV0>[-10.4,5.2,8.0,0.0,27,1,0]
370
64

2002,4.07
MIRTGS : RIGHTBACK : INTERNAL 2
MIR : ON : INTERNAL 2
OPTKBR

0.200000
8
8.000000
FILLER
RATIO
SPECTRUM
UNLOCKED 256

DOUBLE
64
COMBINED
1
0
0

1.000000
RATIO

1
0
TRUE
51149
0
LEFT NOT FITTED RIGHT NOT FITTED 0
NONE
NONE
15600
12
4.427000
51148
TRUE
1 0 8 72 0 0 0 0

15798

#HDR
-1
-1
#GR
CM-1
%T
2.38419e-05
0.0
5000
-1.000000
4631
8
68.7953
40.6827
#DATA
5000	63.8935
4984	62.9336
4968	62.6187
4952	65.2469
4936	63.7153
4920	63.3294
4904	64.3044
4888	64.0434
4872	64.139
4856	63.9044
4840	63.6662
4824	64.0025
4808	63.4392
4792	63.635
4776	64.0563
4760	64.1846
4744	64.0926
4728	64.0759
4712	64.1117
4696	64.356
4680	64.1999
4664	63.9218
4648	64.1185
4632	64.0209
4616	64.1106
4600	64.2261
4584	64.2056
4568	63.8962
4552	63.9384
4536	64.0543
4520	63.95
4504	64.1617
4488	64.4672
4472	63.999
4456	62.9016
4440	63.8115
4424	64.4819
4408	66.4014
4392	63.2143
4376	63.4998
4360	64.6222
4344	63.989
4328	64.0966
4312	64.3121
4296	64.2313
4280	63.7756
4264	64.2774
4248	64.4091
4232	64.0282
4216	64.5771
4200	64.175
4184	63.9066
4168	64.1794
4152	63.9828
4136	63.9792
4120	64.319
4104	64.329
4088	64.4855
4072	64.3206
4056	64.4949
4040	64.2352
4024	64.5005
4008	64.4851
3992	64.2801
3976	64.3897
3960	64.2418
3944	64.2908
3928	64.1241
3912	64.3055
3896	64.382
3880	64.2043
3864	64.5104
3848	64.336
3832	64.1807
3816	64.2874
3800	64.4295
3784	64.6191
3768	64.3453
3752	64.2991
3736	64.5351
3720	64.2759
3704	64.5527
3688	64.4339
3672	64.5895
3656	64.417
3640	64.4539
3624	64.2429
3608	64.4267
3592	64.4977
3576	64.3253
3560	64.4964
3544	64.3581
3528	64.4324
3512	64.4156
3496	64.3703
3480	64.3149
3464	64.4947
3448	64.5254
3432	64.1521
3416	64.3693
3400	64.3421
3384	64.3268
3368	64.3862
3352	64.3716
3336	64.3599
3320	64.2514
3304	64.3513
3288	64.1424
3272	64.3198
3256	64.2424
3240	64.3264
3224	64.3758
3208	64.4129
3192	64.2391
3176	64.3402
3160	64.4576
3144	64.3386
3128	64.2533
3112	64.4083
3096	64.1989
3080	64.3513
3064	64.5297
3048	64.4501
3032	64.3823
3016	64.3
3000	64.1418
2984	64.2899
2968	64.0469
2952	64.0709
2936	64.16
2920	64.1518
2904	64.2969
2888	64.2405
2872	64.2101
2856	64.2724
2840	64.2497
2824	64.2412
2808	64.3411
2792	64.2745
2776	64.3112
2760	64.4384
2744	64.2713
2728	64.3715
2712	64.2122
2696	64.1956
2680	64.3151
2664	64.0921
2648	64.1523
2632	64.1873
2616	64.2835
2600	64.1091
2584	64.1234
2568	64.1652
2552	64.1129
2536	64.1606
2520	64.204
2504	64.13
2488	64.2407
2472	64.1471
2456	64.1063
2440	64.0522
2424	64.1071
2408	64.1788
2392	63.9916
2376	63.9816
2360	64.0727
2344	64.0815
2328	64.0656
2312	64.1007
2296	63.9682
2280	64.0429
2264	64.1277
2248	64.0021
2232	64.0307
2216	63.977
2200	63.9603
2184	64.0305
2168	63.9134
2152	63.902
2136	63.8588
2120	63.8806
2104	63.9187
2088	63.8752
2072	63.8582
2056	63.8237
2040	63.8206
2024	63.806
2008	63.8088
1992	63.677
1976	63.6677
1960	63.8267
1944	63.831
1928	63.8061
1912	63.8475
1896	63.7214
1880	63.7461
1864	63.7237
1848	63.751
1832	63.6478
1816	63.6553
1800	63.7288
1784	63.6463
1768	63.679
1752	63.5147
1736	63.2655
1720	63.4509
1704	63.4336
1688	63.5163
1672	63.3208
1656	63.5623
1640	63.5544
1624	63.573
1608	63.3306
1592	63.3718
1576	63.329
1560	63.3243
1544	63.3419
1528	63.3088
1512	63.3478
1496	63.3096
1480	63.3196
1464	63.32
1448	63.1494
1432	63.4033
1416	63.2625
1400	63.3097
1384	63.1395
1368	63.3107
1352	63.1965
1336	63.2304
1320	63.1866
1304	63.0737
1288	62.9988
1272	63.0572
1256	62.932
1240	62.8337
1224	63.0039
1208	63.0192
1192	62.8602
1176	62.8889
1160	62.9375
1144	62.9666
1128	62.8513
1112	62.9592
1096	62.7766
1080	62.9044
1064	62.8855
1048	62.9317
1032	62.873
1016	63.1129
1000	62.8181
984	 62.953
968	 62.8813
952	 62.903
936	 62.9283
920	 62.8401
904	 62.9565
888	 62.9831
872	 63.006
856	 62.7912
840	 62.9065
824	 62.9541
808	 62.6412
792	 62.6837
776	 62.9063
760	 62.6604
744	 62.4344
728	 62.3919
712	 62.807
696	 62.4686
680	 62.8635
664	 62.2632
648	 62.3379
632	 61.7138
616	 62.6755
600	 62.3363
584	 62.1001
568	 63.0172
552	 62.8761
536	 62.0699
520	 63.0883
504	 62.796
488	 63.2419
472	 62.1384
456	 62.675
440	 62.9651
424	 62.6722
408	 58.0617
392	 57.4841
376	 40.6827
370	 47.4088

File: BZ1503107-1_t88.asc
PE IR       SPECTRUM    SPECTRUM    ASCII       PEDS        1.60
  -1
BZ2965~1.ASC
17/04/07
20:25:39.00
17/04/07
20:26:06.00
tln
$BZ1503107-1_t0088$<tbV0>[-13.0,5.2,8.0,0.0,27,1,0]
27.028
64

2002,4.07
MIRTGS : RIGHTBACK : INTERNAL 2
MIR : ON : INTERNAL 2
OPTKBR

0.200000
8
8.000000
FILLER
RATIO
SPECTRUM
UNLOCKED 256

DOUBLE
64
COMBINED
1
0
0

0.002000
RATIO

1
0
TRUE
51149
0
LEFT NOT FITTED RIGHT NOT FITTED 0
NONE
NONE
15600
12
4.427000
51148
TRUE
1 0 8 72 0 0 0 0

15798

#HDR
-1
-1
#GR
µM
%T
2.38419e-05
0.0
2.000000
0.002000
12515
8
71.3338
43.6634
#DATA
2.000000	 64.2308
2.084000	 64.9865
2.168000	 65.3416
2.252000	 51.9178
2.336000	 65.3605
2.420000	 65.1967
2.504000	 65.123
2.588000	 65.2721
2.672000	 65.3468
2.756000	 65.1787
2.840000	 65.1935
2.924000	 65.1971
3.008000	 65.344
3.092000	 65.0995
3.176000	 65.1431
3.260000	 65.1723
3.344000	 65.0354
3.428000	 64.7855
3.512000	 64.945
3.596000	 65.0792
3.680000	 64.9862
3.764000	 64.9176
3.848000	 64.8968
3.932000	 64.7903
4.016000	 64.8106
4.100000	 64.7942
4.184000	 64.662
4.268000	 64.6015
4.352000	 64.5145
4.436000	 64.6651
4.520000	 64.6304
4.604000	 64.5388
4.688000	 64.655
4.772000	 64.5104
4.856000	 64.4929
4.940000	 64.3509
5.024000	 64.3721
5.108000	 64.4365
5.192000	 64.3363
5.276000	 64.3543
5.359999	 64.2826
5.444000	 64.2207
5.528000	 64.2382
5.612000	 64.1377
5.696000	 63.9299
5.780000	 63.1243
5.864000	 63.8556
5.948000	 64.0298
6.032000	 63.9532
6.116000	 63.94
6.200000	 64.0907
6.284000	 63.8927
6.368000	 63.9901
6.452000	 63.8255
6.536000	 64.0091
6.620000	 63.9171
6.704000	 63.9015
6.788000	 63.8138
6.872000	 63.6425
6.956000	 63.7313
7.040000	 63.6804
7.124000	 63.6022
7.208000	 63.6966
7.292000	 63.5784
7.376000	 63.6251
7.460000	 63.7327
7.544000	 63.7884
7.628000	 63.5083
7.712000	 63.5479
7.796000	 63.414
7.880000	 63.35
7.964000	 63.1927
8.048000	 63.2501
8.132000	 63.2187
8.216000	 63.3184
8.300000	 63.3909
8.384000	 63.3408
8.468000	 63.0676
8.552000	 62.9918
8.635999	 63.0948
8.719999	 63.2126
8.804000	 63.4025
8.888000	 63.2052
8.972000	 63.4355
9.056000	 63.2691
9.140000	 63.2506
9.224000	 63.2321
9.308000	 63.1851
9.391999	 63.2151
9.475999	 63.1914
9.560000	 63.2349
9.644000	 63.0924
9.728000	 63.0638
9.812000	 63.0225
9.896000	 63.1701
9.980000	 63.245
10.064	63.2138
10.148	63.2603
10.232	63.3537
10.316	63.2245
10.4	63.3373
10.484	63.1196
10.568	63.156
10.652	63.3696
10.736	63.425
10.82	63.4079
10.904	63.3233
10.988	63.2651
11.072	63.2575
11.156	63.1999
11.24	63.3279
11.324	63.4524
11.408	63.2405
11.492	63.2037
11.576	63.2258
11.66	63.2178
11.744	63.2398
11.828	63.2436
11.912	63.2148
11.996	63.2106
12.08	63.2246
12.164	63.0028
12.248	63.0539
12.332	63.063
12.416	63.027
12.5	62.907
12.584	62.9586
12.668	63.2233
12.752	63.2845
12.836	63.3375
12.92	63.3566
13.004	63.1948
13.088	63.036
13.172	63.0511
13.256	63.1823
13.34	63.2236
13.424	63.1077
13.508	63.038
13.592	62.9909
13.676	62.8592
13.76	62.7672
13.844	62.7543
13.928	62.933
14.012	63.2004
14.096	63.0982
14.18	62.857
14.264	62.8583
14.348	62.9439
14.432	63.0273
14.516	63.1233
14.6	63.2472
14.684	63.4205
14.768	63.5655
14.852	63.4908
14.936	63.1708
15.02	62.9316
15.104	63.018
15.188	63.1618
15.272	63.0769
15.356	62.9045
15.44	62.8044
15.524	62.6536
15.608	62.3632
15.692	62.1404
15.776	62.2266
15.86	62.4849
15.944	62.5681
16.028	62.4888
16.112	62.5615
16.196	62.8807
16.28	63.2144
16.364	63.3558
16.448	63.4127
16.532	63.5285
16.616	63.4655
16.7	62.9772
16.784	62.3844
16.868	62.1552
16.952	62.2202
17.036	62.2657
17.12	62.3115
17.204	62.5469
17.288	62.9153
17.372	63.1354
17.456	63.0331
17.54	62.754
17.624	62.6112
17.708	62.7402
17.792	62.9496
17.876	62.8831
17.96	62.4507
18.044	61.9975
18.128	61.9498
18.212	62.3269
18.296	62.7651
18.38	62.9501
18.464	62.9014
18.548	62.8218
18.632	62.8371
18.716	62.9275
18.8	63.0225
18.884	63.044
18.968	62.9021
19.052	62.5876
19.136	62.293
19.22	62.288
19.304	62.5589
19.388	62.7156
19.472	62.366
19.556	61.5542
19.64	60.7456
19.724	60.3804
19.808	60.5393
19.892	61.0233
19.976	61.6002
20.06	62.1219
20.144	62.4932
20.228	62.6715
20.312	62.7004
20.396	62.6901
20.48	62.7074
20.564	62.7217
20.648	62.678
20.732	62.5976
20.816	62.5535
20.9	62.5639
20.984	62.5448
21.068	62.3871
21.152	62.0591
21.236	61.6393
21.32	61.26
21.404	61.0119
21.488	60.8973
21.572	60.8767
21.656	60.938
21.74	61.1109
21.824	61.4184
21.908	61.8094
21.992	62.1486
22.076	62.2828
22.16	62.1361
22.244	61.7748
22.328	61.3582
22.412	61.0484
22.496	60.9397
22.58	61.0556
22.664	61.3948
22.748	61.9408
22.832	62.6315
22.916	63.3445
23	63.9072
23.084	64.1787
23.168	64.1332
23.252	63.8822
23.336	63.6069
23.42	63.4397
23.504	63.3976
23.588	63.3906
23.672	63.3101
23.756	63.1048
23.84	62.7984
23.924	62.4809
24.008	62.2619
24.092	62.2388
24.176	62.486
24.26	63.0276
24.344	63.8036
24.428	64.6611
24.512	65.3673
24.596	65.6604
24.68	65.357
24.764	64.4649
24.848	63.1678
24.932	61.7721
25.016	60.5838
25.1	59.8179
25.184	59.5414
25.268	59.686
25.352	60.145
25.436	60.8333
25.52	61.7104
25.604	62.7536
25.688	63.9444
25.772	65.2258
25.856	66.4668
25.94	67.4921
26.024	68.0565
26.108	67.8807
26.192	66.7454
26.276	64.5375
26.36	61.3155
26.444	57.2958
26.528	52.8916
26.612	48.6674
26.696	45.3616
26.78	43.7357
26.864	44.3946
26.948	47.521
27.028	52.3396

File: BZ1503107-1_t88_cm-1.asc
PE IR       SPECTRUM    SPECTRUM    ASCII       PEDS        1.60
  -1
BZ6036~1.ASC
17/04/07
20:25:39.00
17/04/07
20:25:39.00
tln
$BZ1503107-1_t0088$<tbV0>[-13.0,5.2,8.0,0.0,27,1,0]
370
64

2002,4.07
MIRTGS : RIGHTBACK : INTERNAL 2
MIR : ON : INTERNAL 2
OPTKBR

0.200000
8
8.000000
FILLER
RATIO
SPECTRUM
UNLOCKED 256

DOUBLE
64
COMBINED
1
0
0

1.000000
RATIO

1
0
TRUE
51149
0
LEFT NOT FITTED RIGHT NOT FITTED 0
NONE
NONE
15600
12
4.427000
51148
TRUE
1 0 8 72 0 0 0 0

15798

#HDR
-1
-1
#GR
CM-1
%T
2.38419e-05
0.0
5000
-1.000000
4631
8
72.2717
43.682
#DATA
5000	64.2308
4984	65.8149
4968	64.9036
4952	67.0531
4936	65.6573
4920	64.3341
4904	64.3384
4888	64.9217
4872	65.8114
4856	65.4378
4840	64.9462
4824	65.2948
4808	65.0305
4792	64.954
4776	65.2102
4760	64.9403
4744	65.2985
4728	65.3518
4712	65.4338
4696	65.2863
4680	64.6821
4664	65.2463
4648	64.8698
4632	65.3551
4616	65.2926
4600	65.4555
4584	65.399
4568	65.4327
4552	65.4584
4536	65.8015
4520	65.3324
4504	65.2932
4488	65.3123
4472	65.503
4456	63.2323
4440	52.624
4424	64.1936
4408	67.4489
4392	64.7956
4376	65.2804
4360	65.7138
4344	65.3336
4328	65.2223
4312	65.5155
4296	65.4489
4280	65.3664
4264	65.2722
4248	65.1684
4232	65.1683
4216	65.2337
4200	65.2633
4184	65.0325
4168	65.2831
4152	65.2082
4136	65.1075
4120	65.2189
4104	65.005
4088	65.1361
4072	65.2009
4056	65.163
4040	65.0973
4024	65.3016
4008	65.405
3992	65.0867
3976	64.9496
3960	65.3409
3944	65.2431
3928	65.3198
3912	65.6609
3896	65.6341
3880	65.2939
3864	65.272
3848	65.1748
3832	65.2108
3816	65.1711
3800	65.3916
3784	65.4582
3768	65.332
3752	65.3292
3736	65.3695
3720	65.2657
3704	65.3065
3688	65.3885
3672	65.4053
3656	65.3357
3640	65.3927
3624	65.1191
3608	65.3281
3592	65.1879
3576	65.1873
3560	65.335
3544	65.3262
3528	65.361
3512	65.2501
3496	65.2189
3480	65.239
3464	65.4341
3448	65.2104
3432	65.1426
3416	65.1672
3400	65.1912
3384	65.3415
3368	65.233
3352	65.2601
3336	65.1761
3320	65.2982
3304	65.2997
3288	65.0897
3272	65.0977
3256	65.1548
3240	64.9911
3224	65.229
3208	65.1587
3192	65.095
3176	65.08
3160	65.1325
3144	65.24
3128	65.1521
3112	65.0746
3096	64.9759
3080	64.9322
3064	65.2133
3048	65.2544
3032	65.1614
3016	65.0477
3000	64.9923
2984	64.8789
2968	64.7089
2952	64.6327
2936	64.7351
2920	64.7495
2904	64.8739
2888	64.7162
2872	64.8259
2856	64.7433
2840	65.0039
2824	65.0429
2808	65.1369
2792	64.9402
2776	65.0804
2760	65.0967
2744	64.9202
2728	64.8239
2712	65.0641
2696	65.1038
2680	65.052
2664	64.865
2648	65.0483
2632	64.8837
2616	64.9299
2600	64.8957
2584	65.0205
2568	64.8553
2552	64.8327
2536	64.8308
2520	64.9512
2504	64.8402
2488	64.8094
2472	64.8908
2456	64.9292
2440	64.7832
2424	64.7802
2408	64.8358
2392	64.661
2376	64.6347
2360	64.6586
2344	64.5887
2328	64.7129
2312	64.7392
2296	64.5087
2280	64.6233
2264	64.6392
2248	64.6431
2232	64.5809
2216	64.5974
2200	64.5516
2184	64.5781
2168	64.4974
2152	64.5085
2136	64.6199
2120	64.5203
2104	64.515
2088	64.5171
2072	64.4471
2056	64.5165
2040	64.4608
2024	64.3507
2008	64.4739
1992	64.3771
1976	64.3358
1960	64.4269
1944	64.3782
1928	64.3492
1912	64.4355
1896	64.3522
1880	64.411
1864	64.2503
1848	64.3633
1832	64.2401
1816	64.2121
1800	64.2118
1784	64.1661
1768	64.2502
1752	63.7789
1736	62.9561
1720	63.6477
1704	63.8591
1688	64.1098
1672	63.9619
1656	63.9474
1640	63.9468
1624	64.0748
1608	63.9685
1592	63.8908
1576	63.9321
1560	63.9917
1544	63.9553
1528	64.004
1512	63.9451
1496	63.9107
1480	63.8215
1464	63.6456
1448	63.6565
1432	63.7917
1416	63.7148
1400	63.5592
1384	63.6147
1368	63.623
1352	63.617
1336	63.7387
1320	63.6786
1304	63.589
1288	63.5602
1272	63.3813
1256	63.1871
1240	63.2347
1224	63.3111
1208	63.3484
1192	63.315
1176	62.9903
1160	63.0924
1144	63.3193
1128	63.1418
1112	63.4245
1096	63.2448
1080	63.1662
1064	63.1982
1048	63.2126
1032	63.06
1016	63.0815
1000	63.2493
984	 63.2738
968	 63.2074
952	 63.0209
936	 63.3631
920	 63.3384
904	 63.2571
888	 63.3838
872	 63.1875
856	 63.2283
840	 63.2179
824	 63.0681
808	 63.0445
792	 63.0983
776	 63.3763
760	 63.0342
744	 63.0835
728	 62.7855
712	 63.2129
696	 62.9632
680	 63.4682
664	 62.9384
648	 62.813
632	 62.3742
616	 63.0471
600	 63.2143
584	 62.3165
568	 62.6186
552	 61.9254
536	 62.8591
520	 62.312
504	 60.7071
488	 62.7109
472	 61.8904
456	 61.9092
440	 61.7891
424	 63.3918
408	 65.3534
392	 61.5994
376	 49.4304
370	 52.3396