Folder: Masteroppgave/Bakgrunnsmateriale/MATLAB/FTIR/ftir_data/subAa/Mapping_121 (part 14)

File: BZ1503107-1_t26_cm-1.asc
PE IR       SPECTRUM    SPECTRUM    ASCII       PEDS        1.60
  -1
BZ6E23~1.ASC
17/04/07
15:23:42.00
17/04/07
15:23:42.00
tln
$BZ1503107-1_t0026$<tbV0>[5.2,-7.8,8.0,0.0,27,1,0]
370
64

2002,4.07
MIRTGS : RIGHTBACK : INTERNAL 2
MIR : ON : INTERNAL 2
OPTKBR

0.200000
8
8.000000
FILLER
RATIO
SPECTRUM
UNLOCKED 256

DOUBLE
64
COMBINED
1
0
0

1.000000
RATIO

1
0
TRUE
51149
0
LEFT NOT FITTED RIGHT NOT FITTED 0
NONE
NONE
15600
12
4.427000
51148
TRUE
1 0 8 72 0 0 0 0

15798

#HDR
-1
-1
#GR
CM-1
%T
2.38419e-05
0.0
5000
-1.000000
4631
8
83.3973
41.6247
#DATA
5000	66.1422
4984	64.9889
4968	64.3999
4952	64.6713
4936	64.2865
4920	65.4585
4904	65.2072
4888	64.6235
4872	64.8214
4856	65.0988
4840	64.7674
4824	64.9641
4808	64.6814
4792	64.7953
4776	64.5243
4760	64.8147
4744	64.7686
4728	64.8746
4712	65.2853
4696	64.9669
4680	65.1511
4664	64.7142
4648	64.8419
4632	64.7975
4616	64.7352
4600	64.9343
4584	64.7747
4568	65.4653
4552	65.057
4536	65.7961
4520	65.6137
4504	65.8799
4488	65.6463
4472	65.3671
4456	65.7736
4440	65.1745
4424	41.6247
4408	67.4942
4392	65.9714
4376	65.7782
4360	64.8254
4344	65.5297
4328	64.9164
4312	65.449
4296	65.2967
4280	65.0876
4264	65.2575
4248	65.0223
4232	65.0663
4216	64.9348
4200	65.1859
4184	64.9541
4168	65.4192
4152	65.0425
4136	64.6941
4120	64.9264
4104	65.173
4088	64.7104
4072	64.96
4056	64.9136
4040	65.3328
4024	64.9464
4008	65.3055
3992	65.5057
3976	65.0831
3960	65.1234
3944	65.0575
3928	64.9919
3912	65.4866
3896	65.0971
3880	65.0558
3864	64.9625
3848	65.1541
3832	65.0208
3816	65.2975
3800	65.1654
3784	64.9975
3768	65.0581
3752	65.0553
3736	65.1118
3720	65.354
3704	65.1073
3688	65.0462
3672	65.0828
3656	65.1744
3640	65.0815
3624	65.2495
3608	65.401
3592	65.2745
3576	65.0685
3560	65.0118
3544	65.3113
3528	65.0695
3512	65.1955
3496	65.1095
3480	65.158
3464	65.0675
3448	65.0854
3432	65.2233
3416	65.1817
3400	65.3484
3384	65.3289
3368	65.0871
3352	65.3792
3336	65.2959
3320	65.1219
3304	64.9916
3288	65.0246
3272	65.0165
3256	65.0505
3240	65.1375
3224	65.1014
3208	65.0992
3192	64.9435
3176	65.0581
3160	65.2691
3144	64.9518
3128	64.9475
3112	65.077
3096	65.221
3080	65.2051
3064	65.1869
3048	65.1168
3032	64.9768
3016	65.2131
3000	65.1093
2984	65.0308
2968	64.9127
2952	65.1044
2936	64.9305
2920	64.9826
2904	65.1498
2888	65.0454
2872	65.0936
2856	64.9682
2840	65.0311
2824	65.189
2808	65.0514
2792	65.1037
2776	65.0535
2760	65.0672
2744	65.0552
2728	64.9628
2712	64.9265
2696	65.0942
2680	65.0213
2664	65.0641
2648	65.1022
2632	64.9849
2616	64.9772
2600	64.9979
2584	64.9606
2568	65.029
2552	65.094
2536	65.0851
2520	64.947
2504	65.1408
2488	64.9328
2472	64.9359
2456	64.8784
2440	64.908
2424	64.8588
2408	64.8804
2392	65.0508
2376	64.8055
2360	64.9441
2344	64.9146
2328	64.8802
2312	64.9565
2296	64.8444
2280	64.8691
2264	64.8704
2248	64.9562
2232	64.9247
2216	64.9009
2200	65.0227
2184	64.8897
2168	65.0203
2152	64.8929
2136	64.8995
2120	64.8941
2104	64.7737
2088	64.8133
2072	64.9351
2056	64.7199
2040	64.7085
2024	64.8493
2008	64.8613
1992	64.7433
1976	64.8201
1960	64.7283
1944	64.831
1928	64.7437
1912	64.7784
1896	64.7367
1880	64.6831
1864	64.8135
1848	64.773
1832	64.7405
1816	64.6641
1800	64.7581
1784	64.7291
1768	64.5631
1752	64.5416
1736	64.1788
1720	64.4127
1704	64.603
1688	64.7526
1672	64.6335
1656	64.4935
1640	64.4679
1624	64.4447
1608	64.5339
1592	64.421
1576	64.5365
1560	64.6796
1544	64.4447
1528	64.4158
1512	64.5133
1496	64.4725
1480	64.5354
1464	64.3341
1448	64.4713
1432	64.2778
1416	64.4205
1400	64.3109
1384	64.2668
1368	64.2764
1352	64.2493
1336	64.3524
1320	64.4509
1304	64.2512
1288	64.3186
1272	64.1851
1256	64.1535
1240	64.1574
1224	63.9676
1208	64.172
1192	64.161
1176	64.145
1160	64.0326
1144	64.0474
1128	63.8727
1112	64.2135
1096	63.9705
1080	64.0371
1064	64.1315
1048	64.2927
1032	64.0449
1016	64.1834
1000	64.258
984	 64.2524
968	 64.2691
952	 64.2786
936	 64.3608
920	 64.1017
904	 64.0507
888	 64.1461
872	 64.2171
856	 64.4098
840	 64.1264
824	 64.2818
808	 63.8015
792	 64.2049
776	 64.1092
760	 63.7132
744	 63.799
728	 64.2185
712	 63.7659
696	 63.5612
680	 63.5832
664	 63.622
648	 62.7597
632	 64.4327
616	 62.9373
600	 63.6469
584	 63.8394
568	 64.5642
552	 63.9965
536	 63.1599
520	 63.45
504	 64.5252
488	 64.3897
472	 63.9306
456	 63.8206
440	 62.5307
424	 64.3603
408	 64.8359
392	 81.2775
376	 80.723
370	 70.744

File: BZ1503107-1_t27.asc
PE IR       SPECTRUM    SPECTRUM    ASCII       PEDS        1.60
  -1
BZ2569~1.ASC
17/04/07
15:28:19.00
17/04/07
15:28:46.00
tln
$BZ1503107-1_t0027$<tbV0>[2.6,-7.8,8.0,0.0,27,1,0]
27.028
64

2002,4.07
MIRTGS : RIGHTBACK : INTERNAL 2
MIR : ON : INTERNAL 2
OPTKBR

0.200000
8
8.000000
FILLER
RATIO
SPECTRUM
UNLOCKED 256

DOUBLE
64
COMBINED
1
0
0

0.002000
RATIO

1
0
TRUE
51149
0
LEFT NOT FITTED RIGHT NOT FITTED 0
NONE
NONE
15600
12
4.427000
51148
TRUE
1 0 8 72 0 0 0 0

15798

#HDR
-1
-1
#GR
µM
%T
2.38419e-05
0.0
2.000000
0.002000
12515
8
81.245
24.9181
#DATA
2.000000	 64.9051
2.084000	 65.0988
2.168000	 64.8262
2.252000	 64.5078
2.336000	 64.6044
2.420000	 65.0794
2.504000	 65.1382
2.588000	 64.9869
2.672000	 65.2006
2.756000	 65.2275
2.840000	 65.2498
2.924000	 65.2291
3.008000	 65.1609
3.092000	 65.0984
3.176000	 64.9715
3.260000	 65.2456
3.344000	 65.0088
3.428000	 64.9344
3.512000	 64.9408
3.596000	 64.9821
3.680000	 65.0147
3.764000	 65.0059
3.848000	 64.9611
3.932000	 64.9433
4.016000	 65.0817
4.100000	 64.8977
4.184000	 64.9584
4.268000	 64.883
4.352000	 64.8014
4.436000	 64.7872
4.520000	 64.9344
4.604000	 64.8327
4.688000	 64.7388
4.772000	 64.8038
4.856000	 64.7555
4.940000	 64.8246
5.024000	 64.7719
5.108000	 64.7671
5.192000	 64.6646
5.276000	 64.563
5.359999	 64.6701
5.444000	 64.7504
5.528000	 64.701
5.612000	 64.5158
5.696000	 64.4975
5.780000	 64.0847
5.864000	 64.5085
5.948000	 64.5399
6.032000	 64.4416
6.116000	 64.5209
6.200000	 64.3692
6.284000	 64.4217
6.368000	 64.4299
6.452000	 64.4156
6.536000	 64.5727
6.620000	 64.5702
6.704000	 64.3913
6.788000	 64.3895
6.872000	 64.251
6.956000	 64.3552
7.040000	 64.4359
7.124000	 64.3557
7.208000	 64.2182
7.292000	 64.3195
7.376000	 64.2402
7.460000	 64.3854
7.544000	 64.1959
7.628000	 64.1717
7.712000	 64.1409
7.796000	 64.2281
7.880000	 64.0335
7.964000	 64.088
8.048000	 64.1288
8.132000	 64.1497
8.216000	 64.0188
8.300000	 64.0325
8.384000	 64.0922
8.468000	 64.0593
8.552000	 63.9716
8.635999	 63.9962
8.719999	 63.8662
8.804000	 64.0345
8.888000	 63.8553
8.972000	 64.0055
9.056000	 64.0249
9.140000	 64.0451
9.224000	 64.1198
9.308000	 63.9972
9.391999	 64.0379
9.475999	 63.947
9.560000	 64.0426
9.644000	 63.9669
9.728000	 64.1516
9.812000	 64.1281
9.896000	 63.9492
9.980000	 63.9034
10.064	64.1652
10.148	63.9396
10.232	64.1577
10.316	64.0928
10.4	64.1691
10.484	64.2423
10.568	64.2882
10.652	63.9268
10.736	64.0716
10.82	64.076
10.904	64.0992
10.988	64.102
11.072	63.9515
11.156	64.0029
11.24	64.0548
11.324	64.1081
11.408	64.2375
11.492	64.0547
11.576	64.1156
11.66	63.9874
11.744	63.7751
11.828	63.7401
11.912	64.082
11.996	64.1866
12.08	63.9891
12.164	63.9028
12.248	63.7927
12.332	63.8591
12.416	63.8608
12.5	64.0355
12.584	64.2915
12.668	64.3536
12.752	64.2672
12.836	63.9983
12.92	63.8638
13.004	63.8507
13.088	64.0613
13.172	64.1417
13.256	63.9034
13.34	63.9146
13.424	64.0005
13.508	63.9059
13.592	64.1071
13.676	64.208
13.76	63.863
13.844	63.4867
13.928	63.3484
14.012	63.3295
14.096	63.5792
14.18	63.9422
14.264	63.8648
14.348	63.81
14.432	64.3632
14.516	64.7345
14.6	64.2218
14.684	63.4423
14.768	63.0939
14.852	63.3043
14.936	63.8273
15.02	64.1951
15.104	64.0484
15.188	63.5333
15.272	63.0949
15.356	62.9698
15.44	63.2268
15.524	63.7741
15.608	64.2564
15.692	64.4921
15.776	64.6597
15.86	64.849
15.944	64.9487
16.028	64.8346
16.112	64.4809
16.196	64.1026
16.28	63.9532
16.364	63.964
16.448	64.0026
16.532	64.1723
16.616	64.4601
16.7	64.5734
16.784	64.369
16.868	64.0202
16.952	63.7511
17.036	63.6492
17.12	63.6977
17.204	63.8494
17.288	64.0139
17.372	64.0564
17.456	63.907
17.54	63.6735
17.624	63.5558
17.708	63.6363
17.792	63.8229
17.876	63.9702
17.96	64.0622
18.044	64.2028
18.128	64.4098
18.212	64.5265
18.296	64.3902
18.38	64.0386
18.464	63.7024
18.548	63.5893
18.632	63.6817
18.716	63.7785
18.8	63.727
18.884	63.5879
18.968	63.5067
19.052	63.499
19.136	63.4725
19.22	63.4176
19.304	63.4513
19.388	63.6634
19.472	63.9992
19.556	64.3026
19.64	64.4493
19.724	64.4128
19.808	64.2441
19.892	64.0217
19.976	63.8051
20.06	63.6133
20.144	63.4478
20.228	63.3337
20.312	63.318
20.396	63.4287
20.48	63.6462
20.564	63.9161
20.648	64.1818
20.732	64.3918
20.816	64.4913
20.9	64.429
20.984	64.2045
21.068	63.8842
21.152	63.576
21.236	63.3656
21.32	63.2926
21.404	63.36
21.488	63.5557
21.572	63.8475
21.656	64.16
21.74	64.3925
21.824	64.4646
21.908	64.3712
21.992	64.1795
22.076	63.958
22.16	63.7124
22.244	63.3798
22.328	62.8907
22.412	62.2362
22.496	61.5069
22.58	60.8427
22.664	60.3627
22.748	60.1154
22.832	60.0852
22.916	60.2453
23	60.602
23.084	61.1887
23.168	62.0013
23.252	62.935
23.336	63.7795
23.42	64.2792
23.504	64.2628
23.588	63.7389
23.672	62.8908
23.756	62.0319
23.84	61.4487
23.924	61.3065
24.008	61.5863
24.092	62.1082
24.176	62.6546
24.26	63.0816
24.344	63.3519
24.428	63.5326
24.512	63.764
24.596	64.1466
24.68	64.7363
24.764	65.5666
24.848	66.6135
24.932	67.8913
25.016	69.441
25.1	71.2063
25.184	73.0255
25.268	74.6598
25.352	75.8647
25.436	76.5193
25.52	76.7394
25.604	76.8357
25.688	77.191
25.772	78.0272
25.856	79.2484
25.94	80.4882
26.024	81.2103
26.108	80.9209
26.192	79.3924
26.276	76.6609
26.36	73.0004
26.444	68.7383
26.528	64.077
26.612	59.0482
26.696	53.475
26.78	47.0865
26.864	39.8204
26.948	32.0331
27.028	24.9181

File: BZ1503107-1_t27_cm-1.asc
PE IR       SPECTRUM    SPECTRUM    ASCII       PEDS        1.60
  -1
BZ6F23~1.ASC
17/04/07
15:28:19.00
17/04/07
15:28:19.00
tln
$BZ1503107-1_t0027$<tbV0>[2.6,-7.8,8.0,0.0,27,1,0]
370
64

2002,4.07
MIRTGS : RIGHTBACK : INTERNAL 2
MIR : ON : INTERNAL 2
OPTKBR

0.200000
8
8.000000
FILLER
RATIO
SPECTRUM
UNLOCKED 256

DOUBLE
64
COMBINED
1
0
0

1.000000
RATIO

1
0
TRUE
51149
0
LEFT NOT FITTED RIGHT NOT FITTED 0
NONE
NONE
15600
12
4.427000
51148
TRUE
1 0 8 72 0 0 0 0

15798

#HDR
-1
-1
#GR
CM-1
%T
2.38419e-05
0.0
5000
-1.000000
4631
8
81.2448
24.9181
#DATA
5000	64.9051
4984	64.5679
4968	64.5431
4952	64.2942
4936	64.5668
4920	64.2093
4904	64.395
4888	64.5779
4872	65.0011
4856	65.1852
4840	64.8802
4824	65.0328
4808	65.0378
4792	64.959
4776	64.9218
4760	65.1349
4744	65.2709
4728	65.2765
4712	65.4479
4696	65.1149
4680	64.989
4664	64.9277
4648	65.3782
4632	64.4964
4616	64.6898
4600	64.448
4584	64.2965
4568	64.7004
4552	64.1619
4536	64.5915
4520	64.0583
4504	64.1158
4488	63.9126
4472	64.0639
4456	65.1448
4440	64.6539
4424	73.6128
4408	62.9941
4392	65.4367
4376	64.8367
4360	64.2663
4344	64.3934
4328	64.0509
4312	64.369
4296	64.774
4280	64.5472
4264	64.4504
4248	64.8113
4232	64.925
4216	64.7743
4200	65.0784
4184	64.663
4168	64.7992
4152	65.0136
4136	65.2509
4120	65.0057
4104	65.3422
4088	65.0946
4072	65.0522
4056	65.1968
4040	65.1828
4024	65.2363
4008	65.1223
3992	65.1607
3976	65.2972
3960	65.2468
3944	65.0744
3928	65.0572
3912	65.0857
3896	65.2504
3880	64.9795
3864	64.9869
3848	65.0391
3832	64.9962
3816	64.7971
3800	65.3549
3784	64.8945
3768	65.3307
3752	65.1198
3736	65.0128
3720	65.0988
3704	65.2256
3688	65.2077
3672	65.379
3656	65.4847
3640	65.015
3624	65.2299
3608	65.1498
3592	65.3412
3576	65.0148
3560	65.0659
3544	64.9493
3528	65.1062
3512	65.155
3496	64.9663
3480	64.9902
3464	65.1266
3448	64.897
3432	65.0115
3416	65.0472
3400	65.1586
3384	65.2677
3368	65.0818
3352	65.1477
3336	65.1999
3320	65.2216
3304	64.9958
3288	65.0369
3272	65.0864
3256	65.019
3240	65.1727
3224	65.1732
3208	65.0448
3192	65.0295
3176	65.1166
3160	65.189
3144	64.9562
3128	65.2473
3112	65.1197
3096	65.1185
3080	65.1831
3064	65.2388
3048	65.083
3032	64.8654
3016	65.0033
3000	65.1159
2984	65.01
2968	64.779
2952	64.9732
2936	64.8088
2920	64.947
2904	64.9026
2888	64.9562
2872	65.024
2856	65.059
2840	64.9129
2824	65.0558
2808	64.9117
2792	65.2187
2776	65.0406
2760	65.0468
2744	65.0805
2728	65.0732
2712	65.0642
2696	65.05
2680	65.0757
2664	65.0006
2648	64.9384
2632	64.9929
2616	64.9122
2600	64.9268
2584	64.9918
2568	64.9444
2552	65.0661
2536	65.0393
2520	64.9504
2504	64.8185
2488	65.049
2472	64.8783
2456	64.8203
2440	64.8883
2424	65.1498
2408	65.0717
2392	64.944
2376	64.7861
2360	64.958
2344	64.872
2328	64.9046
2312	64.9142
2296	64.8283
2280	64.8231
2264	64.8616
2248	64.8059
2232	64.9365
2216	64.9263
2200	64.9313
2184	64.9387
2168	64.8448
2152	64.7727
2136	64.7165
2120	64.8472
2104	64.8263
2088	64.7385
2072	64.7749
2056	64.7853
2040	64.8693
2024	64.8263
2008	64.8853
1992	64.7693
1976	64.7751
1960	64.7525
1944	64.7527
1928	64.6517
1912	64.7298
1896	64.5671
1880	64.6079
1864	64.6323
1848	64.6904
1832	64.659
1816	64.7395
1800	64.6683
1784	64.4936
1768	64.5209
1752	64.4707
1736	64.0934
1720	64.1806
1704	64.5561
1688	64.5805
1672	64.5785
1656	64.409
1640	64.441
1624	64.3625
1608	64.4914
1592	64.4217
1576	64.4958
1560	64.5254
1544	64.352
1528	64.5542
1512	64.5788
1496	64.3996
1480	64.4727
1464	64.254
1448	64.2545
1432	64.4372
1416	64.3407
1400	64.2489
1384	64.2185
1368	64.282
1352	64.2873
1336	64.3839
1320	64.2277
1304	64.1399
1288	64.248
1272	64.0708
1256	64.0895
1240	64.1119
1224	64.0358
1208	64.0227
1192	64.0906
1176	64.0321
1160	64.0359
1144	63.9573
1128	63.9274
1112	63.9996
1096	64.0499
1080	64.0532
1064	64.0278
1048	64.0631
1032	64.0838
1016	64.0822
1000	64.0033
984	 63.9668
968	 64.1022
952	 64.2735
936	 63.9433
920	 64.0757
904	 63.96
888	 64.041
872	 64.0912
856	 63.917
840	 64.0442
824	 63.9476
808	 63.8729
792	 64.337
776	 63.8932
760	 64.1614
744	 63.9821
728	 63.9862
712	 63.383
696	 63.8925
680	 63.2961
664	 64.1939
648	 63.1865
632	 64.7679
616	 64.0033
600	 64.5669
584	 63.7021
568	 63.5644
552	 64.3809
536	 63.72
520	 63.4142
504	 64.1581
488	 63.6822
472	 63.4745
456	 64.3272
440	 60.1548
424	 63.765
408	 63.7562
392	 76.7252
376	 60.0569
370	 24.9181

File: BZ1503107-1_t28.asc
PE IR       SPECTRUM    SPECTRUM    ASCII       PEDS        1.60
  -1
BZ2969~1.ASC
17/04/07
15:32:57.00
17/04/07
15:33:23.00
tln
$BZ1503107-1_t0028$<tbV0>[0.0,-7.8,8.0,0.0,27,1,0]
27.028
64

2002,4.07
MIRTGS : RIGHTBACK : INTERNAL 2
MIR : ON : INTERNAL 2
OPTKBR

0.200000
8
8.000000
FILLER
RATIO
SPECTRUM
UNLOCKED 256

DOUBLE
64
COMBINED
1
0
0

0.002000
RATIO

1
0
TRUE
51149
0
LEFT NOT FITTED RIGHT NOT FITTED 0
NONE
NONE
15600
12
4.427000
51148
TRUE
1 0 8 72 0 0 0 0

15798

#HDR
-1
-1
#GR
µM
%T
2.38419e-05
0.0
2.000000
0.002000
12515
8
75.3229
54.908
#DATA
2.000000	 65.5046
2.084000	 64.5062
2.168000	 64.917
2.252000	 65.4765
2.336000	 65.0257
2.420000	 64.9343
2.504000	 65.1442
2.588000	 65.1786
2.672000	 65.1374
2.756000	 65.0284
2.840000	 65.049
2.924000	 65.1122
3.008000	 65.2316
3.092000	 64.9965
3.176000	 65.0349
3.260000	 65.0704
3.344000	 65.1194
3.428000	 64.8959
3.512000	 64.8765
3.596000	 64.9589
3.680000	 65.0639
3.764000	 64.9994
3.848000	 64.9081
3.932000	 64.9051
4.016000	 64.9971
4.100000	 64.9494
4.184000	 65.0583
4.268000	 64.8731
4.352000	 64.9194
4.436000	 64.8165
4.520000	 64.8392
4.604000	 64.7817
4.688000	 64.8564
4.772000	 64.8202
4.856000	 64.7414
4.940000	 64.8233
5.024000	 64.7088
5.108000	 64.7198
5.192000	 64.6658
5.276000	 64.6825
5.359999	 64.7005
5.444000	 64.7302
5.528000	 64.6043
5.612000	 64.6144
5.696000	 64.4051
5.780000	 64.2344
5.864000	 64.5159
5.948000	 64.5596
6.032000	 64.4028
6.116000	 64.5609
6.200000	 64.3003
6.284000	 64.3746
6.368000	 64.5473
6.452000	 64.3805
6.536000	 64.4823
6.620000	 64.5431
6.704000	 64.5454
6.788000	 64.4243
6.872000	 64.2669
6.956000	 64.5218
7.040000	 64.389
7.124000	 64.3047
7.208000	 64.3382
7.292000	 64.3868
7.376000	 64.1779
7.460000	 64.3111
7.544000	 64.2583
7.628000	 64.2508
7.712000	 64.155
7.796000	 64.1625
7.880000	 64.1851
7.964000	 64.2287
8.048000	 64.1502
8.132000	 64.1874
8.216000	 64.2852
8.300000	 64.148
8.384000	 63.9713
8.468000	 64.1136
8.552000	 64.0938
8.635999	 64.2105
8.719999	 64.1038
8.804000	 64.0724
8.888000	 63.9727
8.972000	 64.0518
9.056000	 64.1477
9.140000	 64.1352
9.224000	 64.0629
9.308000	 64.2312
9.391999	 64.1311
9.475999	 64.068
9.560000	 64.0764
9.644000	 64.0228
9.728000	 64.0816
9.812000	 64.1943
9.896000	 64.2093
9.980000	 64.0403
10.064	64.177
10.148	64.1289
10.232	64.2999
10.316	64.2349
10.4	64.1503
10.484	64.086
10.568	64.1158
10.652	64.0993
10.736	64.0622
10.82	64.0671
10.904	64.3425
10.988	64.1172
11.072	64.1833
11.156	64.1765
11.24	64.2792
11.324	64.2996
11.408	64.1645
11.492	64.06
11.576	64.1142
11.66	64.059
11.744	64.2555
11.828	63.9782
11.912	63.9558
11.996	64.0286
12.08	63.9495
12.164	63.9072
12.248	63.7449
12.332	63.8896
12.416	64.0828
12.5	64.0614
12.584	64.1456
12.668	64.1442
12.752	64.0955
12.836	64.0794
12.92	63.9177
13.004	63.7693
13.088	63.8022
13.172	63.8797
13.256	63.7761
13.34	63.8469
13.424	63.9615
13.508	63.9266
13.592	63.7737
13.676	63.6797
13.76	63.7531
13.844	63.8749
13.928	63.7239
14.012	63.5343
14.096	63.7637
14.18	63.9665
14.264	63.9443
14.348	64.0181
14.432	63.8286
14.516	63.6332
14.6	63.8504
14.684	63.9438
14.768	63.7787
14.852	63.5476
14.936	63.4814
15.02	63.7055
15.104	63.5766
15.188	63.1983
15.272	63.276
15.356	63.2938
15.44	62.8766
15.524	62.7225
15.608	63.1779
15.692	63.8578
15.776	64.2
15.86	64.1195
15.944	64.0789
16.028	64.1775
16.112	64.0544
16.196	63.7059
16.28	63.5162
16.364	63.7233
16.448	64.1802
16.532	64.5592
16.616	64.7515
16.7	64.8407
16.784	64.7967
16.868	64.6151
16.952	64.4469
17.036	64.3861
17.12	64.3753
17.204	64.3167
17.288	64.1803
17.372	64.0814
17.456	64.1426
17.54	64.224
17.624	64.0757
17.708	63.7567
17.792	63.5707
17.876	63.6485
17.96	63.8461
18.044	64.0296
18.128	64.1906
18.212	64.325
18.296	64.378
18.38	64.3255
18.464	64.2218
18.548	64.1384
18.632	64.0813
18.716	64.0024
18.8	63.8815
18.884	63.7756
18.968	63.7467
19.052	63.7566
19.136	63.6981
19.22	63.5401
19.304	63.3908
19.388	63.3996
19.472	63.6191
19.556	63.9634
19.64	64.2858
19.724	64.4713
19.808	64.4647
19.892	64.2653
19.976	63.9291
20.06	63.5865
20.144	63.4074
20.228	63.4999
20.312	63.817
20.396	64.1853
20.48	64.4509
20.564	64.5968
20.648	64.7058
20.732	64.8145
20.816	64.8316
20.9	64.6121
20.984	64.1179
21.068	63.485
21.152	62.9353
21.236	62.6168
21.32	62.5309
21.404	62.5899
21.488	62.725
21.572	62.9255
21.656	63.1911
21.74	63.4669
21.824	63.6424
21.908	63.6221
21.992	63.4017
22.076	63.0759
22.16	62.7718
22.244	62.5442
22.328	62.3631
22.412	62.1623
22.496	61.9171
22.58	61.6727
22.664	61.5068
22.748	61.4765
22.832	61.5789
22.916	61.763
23	61.9354
23.084	61.9993
23.168	61.8877
23.252	61.6
23.336	61.2077
23.42	60.8601
23.504	60.7334
23.588	60.9555
23.672	61.5394
23.756	62.3466
23.84	63.147
23.924	63.7008
24.008	63.8549
24.092	63.6057
24.176	63.1185
24.26	62.6659
24.344	62.5384
24.428	62.881
24.512	63.6217
24.596	64.4851
24.68	65.1021
24.764	65.178
24.848	64.6239
24.932	63.5828
25.016	62.3583
25.1	61.2655
25.184	60.4738
25.268	59.9615
25.352	59.6336
25.436	59.3974
25.52	59.2716
25.604	59.3991
25.688	59.963
25.772	61.0329
25.856	62.4759
25.94	64.0354
26.024	65.394
26.108	66.2751
26.192	66.5817
26.276	66.3547
26.36	65.7049
26.444	64.7203
26.528	63.4571
26.612	61.9539
26.696	60.3476
26.78	58.8938
26.864	58.0871
26.948	58.5553
27.028	60.6462

File: BZ1503107-1_t28_cm-1.asc
PE IR       SPECTRUM    SPECTRUM    ASCII       PEDS        1.60
  -1
BZ6033~1.ASC
17/04/07
15:32:57.00
17/04/07
15:32:57.00
tln
$BZ1503107-1_t0028$<tbV0>[0.0,-7.8,8.0,0.0,27,1,0]
370
64

2002,4.07
MIRTGS : RIGHTBACK : INTERNAL 2
MIR : ON : INTERNAL 2
OPTKBR

0.200000
8
8.000000
FILLER
RATIO
SPECTRUM
UNLOCKED 256

DOUBLE
64
COMBINED
1
0
0

1.000000
RATIO

1
0
TRUE
51149
0
LEFT NOT FITTED RIGHT NOT FITTED 0
NONE
NONE
15600
12
4.427000
51148
TRUE
1 0 8 72 0 0 0 0

15798

#HDR
-1
-1
#GR
CM-1
%T
2.38419e-05
0.0
5000
-1.000000
4631
8
76.5192
54.583
#DATA
5000	65.5046
4984	64.9658
4968	64.6512
4952	64.3014
4936	64.4835
4920	64.9981
4904	64.5289
4888	65.1399
4872	65.0806
4856	64.8961
4840	64.6759
4824	64.7549
4808	64.6069
4792	64.5682
4776	64.4847
4760	65.1762
4744	65.0317
4728	65.0418
4712	65.3939
4696	64.8951
4680	65.0491
4664	64.9764
4648	65.0546
4632	64.5711
4616	64.8898
4600	64.6449
4584	64.8515
4568	64.7062
4552	64.4557
4536	64.8557
4520	65.0361
4504	64.6404
4488	64.6678
4472	64.1012
4456	64.588
4440	65.7029
4424	71.4978
4408	67.7825
4392	64.0048
4376	65.0905
4360	64.3818
4344	64.7573
4328	64.514
4312	64.9484
4296	64.8596
4280	64.9979
4264	64.7542
4248	64.5259
4232	64.9986
4216	65.0335
4200	65.1119
4184	64.7541
4168	64.786
4152	65.0581
4136	65.0237
4120	65.1049
4104	65.046
4088	65.1838
4072	64.9335
4056	64.8023
4040	65.049
4024	65.0689
4008	65.2684
3992	65.09
3976	65.0895
3960	65.1633
3944	65.0111
3928	65.1799
3912	65.237
3896	65.1385
3880	64.9487
3864	65.1789
3848	65.131
3832	65.1976
3816	65.1069
3800	65.4285
3784	65.0545
3768	65.2035
3752	65.2148
3736	65.0692
3720	65.3114
3704	65.1859
3688	65.0334
3672	65.0809
3656	65.1571
3640	65.066
3624	65.0439
3608	65.2201
3592	65.1449
3576	64.903
3560	65.014
3544	65.0048
3528	65.0178
3512	65.1559
3496	65.0135
3480	65.0827
3464	64.8388
3448	65.1196
3432	65.0933
3416	65.0422
3400	65.1552
3384	65.1177
3368	65.0902
3352	65.3612
3336	65.3352
3320	65.1045
3304	65.1565
3288	64.9351
3272	65.2585
3256	64.9481
3240	64.9854
3224	65.1379
3208	65.16
3192	64.9165
3176	64.918
3160	65.0311
3144	64.9087
3128	64.9359
3112	65.0075
3096	65.2564
3080	65.0926
3064	65.1091
3048	65.1212
3032	64.992
3016	64.8617
3000	65.19
2984	65.1738
2968	64.9379
2952	65.018
2936	64.9544
2920	64.9155
2904	64.9792
2888	64.9401
2872	65.0176
2856	64.8764
2840	64.974
2824	65.0468
2808	65.0239
2792	65.0679
2776	65.0832
2760	65.059
2744	65.045
2728	64.9446
2712	64.9429
2696	65.1277
2680	65.0304
2664	64.9415
2648	64.931
2632	64.9528
2616	64.9229
2600	64.897
2584	64.9504
2568	64.9976
2552	64.9823
2536	64.9616
2520	64.9472
2504	65.0275
2488	64.9894
2472	64.9448
2456	64.8942
2440	64.9304
2424	64.9901
2408	64.9095
2392	65.0653
2376	64.9789
2360	64.9167
2344	64.8539
2328	64.8758
2312	64.9445
2296	64.9009
2280	64.9042
2264	64.8193
2248	64.8197
2232	64.9211
2216	64.9141
2200	64.8478
2184	64.9602
2168	64.7306
2152	64.7514
2136	64.7922
2120	64.7702
2104	64.8633
2088	64.7733
2072	64.658
2056	64.7697
2040	64.8106
2024	64.8246
2008	64.8325
1992	64.7253
1976	64.7092
1960	64.7361
1944	64.8797
1928	64.6527
1912	64.6058
1896	64.6781
1880	64.7017
1864	64.6731
1848	64.748
1832	64.6523
1816	64.6943
1800	64.7077
1784	64.6153
1768	64.6291
1752	64.4137
1736	64.3064
1720	64.4201
1704	64.5484
1688	64.6692
1672	64.6178
1656	64.3423
1640	64.5362
1624	64.4017
1608	64.4591
1592	64.3764
1576	64.5387
1560	64.6638
1544	64.4177
1528	64.4543
1512	64.5336
1496	64.4534
1480	64.4516
1464	64.3983
1448	64.2373
1432	64.4469
1416	64.3401
1400	64.2572
1384	64.3586
1368	64.3481
1352	64.1594
1336	64.314
1320	64.2797
1304	64.2428
1288	64.2104
1272	64.1524
1256	64.2311
1240	64.1378
1224	64.2227
1208	64.1348
1192	63.9682
1176	64.1797
1160	64.2526
1144	64.099
1128	63.9573
1112	64.0465
1096	64.1193
1080	64.0747
1064	64.1216
1048	64.0602
1032	64.0323
1016	64.2428
1000	64.0852
984	 64.1582
968	 64.2304
952	 64.0837
936	 64.1101
920	 64.2806
904	 64.1763
888	 64.2942
872	 64.0491
856	 64.1283
840	 63.9434
824	 63.9378
808	 64.0255
792	 64.179
776	 63.9834
760	 63.8868
744	 63.9698
728	 63.7137
712	 63.5785
696	 64.0087
680	 63.9146
664	 63.7205
648	 62.917
632	 64.1812
616	 63.5783
600	 64.8166
584	 64.3744
568	 64.1314
552	 64.1683
536	 64.0627
520	 63.5174
504	 64.4072
488	 64.4774
472	 62.7733
456	 63.5818
440	 61.4706
424	 60.9406
408	 63.5999
392	 59.2756
376	 62.2565
370	 60.6462