Folder: Masteroppgave/Bakgrunnsmateriale/MATLAB/FTIR/ftir_data/subAa/Mapping_121 (part 51)

File: BZ1503107-1_t119.asc
PE IR       SPECTRUM    SPECTRUM    ASCII       PEDS        1.60
  -1
BZEAB6~1.ASC
17/04/07
23:02:13.00
17/04/07
23:02:39.00
tln
$BZ1503107-1_t0119$<tbV0>[-7.8,13.0,8.0,0.0,27,1,0]
27.028
64

2002,4.07
MIRTGS : RIGHTBACK : INTERNAL 2
MIR : ON : INTERNAL 2
OPTKBR

0.200000
8
8.000000
FILLER
RATIO
SPECTRUM
UNLOCKED 256

DOUBLE
64
COMBINED
1
0
0

0.002000
RATIO

1
0
TRUE
51149
0
LEFT NOT FITTED RIGHT NOT FITTED 0
NONE
NONE
15600
12
4.427000
51148
TRUE
1 0 8 72 0 0 0 0

15798

#HDR
-1
-1
#GR
µM
%T
2.38419e-05
0.0
2.000000
0.002000
12515
8
74.5786
58.8138
#DATA
2.000000	 64.4112
2.084000	 64.7823
2.168000	 64.8739
2.252000	 63.6594
2.336000	 64.926
2.420000	 64.9281
2.504000	 64.8192
2.588000	 64.9441
2.672000	 64.9933
2.756000	 65.2695
2.840000	 64.7774
2.924000	 64.7994
3.008000	 65.0159
3.092000	 64.8793
3.176000	 64.7914
3.260000	 64.6996
3.344000	 64.6937
3.428000	 64.5174
3.512000	 64.6157
3.596000	 64.6014
3.680000	 64.5688
3.764000	 64.4152
3.848000	 64.5229
3.932000	 64.4867
4.016000	 64.3148
4.100000	 64.4548
4.184000	 64.3711
4.268000	 64.2405
4.352000	 64.3349
4.436000	 64.2289
4.520000	 64.2826
4.604000	 64.1582
4.688000	 64.0426
4.772000	 64.0084
4.856000	 63.898
4.940000	 63.8599
5.024000	 63.8294
5.108000	 63.8251
5.192000	 63.878
5.276000	 63.7905
5.359999	 63.7314
5.444000	 63.7918
5.528000	 63.6803
5.612000	 63.6698
5.696000	 63.4641
5.780000	 63.3522
5.864000	 63.5763
5.948000	 63.5858
6.032000	 63.5106
6.116000	 63.4112
6.200000	 63.3349
6.284000	 63.3247
6.368000	 63.3944
6.452000	 63.2448
6.536000	 63.3012
6.620000	 63.2954
6.704000	 63.2477
6.788000	 63.0896
6.872000	 63.0655
6.956000	 63.0154
7.040000	 63.0777
7.124000	 63.0869
7.208000	 63.0285
7.292000	 62.9293
7.376000	 62.9658
7.460000	 63.0676
7.544000	 63.051
7.628000	 62.9932
7.712000	 63.017
7.796000	 62.9715
7.880000	 62.8258
7.964000	 62.7182
8.048000	 62.756
8.132000	 62.817
8.216000	 62.787
8.300000	 62.7044
8.384000	 62.7846
8.468000	 62.7664
8.552000	 62.5865
8.635999	 62.6442
8.719999	 62.5421
8.804000	 62.5696
8.888000	 62.5251
8.972000	 62.6679
9.056000	 62.6681
9.140000	 62.3815
9.224000	 62.505
9.308000	 62.6049
9.391999	 62.6481
9.475999	 62.5287
9.560000	 62.4096
9.644000	 62.5207
9.728000	 62.5781
9.812000	 62.4758
9.896000	 62.4299
9.980000	 62.4287
10.064	62.3893
10.148	62.3571
10.232	62.4002
10.316	62.3799
10.4	62.2962
10.484	62.2995
10.568	62.3692
10.652	62.5012
10.736	62.4919
10.82	62.3851
10.904	62.4828
10.988	62.4625
11.072	62.3784
11.156	62.3936
11.24	62.2738
11.324	62.291
11.408	62.3091
11.492	62.3113
11.576	62.2169
11.66	62.3258
11.744	62.3479
11.828	62.2392
11.912	62.1334
11.996	62.0359
12.08	62.2574
12.164	62.3757
12.248	62.3839
12.332	62.2471
12.416	62.1749
12.5	62.2982
12.584	62.2928
12.668	62.237
12.752	62.2406
12.836	62.0016
12.92	61.9019
13.004	62.0591
13.088	62.0867
13.172	62.0105
13.256	61.9479
13.34	61.9809
13.424	62.0232
13.508	61.96
13.592	61.8824
13.676	61.8993
13.76	61.8899
13.844	61.8435
13.928	61.9958
14.012	61.9714
14.096	61.6301
14.18	61.4666
14.264	61.539
14.348	61.7635
14.432	62.0147
14.516	61.9089
14.6	61.6168
14.684	61.5866
14.768	61.6535
14.852	61.5992
14.936	61.5191
15.02	61.5967
15.104	61.8704
15.188	62.0316
15.272	61.8631
15.356	61.5724
15.44	61.3013
15.524	60.945
15.608	60.7553
15.692	61.1752
15.776	61.8677
15.86	62.0457
15.944	61.5912
16.028	61.0047
16.112	60.6576
16.196	60.5602
16.28	60.6018
16.364	60.7601
16.448	61.0254
16.532	61.3285
16.616	61.5563
16.7	61.4858
16.784	60.9994
16.868	60.422
16.952	60.1492
17.036	60.19
17.12	60.3632
17.204	60.4995
17.288	60.4035
17.372	60.0495
17.456	59.775
17.54	59.9364
17.624	60.4272
17.708	60.8686
17.792	61.1361
17.876	61.4132
17.96	61.7817
18.044	62.0391
18.128	61.9539
18.212	61.6181
18.296	61.414
18.38	61.6116
18.464	62.0627
18.548	62.3452
18.632	62.1742
18.716	61.676
18.8	61.2276
18.884	61.0573
18.968	61.0837
19.052	61.102
19.136	61.0039
19.22	60.8174
19.304	60.6686
19.388	60.6899
19.472	60.9005
19.556	61.1525
19.64	61.2259
19.724	61.0257
19.808	60.6729
19.892	60.4033
19.976	60.3755
20.06	60.5651
20.144	60.8245
20.228	61.0083
20.312	61.0672
20.396	61.041
20.48	60.9915
20.564	60.9422
20.648	60.8789
20.732	60.7884
20.816	60.6901
20.9	60.631
20.984	60.6479
21.068	60.7368
21.152	60.8564
21.236	60.9588
21.32	61.0188
21.404	61.0342
21.488	61.0047
21.572	60.9059
21.656	60.7024
21.74	60.3877
21.824	60.0194
21.908	59.7213
21.992	59.6224
22.076	59.7799
22.16	60.1343
22.244	60.5237
22.328	60.7764
22.412	60.7918
22.496	60.5856
22.58	60.2547
22.664	59.9064
22.748	59.5985
22.832	59.3292
22.916	59.0859
23	58.8921
23.084	58.814
23.168	58.9271
23.252	59.2526
23.336	59.7327
23.42	60.2367
23.504	60.6305
23.588	60.8341
23.672	60.839
23.756	60.6936
23.84	60.4585
23.924	60.1853
24.008	59.9099
24.092	59.6736
24.176	59.5508
24.26	59.6125
24.344	59.8886
24.428	60.3412
24.512	60.8726
24.596	61.3605
24.68	61.7283
24.764	61.9967
24.848	62.2832
24.932	62.7317
25.016	63.406
25.1	64.2381
25.184	65.0374
25.268	65.5743
25.352	65.6758
25.436	65.3357
25.52	64.7579
25.604	64.2711
25.688	64.2576
25.772	65.0027
25.856	66.5643
25.94	68.6612
26.024	70.7116
26.108	72.0529
26.192	72.1835
26.276	70.9713
26.36	68.7606
26.444	66.2219
26.528	64.0926
26.612	62.8772
26.696	62.7903
26.78	63.762
26.864	65.4206
26.948	67.1828
27.028	68.3148

File: BZ1503107-1_t119_cm-1.asc
PE IR       SPECTRUM    SPECTRUM    ASCII       PEDS        1.60
  -1
BZ4CF9~1.ASC
17/04/07
23:02:13.00
17/04/07
23:02:13.00
tln
$BZ1503107-1_t0119$<tbV0>[-7.8,13.0,8.0,0.0,27,1,0]
370
64

2002,4.07
MIRTGS : RIGHTBACK : INTERNAL 2
MIR : ON : INTERNAL 2
OPTKBR

0.200000
8
8.000000
FILLER
RATIO
SPECTRUM
UNLOCKED 256

DOUBLE
64
COMBINED
1
0
0

1.000000
RATIO

1
0
TRUE
51149
0
LEFT NOT FITTED RIGHT NOT FITTED 0
NONE
NONE
15600
12
4.427000
51148
TRUE
1 0 8 72 0 0 0 0

15798

#HDR
-1
-1
#GR
CM-1
%T
2.38419e-05
0.0
5000
-1.000000
4631
8
75.4431
58.8168
#DATA
5000	64.4112
4984	64.835
4968	64.6738
4952	64.6826
4936	65.1117
4920	65.2128
4904	64.8081
4888	64.8484
4872	64.791
4856	64.9801
4840	64.8487
4824	64.8649
4808	64.625
4792	64.7211
4776	64.536
4760	64.8863
4744	65.2809
4728	64.7268
4712	64.7181
4696	64.6618
4680	64.7341
4664	64.9794
4648	65.0555
4632	65.0381
4616	64.8141
4600	64.5267
4584	64.7733
4568	64.7467
4552	64.0258
4536	64.4398
4520	64.313
4504	64.1422
4488	63.842
4472	63.8668
4456	64.9257
4440	63.8895
4424	65.3837
4408	65.9585
4392	64.6791
4376	64.3424
4360	64.7259
4344	64.7027
4328	64.7094
4312	64.4753
4296	64.6311
4280	64.8946
4264	64.4419
4248	64.6059
4232	64.8717
4216	65.0426
4200	64.8799
4184	64.7763
4168	64.9322
4152	64.9129
4136	64.7351
4120	64.9896
4104	65.2547
4088	64.7865
4072	65.229
4056	65.0863
4040	64.8427
4024	64.9388
4008	64.8232
3992	64.8233
3976	64.8561
3960	64.8342
3944	65.064
3928	64.6698
3912	64.9562
3896	64.7319
3880	64.9482
3864	64.944
3848	64.7855
3832	64.9882
3816	64.9453
3800	65.0049
3784	64.695
3768	65.076
3752	64.9433
3736	64.9277
3720	65.0515
3704	65.0245
3688	65.039
3672	64.9346
3656	65.0254
3640	65.0069
3624	65.1112
3608	64.9518
3592	64.9737
3576	64.9168
3560	64.9394
3544	64.6854
3528	64.5769
3512	64.7868
3496	64.7449
3480	64.884
3464	64.7443
3448	64.9463
3432	64.9331
3416	64.8825
3400	64.8731
3384	64.7189
3368	64.9532
3352	64.8991
3336	64.8499
3320	64.8802
3304	64.8168
3288	64.8219
3272	64.8359
3256	64.9199
3240	64.8923
3224	64.7205
3208	64.7231
3192	64.9779
3176	64.8943
3160	64.8872
3144	64.7625
3128	64.6626
3112	64.7456
3096	64.8403
3080	64.784
3064	64.764
3048	64.6595
3032	64.7493
3016	64.7758
3000	64.8031
2984	64.7363
2968	64.724
2952	64.5604
2936	64.5343
2920	64.5569
2904	64.4056
2888	64.6145
2872	64.5251
2856	64.5724
2840	64.5421
2824	64.5408
2808	64.6835
2792	64.5898
2776	64.5954
2760	64.5442
2744	64.6003
2728	64.6168
2712	64.6247
2696	64.4923
2680	64.5043
2664	64.4467
2648	64.492
2632	64.3357
2616	64.5627
2600	64.5224
2584	64.491
2568	64.5004
2552	64.465
2536	64.4764
2520	64.4261
2504	64.4166
2488	64.3313
2472	64.3253
2456	64.3957
2440	64.4385
2424	64.2311
2408	64.3106
2392	64.3805
2376	64.3156
2360	64.2855
2344	64.2297
2328	64.4298
2312	64.3204
2296	64.3307
2280	64.2064
2264	64.1949
2248	64.2402
2232	64.1275
2216	64.2651
2200	64.2006
2184	64.0752
2168	64.0864
2152	64.0754
2136	64.0881
2120	64.1382
2104	64.0641
2088	63.9412
2072	64.0228
2056	63.918
2040	63.9305
2024	63.8574
2008	63.9019
1992	63.8417
1976	63.8439
1960	63.8427
1944	63.8654
1928	63.9003
1912	63.8403
1896	63.7897
1880	63.8181
1864	63.7437
1848	63.8227
1832	63.8162
1816	63.6878
1800	63.8111
1784	63.6583
1768	63.6844
1752	63.4805
1736	63.2697
1720	63.3842
1704	63.5816
1688	63.6135
1672	63.4902
1656	63.488
1640	63.4218
1624	63.3845
1608	63.3593
1592	63.325
1576	63.3424
1560	63.2857
1544	63.2487
1528	63.3019
1512	63.2767
1496	63.2465
1480	63.1512
1464	63.0816
1448	63.1687
1432	63.0833
1416	63.1236
1400	63.1064
1384	62.993
1368	62.9853
1352	63.0061
1336	63.069
1320	63.0419
1304	62.9647
1288	62.9301
1272	62.85
1256	62.7173
1240	62.7503
1224	62.8078
1208	62.7477
1192	62.8069
1176	62.6278
1160	62.6526
1144	62.5648
1128	62.5518
1112	62.7165
1096	62.4478
1080	62.6405
1064	62.6405
1048	62.4198
1032	62.5916
1016	62.463
1000	62.4145
984	 62.3799
968	 62.3787
952	 62.3135
936	 62.5214
920	 62.4266
904	 62.3772
888	 62.2801
872	 62.34
856	 62.363
840	 62.1521
824	 62.3471
808	 62.1899
792	 62.2422
776	 61.8939
760	 62.0247
744	 62.0185
728	 61.9066
712	 61.8486
696	 61.8342
680	 61.6099
664	 61.7159
648	 61.3295
632	 62.0606
616	 60.5653
600	 61.5652
584	 60.3703
568	 60.312
552	 61.9881
536	 62.0458
520	 60.7932
504	 60.5432
488	 60.9846
472	 60.9026
456	 59.6722
440	 59.6702
424	 60.8302
408	 60.8589
392	 64.8257
376	 63.0254
370	 68.3148

File: BZ1503107-1_t120.asc
PE IR       SPECTRUM    SPECTRUM    ASCII       PEDS        1.60
  -1
BZCEB2~1.ASC
17/04/07
23:06:50.00
17/04/07
23:07:17.00
tln
$BZ1503107-1_t0120$<tbV0>[-10.4,13.0,8.0,0.0,27,1,0]
27.028
64

2002,4.07
MIRTGS : RIGHTBACK : INTERNAL 2
MIR : ON : INTERNAL 2
OPTKBR

0.200000
8
8.000000
FILLER
RATIO
SPECTRUM
UNLOCKED 256

DOUBLE
64
COMBINED
1
0
0

0.002000
RATIO

1
0
TRUE
51149
0
LEFT NOT FITTED RIGHT NOT FITTED 0
NONE
NONE
15600
12
4.427000
51148
TRUE
1 0 8 72 0 0 0 0

15798

#HDR
-1
-1
#GR
µM
%T
2.38419e-05
0.0
2.000000
0.002000
12515
8
70.4693
50.7772
#DATA
2.000000	 66.8204
2.084000	 64.8287
2.168000	 65.1097
2.252000	 57.2588
2.336000	 65.3114
2.420000	 64.7849
2.504000	 64.6836
2.588000	 65.0112
2.672000	 65.1542
2.756000	 65.0581
2.840000	 64.9013
2.924000	 64.8713
3.008000	 64.8867
3.092000	 64.7277
3.176000	 64.8248
3.260000	 64.6702
3.344000	 64.6951
3.428000	 64.4966
3.512000	 64.7456
3.596000	 64.5954
3.680000	 64.6558
3.764000	 64.4785
3.848000	 64.5564
3.932000	 64.4414
4.016000	 64.3502
4.100000	 64.4903
4.184000	 64.421
4.268000	 64.3341
4.352000	 64.3556
4.436000	 64.2381
4.520000	 64.2002
4.604000	 64.1388
4.688000	 64.1898
4.772000	 64.0655
4.856000	 64.0303
4.940000	 63.9271
5.024000	 63.9078
5.108000	 63.8341
5.192000	 63.8176
5.276000	 63.7968
5.359999	 63.7833
5.444000	 63.7394
5.528000	 63.7926
5.612000	 63.6226
5.696000	 63.578
5.780000	 63.347
5.864000	 63.5672
5.948000	 63.4666
6.032000	 63.5222
6.116000	 63.4406
6.200000	 63.2821
6.284000	 63.4105
6.368000	 63.3579
6.452000	 63.3397
6.536000	 63.3325
6.620000	 63.3572
6.704000	 63.3211
6.788000	 63.1375
6.872000	 63.2046
6.956000	 63.2342
7.040000	 63.1152
7.124000	 63.1819
7.208000	 63.0588
7.292000	 63.0415
7.376000	 63.1518
7.460000	 63.1964
7.544000	 63.1266
7.628000	 63.0161
7.712000	 63.0479
7.796000	 62.9077
7.880000	 62.9385
7.964000	 62.8897
8.048000	 62.8422
8.132000	 62.8447
8.216000	 62.8527
8.300000	 62.7864
8.384000	 62.8471
8.468000	 62.7668
8.552000	 62.5985
8.635999	 62.7602
8.719999	 62.5819
8.804000	 62.7031
8.888000	 62.6783
8.972000	 62.7446
9.056000	 62.5699
9.140000	 62.4533
9.224000	 62.4122
9.308000	 62.5604
9.391999	 62.6483
9.475999	 62.5481
9.560000	 62.6564
9.644000	 62.4601
9.728000	 62.5618
9.812000	 62.4346
9.896000	 62.3711
9.980000	 62.5575
10.064	62.4194
10.148	62.5209
10.232	62.6332
10.316	62.6125
10.4	62.5611
10.484	62.5093
10.568	62.5224
10.652	62.4301
10.736	62.5739
10.82	62.3626
10.904	62.2505
10.988	62.35
11.072	62.4707
11.156	62.4804
11.24	62.5212
11.324	62.4157
11.408	62.3718
11.492	62.4109
11.576	62.3578
11.66	62.4005
11.744	62.5703
11.828	62.3712
11.912	62.29
11.996	62.3716
12.08	62.4953
12.164	62.2508
12.248	62.3801
12.332	62.4207
12.416	62.2529
12.5	62.4382
12.584	62.4669
12.668	62.3338
12.752	62.235
12.836	62.1295
12.92	62.0857
13.004	62.1254
13.088	62.0366
13.172	62.0484
13.256	62.0733
13.34	62.0646
13.424	62.0835
13.508	61.9771
13.592	61.8957
13.676	61.8287
13.76	61.8148
13.844	61.9207
13.928	61.976
14.012	61.9154
14.096	61.8107
14.18	61.7527
14.264	61.7563
14.348	61.7829
14.432	61.8
14.516	61.759
14.6	61.6367
14.684	61.5526
14.768	61.522
14.852	61.4191
14.936	61.2892
15.02	61.2717
15.104	61.2852
15.188	61.2533
15.272	61.3978
15.356	61.6838
15.44	61.7292
15.524	61.6155
15.608	61.6178
15.692	61.5956
15.776	61.5128
15.86	61.534
15.944	61.4854
16.028	61.1603
16.112	60.9079
16.196	61.1997
16.28	61.8443
16.364	62.1465
16.448	61.7884
16.532	61.2623
16.616	61.186
16.7	61.4647
16.784	61.5482
16.868	61.2114
16.952	60.69
17.036	60.2185
17.12	59.8737
17.204	59.7542
17.288	59.918
17.372	60.2447
17.456	60.6544
17.54	61.2321
17.624	61.8679
17.708	62.1738
17.792	61.9883
17.876	61.6065
17.96	61.3588
18.044	61.2755
18.128	61.2546
18.212	61.2839
18.296	61.4043
18.38	61.6472
18.464	62.03
18.548	62.4819
18.632	62.7818
18.716	62.6924
18.8	62.1839
18.884	61.4797
18.968	60.8879
19.052	60.6117
19.136	60.6584
19.22	60.8631
19.304	61.0129
19.388	60.9977
19.472	60.8628
19.556	60.734
19.64	60.6793
19.724	60.6642
19.808	60.6306
19.892	60.6038
19.976	60.6839
20.06	60.9418
20.144	61.3306
20.228	61.7195
20.312	62.0158
20.396	62.2109
20.48	62.3152
20.564	62.2845
20.648	62.0637
20.732	61.68
20.816	61.2487
20.9	60.8941
20.984	60.6743
21.068	60.5858
21.152	60.6295
21.236	60.8231
21.32	61.1499
21.404	61.5018
21.488	61.7062
21.572	61.6367
21.656	61.2975
21.74	60.8255
21.824	60.4153
21.908	60.2118
21.992	60.2452
22.076	60.4376
22.16	60.6501
22.244	60.7489
22.328	60.663
22.412	60.3988
22.496	60.0435
22.58	59.7259
22.664	59.5709
22.748	59.6591
22.832	60.0013
22.916	60.5376
23	61.1616
23.084	61.753
23.168	62.2061
23.252	62.4657
23.336	62.5191
23.42	62.3889
23.504	62.1317
23.588	61.8207
23.672	61.5302
23.756	61.3323
23.84	61.258
23.924	61.2946
24.008	61.3851
24.092	61.4428
24.176	61.3996
24.26	61.2339
24.344	60.9575
24.428	60.5929
24.512	60.1736
24.596	59.6969
24.68	59.15
24.764	58.5578
24.848	57.9985
24.932	57.6155
25.016	57.5703
25.1	57.9937
25.184	58.9064
25.268	60.1942
25.352	61.6692
25.436	63.1578
25.52	64.5677
25.604	65.8851
25.688	67.1619
25.772	68.4203
25.856	69.5588
25.94	70.3328
26.024	70.3833
26.108	69.3818
26.192	67.1843
26.276	63.9263
26.36	60.065
26.444	56.2396
26.528	53.1246
26.612	51.2094
26.696	50.852
26.78	52.2437
26.864	55.3658
26.948	59.9168
27.028	64.9462

File: BZ1503107-1_t120_cm-1.asc
PE IR       SPECTRUM    SPECTRUM    ASCII       PEDS        1.60
  -1
BZBC70~1.ASC
17/04/07
23:06:50.00
17/04/07
23:06:50.00
tln
$BZ1503107-1_t0120$<tbV0>[-10.4,13.0,8.0,0.0,27,1,0]
370
64

2002,4.07
MIRTGS : RIGHTBACK : INTERNAL 2
MIR : ON : INTERNAL 2
OPTKBR

0.200000
8
8.000000
FILLER
RATIO
SPECTRUM
UNLOCKED 256

DOUBLE
64
COMBINED
1
0
0

1.000000
RATIO

1
0
TRUE
51149
0
LEFT NOT FITTED RIGHT NOT FITTED 0
NONE
NONE
15600
12
4.427000
51148
TRUE
1 0 8 72 0 0 0 0

15798

#HDR
-1
-1
#GR
CM-1
%T
2.38419e-05
0.0
5000
-1.000000
4631
8
70.4605
50.7792
#DATA
5000	66.8204
4984	66.4148
4968	65.6012
4952	65.5007
4936	65.402
4920	65.032
4904	65.0823
4888	64.8598
4872	64.9313
4856	64.7724
4840	65.1044
4824	64.4829
4808	64.4893
4792	64.6614
4776	64.2317
4760	64.9414
4744	65.0643
4728	64.9075
4712	64.6777
4696	64.7637
4680	64.4765
4664	64.8577
4648	65.2212
4632	65.1217
4616	65.1674
4600	64.8506
4584	65.3738
4568	64.9987
4552	65.2665
4536	65.327
4520	65.2534
4504	65.0937
4488	64.5747
4472	65.6387
4456	67.5432
4440	56.6138
4424	59.7807
4408	66.4378
4392	66.2244
4376	65.3142
4360	65.2614
4344	65.3486
4328	65.3019
4312	65.062
4296	65.3972
4280	65.274
4264	65.109
4248	64.8918
4232	64.7587
4216	65.0767
4200	65.0388
4184	64.572
4168	64.7903
4152	64.9406
4136	64.6952
4120	64.6641
4104	64.7554
4088	64.6794
4072	65.0061
4056	64.8869
4040	64.7432
4024	64.5879
4008	64.9542
3992	64.691
3976	64.9591
3960	64.8371
3944	64.7878
3928	64.9356
3912	64.9067
3896	64.7556
3880	65.2199
3864	65.011
3848	64.7426
3832	65.0912
3816	64.9415
3800	65.3435
3784	64.9156
3768	64.9882
3752	65.0983
3736	64.9096
3720	64.9859
3704	64.9037
3688	65.1274
3672	65.0778
3656	65.0038
3640	64.8117
3624	65.0118
3608	64.8619
3592	64.8893
3576	64.8191
3560	64.9086
3544	64.8862
3528	64.8241
3512	64.8413
3496	64.7855
3480	64.9268
3464	64.9533
3448	64.9369
3432	65.0822
3416	64.9517
3400	64.8507
3384	64.9367
3368	64.8745
3352	65.038
3336	64.8858
3320	64.8644
3304	64.6317
3288	64.8125
3272	64.9544
3256	64.9063
3240	64.7322
3224	64.8376
3208	64.8944
3192	64.9987
3176	64.8501
3160	64.8471
3144	64.7879
3128	64.8498
3112	64.9075
3096	64.7415
3080	64.9165
3064	64.7078
3048	64.6918
3032	64.7775
3016	64.7418
3000	64.7424
2984	64.58
2968	64.6628
2952	64.6593
2936	64.7425
2920	64.5033
2904	64.3781
2888	64.6194
2872	64.5492
2856	64.6478
2840	64.6933
2824	64.5035
2808	64.5349
2792	64.4826
2776	64.5706
2760	64.5728
2744	64.5664
2728	64.623
2712	64.6817
2696	64.5696
2680	64.4985
2664	64.5022
2648	64.4317
2632	64.4724
2616	64.4726
2600	64.5588
2584	64.5563
2568	64.6032
2552	64.4427
2536	64.5449
2520	64.5099
2504	64.448
2488	64.3329
2472	64.5275
2456	64.4547
2440	64.4841
2424	64.2745
2408	64.2885
2392	64.4229
2376	64.2344
2360	64.4012
2344	64.3355
2328	64.2367
2312	64.222
2296	64.365
2280	64.3385
2264	64.2742
2248	64.1772
2232	64.2428
2216	64.1762
2200	64.25
2184	64.1739
2168	64.1745
2152	64.1886
2136	64.2076
2120	64.2092
2104	64.0791
2088	64.0658
2072	64.1392
2056	64.0741
2040	63.947
2024	63.9283
2008	63.9997
1992	63.935
1976	63.902
1960	63.8422
1944	63.8303
1928	63.8219
1912	63.7951
1896	63.8
1880	63.8368
1864	63.7859
1848	63.7604
1832	63.7459
1816	63.7828
1800	63.6531
1784	63.592
1768	63.6435
1752	63.612
1736	63.3179
1720	63.4786
1704	63.5673
1688	63.521
1672	63.4733
1656	63.5098
1640	63.4692
1624	63.3913
1608	63.2076
1592	63.3976
1576	63.2907
1560	63.3622
1544	63.1957
1528	63.347
1512	63.3554
1496	63.3805
1480	63.2284
1464	63.2043
1448	63.1474
1432	63.2463
1416	63.1363
1400	63.1189
1384	63.0176
1368	63.0491
1352	63.1231
1336	63.111
1320	63.0215
1304	62.9879
1288	62.8539
1272	62.9846
1256	62.8865
1240	62.8036
1224	62.877
1208	62.8458
1192	62.8436
1176	62.7307
1160	62.7364
1144	62.6082
1128	62.7069
1112	62.6972
1096	62.4888
1080	62.5461
1064	62.6623
1048	62.6115
1032	62.4613
1016	62.321
1000	62.5347
984	 62.5622
968	 62.6306
952	 62.5462
936	 62.503
920	 62.2766
904	 62.4607
888	 62.5021
872	 62.3983
856	 62.4639
840	 62.292
824	 62.3244
808	 62.2983
792	 62.4038
776	 62.0803
760	 62.0375
744	 62.0712
728	 61.8036
712	 61.8735
696	 61.7886
680	 61.5445
664	 61.2859
648	 61.7376
632	 61.5132
616	 61.4844
600	 61.3469
584	 59.864
568	 61.7426
552	 61.2553
536	 62.8032
520	 60.8891
504	 60.6143
488	 62.3205
472	 60.6901
456	 60.1989
440	 59.6127
424	 61.8321
408	 60.1852
392	 64.4085
376	 51.4639
370	 64.9462

File: BZ1503107-1_t121.asc
PE IR       SPECTRUM    SPECTRUM    ASCII       PEDS        1.60
  -1
BZCEB6~1.ASC
17/04/07
23:11:28.00
17/04/07
23:11:54.00
tln
$BZ1503107-1_t0121$<tbV0>[-13.0,13.0,8.0,0.0,27,1,0]
27.028
64

2002,4.07
MIRTGS : RIGHTBACK : INTERNAL 2
MIR : ON : INTERNAL 2
OPTKBR

0.200000
8
8.000000
FILLER
RATIO
SPECTRUM
UNLOCKED 256

DOUBLE
64
COMBINED
1
0
0

0.002000
RATIO

1
0
TRUE
51149
0
LEFT NOT FITTED RIGHT NOT FITTED 0
NONE
NONE
15600
12
4.427000
51148
TRUE
1 0 8 72 0 0 0 0

15798

#HDR
-1
-1
#GR
µM
%T
2.38419e-05
0.0
2.000000
0.002000
12515
8
69.7381
44.8831
#DATA
2.000000	 66.3362
2.084000	 64.6973
2.168000	 65.1611
2.252000	 68.3815
2.336000	 64.738
2.420000	 64.9262
2.504000	 65.0165
2.588000	 65.0134
2.672000	 64.8642
2.756000	 65.0373
2.840000	 64.8893
2.924000	 64.8766
3.008000	 64.9057
3.092000	 64.7367
3.176000	 64.8072
3.260000	 64.5726
3.344000	 64.6839
3.428000	 64.4221
3.512000	 64.6307
3.596000	 64.6686
3.680000	 64.6295
3.764000	 64.5247
3.848000	 64.3202
3.932000	 64.4502
4.016000	 64.4314
4.100000	 64.3881
4.184000	 64.2532
4.268000	 64.3256
4.352000	 64.2262
4.436000	 64.2042
4.520000	 64.2589
4.604000	 64.0299
4.688000	 64.0768
4.772000	 64.0219
4.856000	 63.9605
4.940000	 63.9489
5.024000	 63.7876
5.108000	 63.7763
5.192000	 63.9525
5.276000	 63.7665
5.359999	 63.8106
5.444000	 63.7805
5.528000	 63.7433
5.612000	 63.7808
5.696000	 63.6524
5.780000	 63.3367
5.864000	 63.4522
5.948000	 63.5789
6.032000	 63.4283
6.116000	 63.5046
6.200000	 63.3521
6.284000	 63.38
6.368000	 63.3389
6.452000	 63.2768
6.536000	 63.2671
6.620000	 63.3382
6.704000	 63.2704
6.788000	 63.154
6.872000	 63.1633
6.956000	 63.1398
7.040000	 63.1323
7.124000	 63.1109
7.208000	 63.0483
7.292000	 63.0797
7.376000	 62.9992
7.460000	 62.9899
7.544000	 62.9634
7.628000	 63.0438
7.712000	 62.919
7.796000	 62.9942
7.880000	 62.8198
7.964000	 62.7691
8.048000	 62.745
8.132000	 62.7033
8.216000	 62.9025
8.300000	 62.7736
8.384000	 62.7909
8.468000	 62.7097
8.552000	 62.59
8.635999	 62.6461
8.719999	 62.5536
8.804000	 62.6106
8.888000	 62.7288
8.972000	 62.5633
9.056000	 62.3993
9.140000	 62.5845
9.224000	 62.5249
9.308000	 62.4121
9.391999	 62.4306
9.475999	 62.3442
9.560000	 62.4131
9.644000	 62.366
9.728000	 62.5041
9.812000	 62.5044
9.896000	 62.5871
9.980000	 62.6259
10.064	62.5455
10.148	62.57
10.232	62.5616
10.316	62.3818
10.4	62.3625
10.484	62.3662
10.568	62.6117
10.652	62.4388
10.736	62.3338
10.82	62.5052
10.904	62.5758
10.988	62.2789
11.072	62.2977
11.156	62.3196
11.24	62.3447
11.324	62.0528
11.408	62.0666
11.492	62.4171
11.576	62.3959
11.66	62.3814
11.744	62.4606
11.828	62.416
11.912	62.3074
11.996	62.2222
12.08	62.4374
12.164	62.5228
12.248	62.3624
12.332	62.261
12.416	62.3058
12.5	62.3192
12.584	62.3069
12.668	62.2042
12.752	62.2404
12.836	62.1736
12.92	61.9896
13.004	61.9622
13.088	61.989
13.172	62.0826
13.256	62.0099
13.34	61.8797
13.424	61.9262
13.508	61.979
13.592	62.1048
13.676	62.1439
13.76	62.0464
13.844	61.8894
13.928	61.8109
14.012	61.8667
14.096	61.9527
14.18	61.9832
14.264	61.798
14.348	61.5665
14.432	61.6717
14.516	61.825
14.6	61.7988
14.684	61.9387
14.768	62.0895
14.852	62.0076
14.936	61.8355
15.02	61.6166
15.104	61.5339
15.188	61.5977
15.272	61.5429
15.356	61.4726
15.44	61.5253
15.524	61.5097
15.608	61.3552
15.692	61.2677
15.776	61.2576
15.86	61.2183
15.944	61.2856
16.028	61.5289
16.112	61.8331
16.196	62.1163
16.28	62.2845
16.364	62.2643
16.448	62.0182
16.532	61.6013
16.616	61.3591
16.7	61.6455
16.784	62.2034
16.868	62.3943
16.952	61.9917
17.036	61.3016
17.12	60.6064
17.204	59.9917
17.288	59.6805
17.372	59.8666
17.456	60.2684
17.54	60.4545
17.624	60.5368
17.708	60.9738
17.792	61.7525
17.876	62.2983
17.96	62.2503
18.044	61.8945
18.128	61.7231
18.212	61.8654
18.296	62.131
18.38	62.3529
18.464	62.503
18.548	62.538
18.632	62.317
18.716	61.7814
18.8	61.11
18.884	60.5831
18.968	60.3737
19.052	60.4996
19.136	60.8275
19.22	61.1105
19.304	61.1443
19.388	60.9553
19.472	60.7707
19.556	60.7594
19.64	60.8499
19.724	60.8575
19.808	60.7363
19.892	60.6249
19.976	60.692
20.06	60.9876
20.144	61.4156
20.228	61.8028
20.312	62.0016
20.396	61.9523
20.48	61.6934
20.564	61.3313
20.648	61.0104
20.732	60.8563
20.816	60.9066
20.9	61.0911
20.984	61.2827
21.068	61.3765
21.152	61.3456
21.236	61.2362
21.32	61.1374
21.404	61.1271
21.488	61.2169
21.572	61.335
21.656	61.3693
21.74	61.2403
21.824	60.9541
21.908	60.6103
21.992	60.3453
22.076	60.2561
22.16	60.3472
22.244	60.516
22.328	60.6196
22.412	60.5544
22.496	60.3125
22.58	59.9828
22.664	59.6928
22.748	59.5356
22.832	59.5247
22.916	59.6224
23	59.786
23.084	60.006
23.168	60.3005
23.252	60.6701
23.336	61.0634
23.42	61.4008
23.504	61.6098
23.588	61.6527
23.672	61.5342
23.756	61.2932
23.84	60.9666
23.924	60.5926
24.008	60.2088
24.092	59.8649
24.176	59.6461
24.26	59.6424
24.344	59.9106
24.428	60.4277
24.512	61.0867
24.596	61.6885
24.68	61.9985
24.764	61.8478
24.848	61.1915
24.932	60.1511
25.016	58.9889
25.1	58.01
25.184	57.4755
25.268	57.5011
25.352	58.0565
25.436	59.002
25.52	60.1845
25.604	61.522
25.688	63.0025
25.772	64.6463
25.856	66.4149
25.94	68.1169
26.024	69.3721
26.108	69.711
26.192	68.7454
26.276	66.3117
26.36	62.5798
26.444	58.054
26.528	53.4475
26.612	49.417
26.696	46.5054
26.78	45.0458
26.864	45.0937
26.948	46.4553
27.028	48.5996