Folder: Masteroppgave/Bakgrunnsmateriale/MATLAB/FTIR/ftir_data/subAa/Mapping_121 (part 44)

File: BZ1503107-1_t101_cm-1.asc
PE IR       SPECTRUM    SPECTRUM    ASCII       PEDS        1.60
  -1
BZBBF5~1.ASC
17/04/07
21:32:49.00
17/04/07
21:32:49.00
tln
$BZ1503107-1_t0101$<tbV0>[10.4,10.4,8.0,0.0,27,1,0]
370
64

2002,4.07
MIRTGS : RIGHTBACK : INTERNAL 2
MIR : ON : INTERNAL 2
OPTKBR

0.200000
8
8.000000
FILLER
RATIO
SPECTRUM
UNLOCKED 256

DOUBLE
64
COMBINED
1
0
0

1.000000
RATIO

1
0
TRUE
51149
0
LEFT NOT FITTED RIGHT NOT FITTED 0
NONE
NONE
15600
12
4.427000
51148
TRUE
1 0 8 72 0 0 0 0

15798

#HDR
-1
-1
#GR
CM-1
%T
2.38419e-05
0.0
5000
-1.000000
4631
8
90.1802
30.9998
#DATA
5000	64.2932
4984	64.6564
4968	63.2526
4952	66.6336
4936	64.3459
4920	63.8975
4904	64.4296
4888	64.4498
4872	64.2573
4856	64.1559
4840	64.4637
4824	64.3282
4808	64.5989
4792	64.5596
4776	64.5882
4760	64.31
4744	64.7745
4728	64.4992
4712	64.3237
4696	64.33
4680	64.6024
4664	64.5939
4648	64.2225
4632	64.3448
4616	64.2905
4600	64.352
4584	63.8397
4568	63.7205
4552	63.8031
4536	63.5084
4520	63.7546
4504	63.3852
4488	62.9534
4472	62.8522
4456	64.1412
4440	90.1802
4424	67.6335
4408	63.2286
4392	63.2384
4376	63.1643
4360	63.8244
4344	63.4982
4328	63.5998
4312	63.8105
4296	63.9475
4280	64.0778
4264	63.8895
4248	64.4198
4232	64.3282
4216	64.1994
4200	64.1822
4184	64.6473
4168	64.6585
4152	64.6932
4136	64.4987
4120	64.7595
4104	64.6344
4088	64.7059
4072	64.8356
4056	64.5078
4040	64.6162
4024	64.706
4008	64.2246
3992	64.5552
3976	64.3254
3960	64.3633
3944	63.9814
3928	64.6739
3912	64.3239
3896	64.1807
3880	64.2471
3864	64.426
3848	64.5709
3832	64.3811
3816	64.3976
3800	64.5457
3784	64.6511
3768	64.5003
3752	64.5401
3736	64.6052
3720	64.6364
3704	64.5578
3688	64.7579
3672	64.6916
3656	64.6909
3640	64.6085
3624	64.5564
3608	64.5032
3592	64.6713
3576	64.477
3560	64.5513
3544	64.2888
3528	64.7037
3512	64.4767
3496	64.6009
3480	64.613
3464	64.3692
3448	64.339
3432	64.4899
3416	64.4226
3400	64.4859
3384	64.2928
3368	64.4543
3352	64.4511
3336	64.3682
3320	64.2967
3304	64.5654
3288	64.5032
3272	64.36
3256	64.5362
3240	64.3666
3224	64.4486
3208	64.3412
3192	64.3827
3176	64.5627
3160	64.5129
3144	64.3578
3128	64.2112
3112	64.4047
3096	64.5946
3080	64.2818
3064	64.3066
3048	64.5674
3032	64.4686
3016	64.3211
3000	64.4565
2984	64.3262
2968	64.141
2952	64.1374
2936	64.2432
2920	64.4003
2904	64.336
2888	64.2084
2872	64.2459
2856	64.2463
2840	64.3022
2824	64.3213
2808	64.2875
2792	64.2999
2776	64.3649
2760	64.3406
2744	64.3329
2728	64.3712
2712	64.3134
2696	64.3121
2680	64.1073
2664	64.2243
2648	64.3682
2632	64.407
2616	64.2203
2600	64.1533
2584	64.1569
2568	64.2197
2552	64.1899
2536	64.2697
2520	64.1312
2504	64.176
2488	64.2646
2472	64.2928
2456	64.272
2440	64.1145
2424	64.1949
2408	64.04
2392	64.1465
2376	64.2304
2360	64.2277
2344	64.1404
2328	64.1788
2312	64.145
2296	64.1095
2280	64.0465
2264	64.0563
2248	64.1078
2232	64.0549
2216	64.0406
2200	64.0501
2184	64.0779
2168	64.0433
2152	63.9989
2136	64.0148
2120	63.9919
2104	63.976
2088	63.9311
2072	63.8282
2056	64.009
2040	63.9575
2024	63.9421
2008	64.0075
1992	64.0168
1976	63.9491
1960	64.0432
1944	63.8558
1928	63.88
1912	63.8811
1896	63.9267
1880	63.8766
1864	63.8507
1848	63.8275
1832	63.8983
1816	63.8688
1800	63.8743
1784	63.7504
1768	63.7733
1752	63.6036
1736	63.5172
1720	63.5803
1704	63.6337
1688	63.6454
1672	63.6086
1656	63.6287
1640	63.6978
1624	63.5189
1608	63.5933
1592	63.716
1576	63.4465
1560	63.5018
1544	63.54
1528	63.4713
1512	63.5708
1496	63.5487
1480	63.4333
1464	63.4897
1448	63.3356
1432	63.3301
1416	63.4696
1400	63.4439
1384	63.4804
1368	63.3348
1352	63.2834
1336	63.2754
1320	63.3791
1304	63.2441
1288	63.1664
1272	63.1856
1256	63.1361
1240	63.1345
1224	63.2977
1208	63.2456
1192	63.1762
1176	63.0319
1160	62.9754
1144	63.1211
1128	62.9711
1112	62.9576
1096	62.9861
1080	62.8573
1064	62.9894
1048	62.8703
1032	63.074
1016	62.9235
1000	62.8012
984	 63.1158
968	 63.049
952	 63.0573
936	 62.9326
920	 63.0388
904	 62.9012
888	 62.89
872	 63.0797
856	 63.061
840	 62.897
824	 62.792
808	 62.9663
792	 62.8264
776	 62.5531
760	 62.6933
744	 62.735
728	 62.6393
712	 62.66
696	 62.6349
680	 62.4623
664	 62.4719
648	 62.5034
632	 62.3859
616	 62.1538
600	 62.1706
584	 61.9649
568	 62.5311
552	 61.4841
536	 61.5565
520	 62.0081
504	 60.5314
488	 62.7858
472	 61.8579
456	 61.6891
440	 60.8051
424	 62.6421
408	 61.7831
392	 56.3028
376	 39.7273
370	 30.9998

File: BZ1503107-1_t102.asc
PE IR       SPECTRUM    SPECTRUM    ASCII       PEDS        1.60
  -1
BZD6BA~1.ASC
17/04/07
21:37:27.00
17/04/07
21:37:53.00
tln
$BZ1503107-1_t0102$<tbV0>[7.8,10.4,8.0,0.0,27,1,0]
27.028
64

2002,4.07
MIRTGS : RIGHTBACK : INTERNAL 2
MIR : ON : INTERNAL 2
OPTKBR

0.200000
8
8.000000
FILLER
RATIO
SPECTRUM
UNLOCKED 256

DOUBLE
64
COMBINED
1
0
0

0.002000
RATIO

1
0
TRUE
51149
0
LEFT NOT FITTED RIGHT NOT FITTED 0
NONE
NONE
15600
12
4.427000
51148
TRUE
1 0 8 72 0 0 0 0

15798

#HDR
-1
-1
#GR
µM
%T
2.38419e-05
0.0
2.000000
0.002000
12515
8
78.8512
57.9832
#DATA
2.000000	 62.1838
2.084000	 64.4662
2.168000	 64.2873
2.252000	 76.3388
2.336000	 63.6881
2.420000	 64.2384
2.504000	 64.1238
2.588000	 63.9767
2.672000	 64.3133
2.756000	 64.2139
2.840000	 64.1331
2.924000	 64.4186
3.008000	 64.1447
3.092000	 64.2444
3.176000	 64.1752
3.260000	 64.1131
3.344000	 64.0419
3.428000	 64.0931
3.512000	 64.0686
3.596000	 64.1176
3.680000	 64.0915
3.764000	 64.0693
3.848000	 63.9597
3.932000	 63.8954
4.016000	 63.8955
4.100000	 64.0904
4.184000	 63.7602
4.268000	 63.8057
4.352000	 63.8654
4.436000	 63.8694
4.520000	 63.8059
4.604000	 63.7814
4.688000	 63.8415
4.772000	 63.722
4.856000	 63.7681
4.940000	 63.7049
5.024000	 63.7721
5.108000	 63.6277
5.192000	 63.4286
5.276000	 63.639
5.359999	 63.5648
5.444000	 63.5942
5.528000	 63.4282
5.612000	 63.4117
5.696000	 63.2813
5.780000	 63.0059
5.864000	 63.237
5.948000	 63.2316
6.032000	 63.3707
6.116000	 63.31
6.200000	 63.2597
6.284000	 63.2495
6.368000	 63.2095
6.452000	 63.0718
6.536000	 63.1557
6.620000	 63.1481
6.704000	 63.2321
6.788000	 63.1312
6.872000	 63.0558
6.956000	 63.1285
7.040000	 63.0394
7.124000	 63.0653
7.208000	 62.8591
7.292000	 62.9688
7.376000	 62.8594
7.460000	 62.8999
7.544000	 62.9464
7.628000	 62.9504
7.712000	 62.8872
7.796000	 62.655
7.880000	 62.8305
7.964000	 62.7806
8.048000	 62.8827
8.132000	 62.8449
8.216000	 62.7067
8.300000	 62.6837
8.384000	 62.6983
8.468000	 62.6446
8.552000	 62.4935
8.635999	 62.5544
8.719999	 62.6004
8.804000	 62.7064
8.888000	 62.4944
8.972000	 62.6779
9.056000	 62.674
9.140000	 62.5225
9.224000	 62.4528
9.308000	 62.4219
9.391999	 62.6327
9.475999	 62.6418
9.560000	 62.4382
9.644000	 62.5971
9.728000	 62.6924
9.812000	 62.4786
9.896000	 62.4413
9.980000	 62.5455
10.064	62.4446
10.148	62.4821
10.232	62.6131
10.316	62.5825
10.4	62.419
10.484	62.5171
10.568	62.4862
10.652	62.5634
10.736	62.5215
10.82	62.6135
10.904	62.6465
10.988	62.5299
11.072	62.3394
11.156	62.2631
11.24	62.424
11.324	62.6188
11.408	62.6323
11.492	62.5333
11.576	62.3572
11.66	62.4634
11.744	62.3381
11.828	62.3253
11.912	62.6166
11.996	62.5925
12.08	62.4311
12.164	62.4416
12.248	62.458
12.332	62.4969
12.416	62.4301
12.5	62.3559
12.584	62.2544
12.668	62.2764
12.752	62.3679
12.836	62.2535
12.92	62.0515
13.004	62.1177
13.088	62.2512
13.172	62.1705
13.256	62.0856
13.34	62.2173
13.424	62.4023
13.508	62.2941
13.592	62.2064
13.676	62.319
13.76	62.3317
13.844	62.15
13.928	62.0193
14.012	62.0852
14.096	62.1502
14.18	62.0397
14.264	61.9392
14.348	61.949
14.432	62.0102
14.516	62.0865
14.6	62.0067
14.684	61.8155
14.768	61.8759
14.852	62.1268
14.936	62.1696
15.02	61.9216
15.104	61.6566
15.188	61.6655
15.272	61.9073
15.356	62.0965
15.44	62.1058
15.524	61.9598
15.608	61.7876
15.692	61.8529
15.776	62.1619
15.86	62.269
15.944	61.9161
16.028	61.5184
16.112	61.5449
16.196	61.7992
16.28	61.8435
16.364	61.7405
16.448	61.8133
16.532	62.103
16.616	62.4051
16.7	62.537
16.784	62.4862
16.868	62.4353
16.952	62.4994
17.036	62.5262
17.12	62.3268
17.204	62.014
17.288	61.9282
17.372	62.1833
17.456	62.4749
17.54	62.4811
17.624	62.2778
17.708	62.1133
17.792	61.99
17.876	61.7592
17.96	61.5257
18.044	61.5962
18.128	62.0421
18.212	62.5175
18.296	62.6165
18.38	62.2993
18.464	61.8992
18.548	61.7766
18.632	62.008
18.716	62.3504
18.8	62.4718
18.884	62.2693
18.968	61.9696
19.052	61.9203
19.136	62.2079
19.22	62.5538
19.304	62.6105
19.388	62.3342
19.472	61.9869
19.556	61.8206
19.64	61.8139
19.724	61.7213
19.808	61.3528
19.892	60.7632
19.976	60.1893
20.06	59.8603
20.144	59.8766
20.228	60.2278
20.312	60.8249
20.396	61.5031
20.48	62.0455
20.564	62.2745
20.648	62.1697
20.732	61.8794
20.816	61.5909
20.9	61.3933
20.984	61.2405
21.068	61.0379
21.152	60.7501
21.236	60.4439
21.32	60.2367
21.404	60.2265
21.488	60.4328
21.572	60.7831
21.656	61.1354
21.74	61.3306
21.824	61.2801
21.908	61.0264
21.992	60.7001
22.076	60.4292
22.16	60.2668
22.244	60.1763
22.328	60.1237
22.412	60.1239
22.496	60.2423
22.58	60.5396
22.664	61.004
22.748	61.5202
22.832	61.9391
22.916	62.1389
23	62.0936
23.084	61.8605
23.168	61.548
23.252	61.2625
23.336	61.1034
23.42	61.1725
23.504	61.5829
23.588	62.4028
23.672	63.5922
23.756	64.9507
23.84	66.1418
23.924	66.7819
24.008	66.5961
24.092	65.5366
24.176	63.8249
24.26	61.8509
24.344	60.0613
24.428	58.769
24.512	58.1067
24.596	57.9988
24.68	58.2338
24.764	58.5718
24.848	58.8529
24.932	59.0518
25.016	59.2734
25.1	59.6746
25.184	60.3752
25.268	61.3695
25.352	62.5342
25.436	63.6614
25.52	64.5787
25.604	65.2462
25.688	65.7572
25.772	66.3033
25.856	67.07
25.94	68.16
26.024	69.511
26.108	70.8829
26.192	72.0091
26.276	72.692
26.36	72.8608
26.444	72.6171
26.528	72.1939
26.612	71.8636
26.696	71.8539
26.78	72.2762
26.864	73.0791
26.948	74.1068
27.028	75.1373

File: BZ1503107-1_t102_cm-1.asc
PE IR       SPECTRUM    SPECTRUM    ASCII       PEDS        1.60
  -1
BZCB7B~1.ASC
17/04/07
21:37:27.00
17/04/07
21:37:27.00
tln
$BZ1503107-1_t0102$<tbV0>[7.8,10.4,8.0,0.0,27,1,0]
370
64

2002,4.07
MIRTGS : RIGHTBACK : INTERNAL 2
MIR : ON : INTERNAL 2
OPTKBR

0.200000
8
8.000000
FILLER
RATIO
SPECTRUM
UNLOCKED 256

DOUBLE
64
COMBINED
1
0
0

1.000000
RATIO

1
0
TRUE
51149
0
LEFT NOT FITTED RIGHT NOT FITTED 0
NONE
NONE
15600
12
4.427000
51148
TRUE
1 0 8 72 0 0 0 0

15798

#HDR
-1
-1
#GR
CM-1
%T
2.38419e-05
0.0
5000
-1.000000
4631
8
79.772
57.9841
#DATA
5000	62.1838
4984	62.6161
4968	61.9486
4952	64.4736
4936	63.0144
4920	63.1272
4904	64.0375
4888	63.5027
4872	63.4367
4856	64.0547
4840	63.6485
4824	64.0111
4808	64.1104
4792	64.1732
4776	63.9844
4760	63.8772
4744	64.4368
4728	63.9715
4712	63.6718
4696	64.0521
4680	64.0528
4664	64.3961
4648	64.4083
4632	64.2097
4616	64.249
4600	63.7933
4584	63.7001
4568	63.5901
4552	63.2492
4536	63.4119
4520	63.2163
4504	63.353
4488	62.7077
4472	63.0691
4456	64.8098
4440	75.0459
4424	61.4545
4408	64.9391
4392	63.4145
4376	63.3653
4360	63.6966
4344	63.8159
4328	63.4946
4312	63.307
4296	63.6898
4280	63.6666
4264	63.8608
4248	63.8407
4232	63.9362
4216	63.6183
4200	64.2662
4184	64.1756
4168	64.524
4152	64.0956
4136	63.9684
4120	64.1292
4104	63.836
4088	64.1196
4072	64.1635
4056	64.2982
4040	63.9155
4024	64.1852
4008	64.0314
3992	64.157
3976	63.8921
3960	63.8207
3944	63.9568
3928	64.1883
3912	63.8331
3896	64.0258
3880	64.1515
3864	63.9769
3848	64.1403
3832	64.2233
3816	64.2098
3800	64.1242
3784	64.1928
3768	64.3825
3752	64.3424
3736	64.3026
3720	64.3847
3704	64.3508
3688	64.4374
3672	64.1571
3656	64.2357
3640	64.4207
3624	64.1427
3608	64.2869
3592	64.3609
3576	64.0772
3560	64.1719
3544	64.1313
3528	64.1013
3512	64.21
3496	64.2033
3480	64.2941
3464	64.1196
3448	64.236
3432	64.2889
3416	64.3653
3400	64.1952
3384	64.2734
3368	64.2591
3352	64.2418
3336	64.3037
3320	64.2211
3304	64.3144
3288	64.1789
3272	64.108
3256	64.2908
3240	64.3206
3224	64.1072
3208	64.1733
3192	64.2998
3176	64.2168
3160	64.1545
3144	64.232
3128	64.1286
3112	64.1593
3096	64.2317
3080	64.0936
3064	64.1685
3048	64.2917
3032	64.3346
3016	64.1164
3000	64.096
2984	64.0405
2968	64.0015
2952	64.0089
2936	64.1909
2920	64.1805
2904	64.0968
2888	64.0046
2872	64.0198
2856	64.0335
2840	64.1134
2824	64.1248
2808	64.0414
2792	64.0125
2776	64.1345
2760	64.0926
2744	64.1424
2728	64.1114
2712	64.0944
2696	64.0239
2680	63.9916
2664	64.076
2648	64.1922
2632	64.0496
2616	64.0167
2600	63.9443
2584	63.9743
2568	63.9692
2552	64.0316
2536	63.9992
2520	63.942
2504	63.9638
2488	63.8953
2472	64.0697
2456	64.1031
2440	64.0969
2424	64.0248
2408	63.8707
2392	63.8083
2376	63.9393
2360	63.9266
2344	63.8034
2328	63.9265
2312	63.9267
2296	63.8904
2280	63.853
2264	63.9117
2248	63.8529
2232	63.9491
2216	63.7922
2200	63.7364
2184	63.7697
2168	63.7025
2152	63.7125
2136	63.8972
2120	63.7855
2104	63.7658
2088	63.6906
2072	63.696
2056	63.8474
2040	63.6527
2024	63.704
2008	63.664
1992	63.7516
1976	63.6588
1960	63.5779
1944	63.5667
1928	63.4442
1912	63.6171
1896	63.639
1880	63.4656
1864	63.5833
1848	63.5657
1832	63.5633
1816	63.4588
1800	63.4857
1784	63.4131
1768	63.4531
1752	63.2175
1736	63.129
1720	63.3038
1704	63.2209
1688	63.2594
1672	63.2452
1656	63.3729
1640	63.3342
1624	63.3289
1608	63.2595
1592	63.2417
1576	63.0736
1560	63.1527
1544	63.2504
1528	63.1735
1512	63.1236
1496	63.2613
1480	63.0613
1464	63.113
1448	62.953
1432	63.1872
1416	62.9943
1400	63.0653
1384	62.886
1368	63.0147
1352	62.8931
1336	62.8948
1320	63.0172
1304	62.7899
1288	62.7477
1272	62.8054
1256	62.785
1240	62.8493
1224	62.7869
1208	62.6689
1192	62.7001
1176	62.6085
1160	62.5301
1144	62.5758
1128	62.5141
1112	62.6667
1096	62.5696
1080	62.3827
1064	62.6374
1048	62.4614
1032	62.6633
1016	62.3978
1000	62.5438
984	 62.5017
968	 62.5493
952	 62.5358
936	 62.5587
920	 62.6662
904	 62.3628
888	 62.5001
872	 62.6117
856	 62.4482
840	 62.5962
824	 62.435
808	 62.472
792	 62.2355
776	 62.119
760	 62.1912
744	 62.4032
728	 62.3523
712	 62.1284
696	 61.9598
680	 61.7975
664	 61.7747
648	 62.1122
632	 62.2783
616	 61.8557
600	 62.511
584	 62.315
568	 62.3254
552	 61.9653
536	 62.1136
520	 62.582
504	 61.1346
488	 62.0991
472	 60.6201
456	 60.9425
440	 61.3962
424	 62.3656
408	 58.1165
392	 64.4852
376	 71.9058
370	 75.1373

File: BZ1503107-1_t103.asc
PE IR       SPECTRUM    SPECTRUM    ASCII       PEDS        1.60
  -1
BZD6BE~1.ASC
17/04/07
21:42:04.00
17/04/07
21:42:30.00
tln
$BZ1503107-1_t0103$<tbV0>[5.2,10.4,8.0,0.0,27,1,0]
27.028
64

2002,4.07
MIRTGS : RIGHTBACK : INTERNAL 2
MIR : ON : INTERNAL 2
OPTKBR

0.200000
8
8.000000
FILLER
RATIO
SPECTRUM
UNLOCKED 256

DOUBLE
64
COMBINED
1
0
0

0.002000
RATIO

1
0
TRUE
51149
0
LEFT NOT FITTED RIGHT NOT FITTED 0
NONE
NONE
15600
12
4.427000
51148
TRUE
1 0 8 72 0 0 0 0

15798

#HDR
-1
-1
#GR
µM
%T
2.38419e-05
0.0
2.000000
0.002000
12515
8
78.0134
50.2427
#DATA
2.000000	 66.379
2.084000	 65.1413
2.168000	 65.0365
2.252000	 74.8561
2.336000	 64.818
2.420000	 64.9277
2.504000	 64.9165
2.588000	 64.8948
2.672000	 65.0536
2.756000	 64.7964
2.840000	 64.9235
2.924000	 64.9511
3.008000	 64.8015
3.092000	 64.9403
3.176000	 64.7498
3.260000	 64.7444
3.344000	 64.6802
3.428000	 64.7214
3.512000	 64.6135
3.596000	 64.6852
3.680000	 64.6594
3.764000	 64.6141
3.848000	 64.4647
3.932000	 64.5461
4.016000	 64.5649
4.100000	 64.4687
4.184000	 64.433
4.268000	 64.4327
4.352000	 64.415
4.436000	 64.4209
4.520000	 64.3157
4.604000	 64.2577
4.688000	 64.2865
4.772000	 64.2267
4.856000	 64.1875
4.940000	 64.0724
5.024000	 64.1183
5.108000	 63.9911
5.192000	 64.0054
5.276000	 64.0241
5.359999	 63.9276
5.444000	 63.9577
5.528000	 63.8685
5.612000	 63.7556
5.696000	 63.736
5.780000	 63.5391
5.864000	 63.7118
5.948000	 63.5171
6.032000	 63.712
6.116000	 63.5531
6.200000	 63.6178
6.284000	 63.6912
6.368000	 63.5929
6.452000	 63.5723
6.536000	 63.4613
6.620000	 63.4565
6.704000	 63.592
6.788000	 63.406
6.872000	 63.2951
6.956000	 63.313
7.040000	 63.3639
7.124000	 63.4209
7.208000	 63.3181
7.292000	 63.3049
7.376000	 63.2704
7.460000	 63.1779
7.544000	 63.1921
7.628000	 63.2321
7.712000	 63.1718
7.796000	 63.1546
7.880000	 63.0273
7.964000	 62.9858
8.048000	 63.0469
8.132000	 63.0322
8.216000	 63.1182
8.300000	 63.0183
8.384000	 62.9634
8.468000	 62.9534
8.552000	 62.9391
8.635999	 62.9158
8.719999	 62.9956
8.804000	 62.8418
8.888000	 62.8928
8.972000	 62.9544
9.056000	 62.973
9.140000	 63.0438
9.224000	 62.8113
9.308000	 62.7615
9.391999	 62.88
9.475999	 62.8011
9.560000	 62.781
9.644000	 62.7568
9.728000	 62.948
9.812000	 62.8419
9.896000	 62.8039
9.980000	 62.7657
10.064	62.845
10.148	62.8045
10.232	62.7925
10.316	62.6881
10.4	62.655
10.484	62.7722
10.568	62.8978
10.652	62.8091
10.736	62.8901
10.82	63.0411
10.904	62.9805
10.988	62.8963
11.072	62.6639
11.156	62.5903
11.24	62.5663
11.324	62.6805
11.408	62.5957
11.492	62.9142
11.576	62.9275
11.66	62.8526
11.744	62.646
11.828	62.4824
11.912	62.5873
11.996	62.609
12.08	62.5469
12.164	62.7467
12.248	62.769
12.332	62.6289
12.416	62.5882
12.5	62.5769
12.584	62.5321
12.668	62.5555
12.752	62.6269
12.836	62.5475
12.92	62.4994
13.004	62.4146
13.088	62.4434
13.172	62.5822
13.256	62.5452
13.34	62.4828
13.424	62.5859
13.508	62.7288
13.592	62.6014
13.676	62.4884
13.76	62.5259
13.844	62.4574
13.928	62.263
14.012	62.0259
14.096	61.959
14.18	62.1164
14.264	62.2551
14.348	62.3471
14.432	62.417
14.516	62.444
14.6	62.4408
14.684	62.2797
14.768	62.0679
14.852	62.0948
14.936	62.2311
15.02	62.2371
15.104	62.1493
15.188	62.0982
15.272	62.1175
15.356	62.1151
15.44	62.0808
15.524	62.0722
15.608	62.0008
15.692	61.8583
15.776	61.8307
15.86	61.9432
15.944	61.9273
16.028	61.6774
16.112	61.4419
16.196	61.3604
16.28	61.4156
16.364	61.7476
16.448	62.3106
16.532	62.7236
16.616	62.7807
16.7	62.5489
16.784	62.1726
16.868	62.0043
16.952	62.2897
17.036	62.6452
17.12	62.4974
17.204	61.9411
17.288	61.5789
17.372	61.6451
17.456	61.7869
17.54	61.6935
17.624	61.5677
17.708	61.75
17.792	62.1643
17.876	62.436
17.96	62.4246
18.044	62.285
18.128	62.1316
18.212	61.966
18.296	61.8905
18.38	62.0268
18.464	62.2907
18.548	62.4477
18.632	62.3763
18.716	62.1252
18.8	61.7529
18.884	61.2996
18.968	60.9223
19.052	60.8991
19.136	61.3314
19.22	61.9678
19.304	62.4037
19.388	62.4588
19.472	62.2682
19.556	62.0804
19.64	62.0026
19.724	61.9226
19.808	61.6374
19.892	61.041
19.976	60.2432
20.06	59.5384
20.144	59.2504
20.228	59.5435
20.312	60.3126
20.396	61.2256
20.48	61.9048
20.564	62.1285
20.648	61.9337
20.732	61.5582
20.816	61.2604
20.9	61.1624
20.984	61.2016
21.068	61.2177
21.152	61.0886
21.236	60.8165
21.32	60.5076
21.404	60.2886
21.488	60.2262
21.572	60.3089
21.656	60.4871
21.74	60.7135
21.824	60.9683
21.908	61.2386
21.992	61.4783
22.076	61.6082
22.16	61.5545
22.244	61.3068
22.328	60.955
22.412	60.6357
22.496	60.4605
22.58	60.4421
22.664	60.4992
22.748	60.5137
22.832	60.4215
22.916	60.2367
23	60.0321
23.084	59.8808
23.168	59.8152
23.252	59.8216
23.336	59.8808
23.42	60.0207
23.504	60.3026
23.588	60.7879
23.672	61.4921
23.756	62.3525
23.84	63.244
23.924	64.0205
24.008	64.5521
24.092	64.7431
24.176	64.5635
24.26	64.061
24.344	63.3599
24.428	62.6392
24.512	62.1534
24.596	62.1056
24.68	62.5409
24.764	63.2882
24.848	64.0283
24.932	64.4026
25.016	64.2038
25.1	63.4714
25.184	62.4598
25.268	61.5248
25.352	60.9811
25.436	61.0579
25.52	61.8227
25.604	63.1885
25.688	64.9806
25.772	66.9208
25.856	68.6318
25.94	69.6763
26.024	69.6248
26.108	68.2103
26.192	65.484
26.276	61.8584
26.36	58.0855
26.444	54.9764
26.528	53.1472
26.612	52.8102
26.696	53.8441
26.78	55.8954
26.864	58.523
26.948	61.3261
27.028	63.8644

File: BZ1503107-1_t103_cm-1.asc
PE IR       SPECTRUM    SPECTRUM    ASCII       PEDS        1.60
  -1
BZCBFA~1.ASC
17/04/07
21:42:04.00
17/04/07
21:42:04.00
tln
$BZ1503107-1_t0103$<tbV0>[5.2,10.4,8.0,0.0,27,1,0]
370
64

2002,4.07
MIRTGS : RIGHTBACK : INTERNAL 2
MIR : ON : INTERNAL 2
OPTKBR

0.200000
8
8.000000
FILLER
RATIO
SPECTRUM
UNLOCKED 256

DOUBLE
64
COMBINED
1
0
0

1.000000
RATIO

1
0
TRUE
51149
0
LEFT NOT FITTED RIGHT NOT FITTED 0
NONE
NONE
15600
12
4.427000
51148
TRUE
1 0 8 72 0 0 0 0

15798

#HDR
-1
-1
#GR
CM-1
%T
2.38419e-05
0.0
5000
-1.000000
4631
8
78.8896
49.847
#DATA
5000	66.379
4984	62.9633
4968	61.9513
4952	66.6404
4936	65.2287
4920	64.6068
4904	64.7545
4888	64.635
4872	64.6604
4856	65.0576
4840	64.798
4824	64.7596
4808	64.9981
4792	64.8848
4776	65.0118
4760	64.8952
4744	64.7658
4728	64.6477
4712	64.7803
4696	64.7965
4680	64.8529
4664	64.7214
4648	65.075
4632	65.5615
4616	65.1229
4600	64.8623
4584	64.8605
4568	65.328
4552	64.7048
4536	64.7027
4520	64.7804
4504	64.9827
4488	64.0974
4472	64.5499
4456	65.9865
4440	73.3016
4424	62.4047
4408	65.4614
4392	65.1248
4376	64.4405
4360	65.0526
4344	65.1223
4328	65.3057
4312	64.776
4296	64.6789
4280	64.8642
4264	64.8868
4248	64.9633
4232	65.0424
4216	64.6261
4200	64.8375
4184	65.0353
4168	64.9692
4152	65.0729
4136	64.9319
4120	64.7624
4104	64.8913
4088	65.1529
4072	64.8436
4056	64.8614
4040	65.0458
4024	64.9218
4008	64.8481
3992	64.9305
3976	64.9693
3960	64.8991
3944	64.3552
3928	65.2615
3912	64.6596
3896	64.9137
3880	64.8698
3864	64.8942
3848	64.8389
3832	65.0293
3816	64.7893
3800	65.0474
3784	64.8489
3768	65.1111
3752	65.0243
3736	64.9361
3720	65.0312
3704	65.1185
3688	65.1184
3672	64.9405
3656	64.707
3640	65.0899
3624	64.7824
3608	64.9564
3592	64.9971
3576	64.8453
3560	64.9248
3544	64.7883
3528	64.9594
3512	64.9219
3496	64.9346
3480	64.9956
3464	65.024
3448	64.8429
3432	65.0069
3416	65.0409
3400	64.8576
3384	65.0289
3368	64.9717
3352	64.92
3336	64.9065
3320	64.8265
3304	64.8416
3288	64.7741
3272	64.9148
3256	64.9778
3240	64.952
3224	64.836
3208	64.7544
3192	64.7537
3176	64.8243
3160	64.653
3144	64.7653
3128	64.8984
3112	64.7923
3096	64.8512
3080	64.7269
3064	64.7223
3048	64.8432
3032	64.6828
3016	64.8415
3000	64.7133
2984	64.5702
2968	64.5984
2952	64.5121
2936	64.4796
2920	64.6856
2904	64.5663
2888	64.5736
2872	64.6115
2856	64.5926
2840	64.6242
2824	64.7115
2808	64.6444
2792	64.6657
2776	64.7367
2760	64.7074
2744	64.6297
2728	64.6922
2712	64.7321
2696	64.5917
2680	64.6398
2664	64.6445
2648	64.67
2632	64.5679
2616	64.5571
2600	64.4592
2584	64.5681
2568	64.6039
2552	64.6053
2536	64.4951
2520	64.5139
2504	64.456
2488	64.5873
2472	64.498
2456	64.5612
2440	64.4734
2424	64.3915
2408	64.4446
2392	64.4467
2376	64.4899
2360	64.5081
2344	64.4108
2328	64.4218
2312	64.2798
2296	64.4242
2280	64.2603
2264	64.3347
2248	64.3082
2232	64.2942
2216	64.3242
2200	64.277
2184	64.2755
2168	64.3111
2152	64.2285
2136	64.3217
2120	64.1815
2104	64.293
2088	64.2161
2072	64.0373
2056	64.2149
2040	64.1627
2024	64.0708
2008	64.0912
1992	64.1282
1976	64.146
1960	63.9971
1944	64.0119
1928	64.0053
1912	64.0028
1896	64.0275
1880	63.9651
1864	63.9184
1848	63.8732
1832	63.9656
1816	63.9497
1800	63.8824
1784	63.7661
1768	63.8497
1752	63.6749
1736	63.5652
1720	63.6982
1704	63.6855
1688	63.6122
1672	63.5994
1656	63.6962
1640	63.5961
1624	63.6006
1608	63.6365
1592	63.6776
1576	63.3986
1560	63.6331
1544	63.6228
1528	63.4527
1512	63.4684
1496	63.6752
1480	63.3031
1464	63.1975
1448	63.2991
1432	63.3351
1416	63.397
1400	63.3647
1384	63.3356
1368	63.2528
1352	63.2921
1336	63.1409
1320	63.2576
1304	63.1918
1288	63.1069
1272	63.098
1256	62.9841
1240	63.0178
1224	63.1534
1208	63.0065
1192	62.9541
1176	62.9753
1160	62.8563
1144	62.9139
1128	62.8812
1112	62.9995
1096	63.0574
1080	62.7685
1064	62.881
1048	62.8139
1032	62.8096
1016	62.7821
1000	62.7841
984	 62.8045
968	 62.6587
952	 62.8145
936	 62.776
920	 63.0081
904	 62.6955
888	 62.6064
872	 62.8294
856	 62.818
840	 62.5784
824	 62.6617
808	 62.5978
792	 62.5213
776	 62.5152
760	 62.5687
744	 62.6249
728	 62.517
712	 61.9661
696	 62.3677
680	 62.2149
664	 62.1981
648	 62.0828
632	 61.8904
616	 61.3633
600	 62.6691
584	 62.4802
568	 61.5765
552	 62.1548
536	 62.3172
520	 62.0417
504	 61.4376
488	 61.9659
472	 60.9897
456	 61.3065
440	 60.5191
424	 60.7661
408	 62.1609
392	 61.7006
376	 52.7615
370	 63.8644