Folder: Masteroppgave/Bakgrunnsmateriale/MATLAB/FTIR/ftir_data/subAa/Mapping_121 (part 11)

File: BZ1503107-1_t19.asc
PE IR       SPECTRUM    SPECTRUM    ASCII       PEDS        1.60
  -1
BZ2D6B~1.ASC
17/04/07
14:44:13.00
17/04/07
14:44:39.00
tln
$BZ1503107-1_t0019$<tbV0>[-5.2,-10.4,8.0,0.0,27,1,0]
27.028
64

2002,4.07
MIRTGS : RIGHTBACK : INTERNAL 2
MIR : ON : INTERNAL 2
OPTKBR

0.200000
8
8.000000
FILLER
RATIO
SPECTRUM
UNLOCKED 256

DOUBLE
64
COMBINED
1
0
0

0.002000
RATIO

1
0
TRUE
51149
0
LEFT NOT FITTED RIGHT NOT FITTED 0
NONE
NONE
15600
12
4.427000
51148
TRUE
1 0 8 72 0 0 0 0

15798

#HDR
-1
-1
#GR
µM
%T
2.38419e-05
0.0
2.000000
0.002000
12515
8
73.3686
50.2451
#DATA
2.000000	 64.1699
2.084000	 65.7838
2.168000	 64.5839
2.252000	 68.1323
2.336000	 64.7952
2.420000	 64.9343
2.504000	 64.9843
2.588000	 65.2425
2.672000	 65.4363
2.756000	 65.3464
2.840000	 65.1363
2.924000	 65.2731
3.008000	 65.2301
3.092000	 64.9589
3.176000	 65.1995
3.260000	 65.1831
3.344000	 65.0818
3.428000	 65.032
3.512000	 65.0723
3.596000	 65.0495
3.680000	 65.0284
3.764000	 64.9972
3.848000	 65.0857
3.932000	 65.0189
4.016000	 65.0321
4.100000	 64.9996
4.184000	 64.978
4.268000	 64.925
4.352000	 64.9396
4.436000	 64.9318
4.520000	 64.97
4.604000	 64.9594
4.688000	 64.8516
4.772000	 64.8857
4.856000	 64.8777
4.940000	 64.9299
5.024000	 64.7605
5.108000	 64.8749
5.192000	 64.812
5.276000	 64.8308
5.359999	 64.8581
5.444000	 64.7497
5.528000	 64.804
5.612000	 64.7981
5.696000	 64.6599
5.780000	 64.5667
5.864000	 64.6948
5.948000	 64.8851
6.032000	 64.7752
6.116000	 64.6344
6.200000	 64.7176
6.284000	 64.7796
6.368000	 64.7026
6.452000	 64.5832
6.536000	 64.6131
6.620000	 64.7323
6.704000	 64.5898
6.788000	 64.741
6.872000	 64.4891
6.956000	 64.5343
7.040000	 64.4737
7.124000	 64.4116
7.208000	 64.3958
7.292000	 64.3484
7.376000	 64.4774
7.460000	 64.3723
7.544000	 64.4234
7.628000	 64.3263
7.712000	 64.3396
7.796000	 64.248
7.880000	 64.2994
7.964000	 64.3161
8.048000	 64.3113
8.132000	 64.1253
8.216000	 64.203
8.300000	 64.2875
8.384000	 64.3012
8.468000	 64.2035
8.552000	 64.2901
8.635999	 64.2217
8.719999	 64.1066
8.804000	 64.3293
8.888000	 64.2977
8.972000	 64.2434
9.056000	 64.1294
9.140000	 64.2977
9.224000	 64.3683
9.308000	 64.0979
9.391999	 64.0162
9.475999	 64.2408
9.560000	 64.091
9.644000	 64.0369
9.728000	 63.9758
9.812000	 64.2286
9.896000	 64.0892
9.980000	 64.0412
10.064	64.0716
10.148	64.1173
10.232	64.1254
10.316	64.0254
10.4	64.2579
10.484	64.2339
10.568	64.1933
10.652	64.2929
10.736	64.3192
10.82	64.4702
10.904	64.3829
10.988	64.2097
11.072	64.1006
11.156	64.0739
11.24	63.9604
11.324	64.1486
11.408	64.2431
11.492	64.2347
11.576	64.2279
11.66	64.1178
11.744	64.1811
11.828	64.3418
11.912	64.2937
11.996	64.2264
12.08	64.0294
12.164	63.8533
12.248	63.9624
12.332	64.1744
12.416	64.1909
12.5	64.1078
12.584	64.2006
12.668	64.1746
12.752	64.1396
12.836	64.087
12.92	64.0569
13.004	63.9572
13.088	63.9408
13.172	64.2195
13.256	64.1297
13.34	63.9873
13.424	64.0273
13.508	63.8493
13.592	63.6207
13.676	63.751
13.76	64.1387
13.844	64.2237
13.928	64.0326
14.012	63.9265
14.096	63.8775
14.18	63.8662
14.264	64.0293
14.348	64.0688
14.432	63.9652
14.516	64.0085
14.6	64.0937
14.684	63.9963
14.768	63.9684
14.852	64.1066
14.936	63.9916
15.02	63.654
15.104	63.6287
15.188	63.8565
15.272	63.8378
15.356	63.723
15.44	63.8246
15.524	63.8975
15.608	63.8986
15.692	64.003
15.776	63.9883
15.86	63.7577
15.944	63.6295
16.028	63.8041
16.112	64.0796
16.196	64.1
16.28	63.8166
16.364	63.5118
16.448	63.3815
16.532	63.4173
16.616	63.3326
16.7	62.703
16.784	61.784
16.868	61.5087
16.952	62.1087
17.036	62.8091
17.12	63.1233
17.204	63.2912
17.288	63.4377
17.372	63.3924
17.456	63.2471
17.54	63.3359
17.624	63.7326
17.708	64.111
17.792	64.0999
17.876	63.6885
17.96	63.2446
18.044	63.1101
18.128	63.3012
18.212	63.6072
18.296	63.8897
18.38	64.1657
18.464	64.4021
18.548	64.4506
18.632	64.2783
18.716	64.0836
18.8	64.0812
18.884	64.2721
18.968	64.4528
19.052	64.4145
19.136	64.1594
19.22	63.9043
19.304	63.8388
19.388	63.9247
19.472	63.9731
19.556	63.8675
19.64	63.6662
19.724	63.4923
19.808	63.3956
19.892	63.3544
19.976	63.3709
20.06	63.4955
20.144	63.7518
20.228	64.0673
20.312	64.308
20.396	64.3906
20.48	64.3376
20.564	64.2544
20.648	64.2477
20.732	64.3698
20.816	64.6019
20.9	64.8734
20.984	65.0842
21.068	65.1333
21.152	64.9436
21.236	64.4948
21.32	63.8553
21.404	63.1855
21.488	62.6943
21.572	62.5471
21.656	62.785
21.74	63.2966
21.824	63.8756
21.908	64.3358
21.992	64.5971
22.076	64.6884
22.16	64.6912
22.244	64.6615
22.328	64.597
22.412	64.4631
22.496	64.245
22.58	63.9878
22.664	63.7796
22.748	63.7016
22.832	63.7702
22.916	63.9276
23	64.0757
23.084	64.1425
23.168	64.1044
23.252	63.9901
23.336	63.864
23.42	63.7687
23.504	63.7162
23.588	63.6885
23.672	63.6527
23.756	63.5725
23.84	63.4373
23.924	63.253
24.008	63.0395
24.092	62.8171
24.176	62.5775
24.26	62.2893
24.344	61.9185
24.428	61.4719
24.512	61.0345
24.596	60.767
24.68	60.897
24.764	61.6409
24.848	63.0875
24.932	65.0933
25.016	67.2764
25.1	69.1792
25.184	70.3342
25.268	70.4639
25.352	69.5759
25.436	67.8874
25.52	65.7485
25.604	63.5246
25.688	61.384
25.772	59.4038
25.856	57.6779
25.94	56.7107
26.024	56.6391
26.108	56.6163
26.192	55.9368
26.276	54.7086
26.36	54.9438
26.444	57.5971
26.528	61.9114
26.612	63.6759
26.696	60.2747
26.78	53.5073
26.864	50.2986
26.948	57.6957
27.028	73.3686

File: BZ1503107-1_t19_cm-1.asc
PE IR       SPECTRUM    SPECTRUM    ASCII       PEDS        1.60
  -1
BZ61B1~1.ASC
17/04/07
14:44:13.00
17/04/07
14:44:13.00
tln
$BZ1503107-1_t0019$<tbV0>[-5.2,-10.4,8.0,0.0,27,1,0]
370
64

2002,4.07
MIRTGS : RIGHTBACK : INTERNAL 2
MIR : ON : INTERNAL 2
OPTKBR

0.200000
8
8.000000
FILLER
RATIO
SPECTRUM
UNLOCKED 256

DOUBLE
64
COMBINED
1
0
0

1.000000
RATIO

1
0
TRUE
51149
0
LEFT NOT FITTED RIGHT NOT FITTED 0
NONE
NONE
15600
12
4.427000
51148
TRUE
1 0 8 72 0 0 0 0

15798

#HDR
-1
-1
#GR
CM-1
%T
2.38419e-05
0.0
5000
-1.000000
4631
8
73.3686
50.8446
#DATA
5000	64.1699
4984	65.6172
4968	65.1907
4952	64.4742
4936	65.238
4920	64.8134
4904	65.2217
4888	64.6848
4872	64.3658
4856	64.9197
4840	65.7259
4824	64.814
4808	65.0334
4792	65.4701
4776	64.6312
4760	65.1662
4744	64.8294
4728	64.7578
4712	64.6952
4696	64.8327
4680	64.9966
4664	65.2459
4648	64.95
4632	65.0185
4616	64.7129
4600	65.0126
4584	65.246
4568	64.5947
4552	64.7211
4536	64.9648
4520	64.0696
4504	65.3418
4488	67.7114
4472	65.3156
4456	62.5337
4440	68.8389
4424	60.9004
4408	64.8705
4392	65.827
4376	64.5797
4360	65.0884
4344	65.1134
4328	64.9345
4312	65.2296
4296	64.924
4280	64.8188
4264	64.9129
4248	64.9227
4232	65.2022
4216	64.8236
4200	65.1168
4184	64.4664
4168	64.9718
4152	64.9339
4136	64.7701
4120	65.0436
4104	65.3116
4088	65.2502
4072	65.2805
4056	65.2245
4040	64.9442
4024	64.9169
4008	65.0101
3992	64.9811
3976	65.1469
3960	65.0684
3944	65.1361
3928	65.0562
3912	64.934
3896	65.0623
3880	64.8534
3864	65.2421
3848	65.4066
3832	65.1891
3816	65.2277
3800	65.2969
3784	65.3242
3768	65.1801
3752	65.2875
3736	65.4158
3720	65.1847
3704	65.2255
3688	65.3103
3672	65.4737
3656	65.2556
3640	65.3716
3624	65.3262
3608	65.1875
3592	65.0934
3576	65.1863
3560	65.0054
3544	65.2258
3528	65.1567
3512	65.2056
3496	65.3117
3480	65.1978
3464	64.9564
3448	64.9932
3432	65.3382
3416	65.2076
3400	65.2375
3384	65.1952
3368	65.2221
3352	65.0981
3336	65.3355
3320	65.1655
3304	65.1295
3288	65.0394
3272	65.2232
3256	65.133
3240	65.0246
3224	65.0244
3208	65.1983
3192	65.2618
3176	65.2366
3160	65.0678
3144	65.1519
3128	65.1716
3112	65.1625
3096	65.134
3080	65.1813
3064	65.1812
3048	65.1882
3032	64.9822
3016	65.377
3000	65.1961
2984	65.0891
2968	65.0142
2952	64.9973
2936	65.1103
2920	65.0856
2904	65.0421
2888	64.9989
2872	65.009
2856	65.147
2840	65.1104
2824	65.1201
2808	65.0377
2792	64.9777
2776	65.0956
2760	65.0243
2744	64.977
2728	65.1267
2712	64.9626
2696	65.2007
2680	65.1216
2664	65.1135
2648	65.0666
2632	64.8333
2616	65.0231
2600	65.067
2584	65.1229
2568	65.0145
2552	65.1292
2536	65.0888
2520	65.0052
2504	64.9312
2488	65.0493
2472	65.094
2456	64.8553
2440	65.0132
2424	64.7456
2408	65.0796
2392	64.9779
2376	64.9944
2360	65.0582
2344	64.9393
2328	65.0315
2312	65.0347
2296	64.9745
2280	64.938
2264	64.9794
2248	64.9885
2232	64.9044
2216	65.0054
2200	65.021
2184	64.8482
2168	64.9447
2152	64.8421
2136	64.7989
2120	65.0195
2104	64.8767
2088	64.9666
2072	64.7868
2056	64.8164
2040	64.8973
2024	64.9327
2008	64.8659
1992	64.7658
1976	64.8548
1960	64.9034
1944	64.8273
1928	64.8439
1912	64.8917
1896	64.8274
1880	64.8148
1864	64.846
1848	64.8431
1832	64.7843
1816	64.9213
1800	64.7639
1784	64.8084
1768	64.6798
1752	64.6155
1736	64.4983
1720	64.5807
1704	64.7367
1688	64.8895
1672	64.7013
1656	64.7834
1640	64.6443
1624	64.6085
1608	64.6236
1592	64.7761
1576	64.898
1560	64.8674
1544	64.6353
1528	64.637
1512	64.7047
1496	64.6497
1480	64.6284
1464	64.6353
1448	64.5068
1432	64.4538
1416	64.4454
1400	64.4325
1384	64.4264
1368	64.4189
1352	64.484
1336	64.3458
1320	64.4603
1304	64.3419
1288	64.392
1272	64.3306
1256	64.3127
1240	64.2394
1224	64.2166
1208	64.2878
1192	64.2939
1176	64.1201
1160	64.2212
1144	64.1682
1128	64.3249
1112	64.2776
1096	64.2452
1080	64.2795
1064	64.0236
1048	64.1727
1032	63.9645
1016	64.2218
1000	64.0258
984	 64.1257
968	 64.0663
952	 64.196
936	 64.2735
920	 64.402
904	 64.1036
888	 63.9744
872	 64.2467
856	 64.0939
840	 64.2983
824	 63.8846
808	 64.2234
792	 64.2033
776	 64.0644
760	 64.1823
744	 64.012
728	 64.0409
712	 63.9123
696	 64.0455
680	 63.9665
664	 63.5834
648	 63.811
632	 63.8704
616	 63.9963
600	 63.0256
584	 63.1305
568	 63.6316
552	 63.2615
536	 64.2109
520	 63.8835
504	 63.3741
488	 64.3251
472	 64.7893
456	 64.4236
440	 63.7063
424	 63.6895
408	 61.0443
392	 66.0058
376	 63.7602
370	 73.3686

File: BZ1503107-1_t20.asc
PE IR       SPECTRUM    SPECTRUM    ASCII       PEDS        1.60
  -1
BZ2949~1.ASC
17/04/07
14:48:50.00
17/04/07
14:49:17.00
tln
$BZ1503107-1_t0020$<tbV0>[-7.8,-10.4,8.0,0.0,27,1,0]
27.028
64

2002,4.07
MIRTGS : RIGHTBACK : INTERNAL 2
MIR : ON : INTERNAL 2
OPTKBR

0.200000
8
8.000000
FILLER
RATIO
SPECTRUM
UNLOCKED 256

DOUBLE
64
COMBINED
1
0
0

0.002000
RATIO

1
0
TRUE
51149
0
LEFT NOT FITTED RIGHT NOT FITTED 0
NONE
NONE
15600
12
4.427000
51148
TRUE
1 0 8 72 0 0 0 0

15798

#HDR
-1
-1
#GR
µM
%T
2.38419e-05
0.0
2.000000
0.002000
12515
8
78.4285
26.4633
#DATA
2.000000	 61.0909
2.084000	 61.06
2.168000	 60.4606
2.252000	 48.7377
2.336000	 60.5445
2.420000	 61.0766
2.504000	 60.7289
2.588000	 61.0371
2.672000	 61.4032
2.756000	 61.457
2.840000	 61.2472
2.924000	 61.5269
3.008000	 61.5117
3.092000	 61.4152
3.176000	 61.6653
3.260000	 61.7268
3.344000	 61.6609
3.428000	 61.548
3.512000	 61.9103
3.596000	 62.0111
3.680000	 61.8749
3.764000	 62.0142
3.848000	 62.0269
3.932000	 62.0633
4.016000	 62.1436
4.100000	 62.0881
4.184000	 62.0757
4.268000	 62.2119
4.352000	 62.2081
4.436000	 62.2057
4.520000	 62.269
4.604000	 62.3246
4.688000	 62.2249
4.772000	 62.2836
4.856000	 62.3205
4.940000	 62.4221
5.024000	 62.3886
5.108000	 62.4778
5.192000	 62.4563
5.276000	 62.4537
5.359999	 62.6258
5.444000	 62.6099
5.528000	 62.4512
5.612000	 62.5558
5.696000	 62.5964
5.780000	 62.1702
5.864000	 62.6538
5.948000	 62.8085
6.032000	 62.6072
6.116000	 62.6812
6.200000	 62.6235
6.284000	 62.7226
6.368000	 62.8156
6.452000	 62.6087
6.536000	 62.6941
6.620000	 62.9013
6.704000	 62.756
6.788000	 62.9507
6.872000	 62.7581
6.956000	 62.7138
7.040000	 62.805
7.124000	 62.7032
7.208000	 62.8324
7.292000	 62.7738
7.376000	 62.953
7.460000	 62.8514
7.544000	 62.8136
7.628000	 62.7665
7.712000	 62.782
7.796000	 62.8024
7.880000	 62.7759
7.964000	 62.7798
8.048000	 62.7598
8.132000	 62.795
8.216000	 62.8593
8.300000	 62.8351
8.384000	 62.8668
8.468000	 62.8282
8.552000	 62.813
8.635999	 62.7994
8.719999	 62.7666
8.804000	 63.2309
8.888000	 63.1048
8.972000	 62.957
9.056000	 63.0276
9.140000	 62.9386
9.224000	 63.1532
9.308000	 63.0308
9.391999	 62.9182
9.475999	 62.9689
9.560000	 62.8877
9.644000	 62.9644
9.728000	 63.0808
9.812000	 63.0904
9.896000	 63.036
9.980000	 63.1031
10.064	63.1513
10.148	63.253
10.232	63.1848
10.316	62.9865
10.4	63.1297
10.484	63.2079
10.568	63.4443
10.652	63.2393
10.736	63.2459
10.82	63.1968
10.904	63.1881
10.988	63.1688
11.072	63.115
11.156	63.2391
11.24	63.2221
11.324	63.1154
11.408	63.1874
11.492	63.3253
11.576	63.3397
11.66	63.3381
11.744	63.3533
11.828	63.2646
11.912	63.3536
11.996	63.0406
12.08	62.9519
12.164	63.1357
12.248	63.1821
12.332	63.279
12.416	63.2501
12.5	63.1072
12.584	63.2217
12.668	63.207
12.752	63.3181
12.836	63.3863
12.92	63.349
13.004	63.3456
13.088	63.3015
13.172	63.1026
13.256	62.9807
13.34	63.0125
13.424	63.1222
13.508	63.0809
13.592	63.049
13.676	63.2013
13.76	63.2531
13.844	63.0851
13.928	63.0229
14.012	63.21
14.096	63.2977
14.18	63.2777
14.264	63.2543
14.348	63.1586
14.432	62.9882
14.516	62.9378
14.6	63.1102
14.684	63.1006
14.768	63.0348
14.852	63.2194
14.936	63.3387
15.02	63.2406
15.104	63.0469
15.188	62.7717
15.272	62.5574
15.356	62.6559
15.44	63.0151
15.524	63.3696
15.608	63.5801
15.692	63.5833
15.776	63.4826
15.86	63.6092
15.944	64.0043
16.028	64.2991
16.112	64.2119
16.196	63.9203
16.28	63.9319
16.364	64.3552
16.448	64.5986
16.532	64.2886
16.616	63.8675
16.7	63.9355
16.784	64.5462
16.868	65.2005
16.952	65.344
17.036	64.9765
17.12	64.6237
17.204	64.5199
17.288	64.3128
17.372	63.7464
17.456	63.0832
17.54	62.6701
17.624	62.5767
17.708	62.8298
17.792	63.505
17.876	64.3764
17.96	64.8459
18.044	64.549
18.128	63.8318
18.212	63.3895
18.296	63.508
18.38	63.8144
18.464	63.8053
18.548	63.4136
18.632	62.9792
18.716	62.8148
18.8	62.9533
18.884	63.2371
18.968	63.5015
19.052	63.6585
19.136	63.7307
19.22	63.8397
19.304	64.0614
19.388	64.2858
19.472	64.2744
19.556	63.9128
19.64	63.3796
19.724	63.0131
19.808	63.0129
19.892	63.2802
19.976	63.5537
20.06	63.6591
20.144	63.6228
20.228	63.5673
20.312	63.5462
20.396	63.5122
20.48	63.4244
20.564	63.3442
20.648	63.4008
20.732	63.6598
20.816	64.0478
20.9	64.4043
20.984	64.6002
21.068	64.6142
21.152	64.5019
21.236	64.3207
21.32	64.0901
21.404	63.8193
21.488	63.5507
21.572	63.3599
21.656	63.2969
21.74	63.3434
21.824	63.4248
21.908	63.4692
21.992	63.4609
22.076	63.4342
22.16	63.428
22.244	63.4415
22.328	63.4391
22.412	63.3954
22.496	63.3338
22.58	63.3128
22.664	63.3905
22.748	63.592
22.832	63.8985
22.916	64.2694
23	64.6499
23.084	64.992
23.168	65.2357
23.252	65.3266
23.336	65.2481
23.42	65.0207
23.504	64.712
23.588	64.4133
23.672	64.1963
23.756	64.0916
23.84	64.1203
23.924	64.2824
24.008	64.5827
24.092	65.0331
24.176	65.5964
24.26	66.1934
24.344	66.7174
24.428	67.1054
24.512	67.4081
24.596	67.7676
24.68	68.4009
24.764	69.522
24.848	71.1897
24.932	73.253
25.016	75.3737
25.1	77.1766
25.184	78.2564
25.268	78.3307
25.352	77.3377
25.436	75.283
25.52	72.2898
25.604	68.6381
25.688	64.5963
25.772	60.5086
25.856	56.7848
25.94	54.2312
26.024	53.1626
26.108	52.6695
26.192	51.818
26.276	50.2805
26.36	49.2975
26.444	49.3999
26.528	49.9709
26.612	47.7461
26.696	41.0111
26.78	31.7976
26.864	26.5027
26.948	31.5844
27.028	45.3156

File: BZ1503107-1_t20_cm-1.asc
PE IR       SPECTRUM    SPECTRUM    ASCII       PEDS        1.60
  -1
BZ6823~1.ASC
17/04/07
14:48:50.00
17/04/07
14:48:50.00
tln
$BZ1503107-1_t0020$<tbV0>[-7.8,-10.4,8.0,0.0,27,1,0]
370
64

2002,4.07
MIRTGS : RIGHTBACK : INTERNAL 2
MIR : ON : INTERNAL 2
OPTKBR

0.200000
8
8.000000
FILLER
RATIO
SPECTRUM
UNLOCKED 256

DOUBLE
64
COMBINED
1
0
0

1.000000
RATIO

1
0
TRUE
51149
0
LEFT NOT FITTED RIGHT NOT FITTED 0
NONE
NONE
15600
12
4.427000
51148
TRUE
1 0 8 72 0 0 0 0

15798

#HDR
-1
-1
#GR
CM-1
%T
2.38419e-05
0.0
5000
-1.000000
4631
8
78.3971
26.5879
#DATA
5000	61.0909
4984	60.6883
4968	60.4119
4952	60.3035
4936	60.2017
4920	60.4816
4904	60.4628
4888	60.5151
4872	59.6671
4856	60.4833
4840	60.5239
4824	60.5357
4808	60.0999
4792	60.8293
4776	60.2717
4760	60.6762
4744	60.1793
4728	60.2293
4712	60.0127
4696	60.0801
4680	60.2942
4664	60.1337
4648	60.4554
4632	60.1321
4616	60.3172
4600	60.7972
4584	60.8106
4568	60.5056
4552	60.5472
4536	60.7251
4520	60.3371
4504	61.7085
4488	63.9343
4472	61.6896
4456	59.2988
4440	48.192
4424	60.4858
4408	62.0142
4392	61.4691
4376	60.8589
4360	61.5447
4344	61.7582
4328	61.3605
4312	61.2364
4296	61.0289
4280	60.5671
4264	60.7769
4248	60.9493
4232	60.7692
4216	60.9664
4200	60.8685
4184	60.8681
4168	60.9788
4152	60.7349
4136	60.9932
4120	60.7023
4104	61.0102
4088	61.131
4072	61.0885
4056	61.1254
4040	61.0852
4024	61.0225
4008	60.9419
3992	60.7149
3976	61.0706
3960	61.0679
3944	61.0934
3928	61.057
3912	60.8854
3896	61.3375
3880	61.1795
3864	61.0368
3848	61.528
3832	61.2678
3816	61.4119
3800	60.9523
3784	61.2061
3768	61.2843
3752	61.4522
3736	61.28
3720	61.1794
3704	61.4294
3688	61.4913
3672	61.4593
3656	61.2848
3640	61.2832
3624	61.4679
3608	61.3303
3592	61.254
3576	61.4351
3560	61.305
3544	61.4406
3528	61.2348
3512	61.309
3496	61.4027
3480	61.3855
3464	61.4264
3448	61.4572
3432	61.5721
3416	61.4308
3400	61.4057
3384	61.4661
3368	61.4139
3352	61.4231
3336	61.5564
3320	61.5263
3304	61.3864
3288	61.5851
3272	61.4363
3256	61.6203
3240	61.5154
3224	61.5975
3208	61.6252
3192	61.5701
3176	61.6146
3160	61.8022
3144	61.631
3128	61.8767
3112	61.6448
3096	61.8014
3080	61.5777
3064	61.6508
3048	61.5552
3032	61.594
3016	61.8316
3000	61.6636
2984	61.6443
2968	61.6283
2952	61.5639
2936	61.6522
2920	61.6078
2904	61.7008
2888	61.5985
2872	61.7541
2856	61.8335
2840	61.8537
2824	61.9092
2808	61.9033
2792	61.8191
2776	61.9506
2760	61.9055
2744	61.8172
2728	61.9633
2712	61.9219
2696	62.0219
2680	61.9804
2664	61.9724
2648	62.0171
2632	61.9197
2616	62.0243
2600	62.0167
2584	62.0427
2568	62.1145
2552	62.0341
2536	62.0564
2520	62.1287
2504	61.9367
2488	62.1617
2472	62.0743
2456	62.016
2440	62.0748
2424	62.1471
2408	62.2144
2392	62.0763
2376	62.1123
2360	62.2353
2344	62.213
2328	62.1805
2312	62.2077
2296	62.2048
2280	62.1764
2264	62.2992
2248	62.2203
2232	62.2075
2216	62.2602
2200	62.2873
2184	62.2689
2168	62.3859
2152	62.223
2136	62.2603
2120	62.4174
2104	62.3286
2088	62.4496
2072	62.4177
2056	62.4268
2040	62.4114
2024	62.4242
2008	62.4902
1992	62.3735
1976	62.5456
1960	62.483
1944	62.4775
1928	62.4621
1912	62.602
1896	62.4454
1880	62.5348
1864	62.5711
1848	62.602
1832	62.6422
1816	62.5471
1800	62.6205
1784	62.5722
1768	62.6661
1752	62.5932
1736	62.2567
1720	62.5207
1704	62.7149
1688	62.7824
1672	62.7027
1656	62.6203
1640	62.658
1624	62.6986
1608	62.663
1592	62.7125
1576	62.8897
1560	62.9216
1544	62.7496
1528	62.6961
1512	62.8501
1496	62.7756
1480	62.8145
1464	62.7481
1448	62.565
1432	62.7933
1416	62.838
1400	62.7053
1384	62.7819
1368	62.8573
1352	62.9669
1336	62.6955
1320	62.7844
1304	62.711
1288	62.7988
1272	62.7984
1256	62.7796
1240	62.8044
1224	62.8527
1208	62.8496
1192	62.872
1176	62.7658
1160	62.7859
1144	62.7957
1128	63.1605
1112	62.9365
1096	62.9459
1080	63.1693
1064	62.9215
1048	62.8789
1032	63.0896
1016	63.2001
1000	63.1399
984	 63.2517
968	 62.9936
952	 63.2818
936	 63.2593
920	 63.1912
904	 63.1202
888	 63.169
872	 63.2877
856	 63.3714
840	 63.3618
824	 63.0905
808	 63.3019
792	 63.2237
776	 63.3644
760	 63.1372
744	 63.1294
728	 63.2656
712	 63.2701
696	 63.1234
680	 63.0668
664	 63.1572
648	 62.9781
632	 63.5092
616	 63.8624
600	 63.8314
584	 64.6157
568	 62.5709
552	 63.9324
536	 62.8952
520	 63.8618
504	 63.101
488	 63.4102
472	 64.4339
456	 63.4714
440	 63.5313
424	 64.423
408	 67.3999
392	 72.6765
376	 48.5579
370	 45.3156

File: BZ1503107-1_t21.asc
PE IR       SPECTRUM    SPECTRUM    ASCII       PEDS        1.60
  -1
BZ2D49~1.ASC
17/04/07
14:53:27.00
17/04/07
14:53:54.00
tln
$BZ1503107-1_t0021$<tbV0>[-10.4,-10.4,8.0,0.0,27,1,0]
27.028
64

2002,4.07
MIRTGS : RIGHTBACK : INTERNAL 2
MIR : ON : INTERNAL 2
OPTKBR

0.200000
8
8.000000
FILLER
RATIO
SPECTRUM
UNLOCKED 256

DOUBLE
64
COMBINED
1
0
0

0.002000
RATIO

1
0
TRUE
51149
0
LEFT NOT FITTED RIGHT NOT FITTED 0
NONE
NONE
15600
12
4.427000
51148
TRUE
1 0 8 72 0 0 0 0

15798

#HDR
-1
-1
#GR
µM
%T
2.38419e-05
0.0
2.000000
0.002000
12515
8
72.9187
22.9309
#DATA
2.000000	 64.9513
2.084000	 66.0705
2.168000	 64.7273
2.252000	 59.1047
2.336000	 65.0076
2.420000	 65.1106
2.504000	 64.9456
2.588000	 64.8471
2.672000	 65.2802
2.756000	 65.4078
2.840000	 65.0421
2.924000	 65.273
3.008000	 65.1812
3.092000	 64.9866
3.176000	 65.1988
3.260000	 65.2328
3.344000	 65.0019
3.428000	 64.9731
3.512000	 64.9785
3.596000	 65.1053
3.680000	 64.9825
3.764000	 64.9962
3.848000	 64.9988
3.932000	 65.0721
4.016000	 64.9225
4.100000	 64.9678
4.184000	 65.0938
4.268000	 64.9845
4.352000	 64.9719
4.436000	 65.0081
4.520000	 64.9164
4.604000	 64.9124
4.688000	 64.8736
4.772000	 64.8514
4.856000	 64.6844
4.940000	 64.8652
5.024000	 64.856
5.108000	 64.8067
5.192000	 64.7787
5.276000	 64.8302
5.359999	 64.8385
5.444000	 64.7421
5.528000	 64.7993
5.612000	 64.7964
5.696000	 64.7436
5.780000	 64.5056
5.864000	 64.7304
5.948000	 64.7413
6.032000	 64.7874
6.116000	 64.6913
6.200000	 64.6131
6.284000	 64.6907
6.368000	 64.7778
6.452000	 64.7419
6.536000	 64.6692
6.620000	 64.8263
6.704000	 64.5676
6.788000	 64.6387
6.872000	 64.5469
6.956000	 64.7295
7.040000	 64.48
7.124000	 64.377
7.208000	 64.4411
7.292000	 64.2941
7.376000	 64.5636
7.460000	 64.4023
7.544000	 64.3815
7.628000	 64.2682
7.712000	 64.3714
7.796000	 64.396
7.880000	 64.2141
7.964000	 64.308
8.048000	 64.1969
8.132000	 64.3018
8.216000	 64.2614
8.300000	 64.1816
8.384000	 64.3584
8.468000	 64.1037
8.552000	 64.1425
8.635999	 64.2099
8.719999	 64.1295
8.804000	 64.2581
8.888000	 64.2867
8.972000	 64.2186
9.056000	 63.9569
9.140000	 64.189
9.224000	 64.3243
9.308000	 64.2578
9.391999	 64.1686
9.475999	 64.0644
9.560000	 64.0154
9.644000	 64.0644
9.728000	 64.0998
9.812000	 64.0843
9.896000	 64.0025
9.980000	 64.1471
10.064	64.4794
10.148	64.3398
10.232	64.1604
10.316	64.0345
10.4	64.1264
10.484	64.2582
10.568	64.3367
10.652	64.3477
10.736	64.2192
10.82	64.2033
10.904	64.2687
10.988	64.3421
11.072	64.1653
11.156	64.2355
11.24	64.1083
11.324	64.2429
11.408	64.3665
11.492	64.2543
11.576	63.9876
11.66	64.1447
11.744	64.3556
11.828	64.3703
11.912	64.2611
11.996	64.0395
12.08	64.0107
12.164	64.1682
12.248	64.0776
12.332	64.0658
12.416	64.0034
12.5	64.044
12.584	64.0772
12.668	64.0122
12.752	64.1173
12.836	64.01
12.92	63.8958
13.004	63.9227
13.088	63.9284
13.172	64.1312
13.256	64.318
13.34	64.0244
13.424	63.716
13.508	64
13.592	64.2103
13.676	64.081
13.76	63.97
13.844	63.9563
13.928	64.0036
14.012	64.0182
14.096	63.9611
14.18	63.9166
14.264	64.0237
14.348	64.0783
14.432	63.9658
14.516	63.8858
14.6	63.9647
14.684	64.1149
14.768	63.9405
14.852	63.5929
14.936	63.5786
15.02	63.7387
15.104	63.7536
15.188	63.7122
15.272	63.7124
15.356	63.6357
15.44	63.6254
15.524	63.9414
15.608	64.3156
15.692	64.3966
15.776	64.2565
15.86	64.1307
15.944	64.0541
16.028	63.8561
16.112	63.6932
16.196	63.9752
16.28	64.4343
16.364	64.3495
16.448	63.7672
16.532	63.438
16.616	63.7032
16.7	64.156
16.784	64.2987
16.868	64.1411
16.952	63.9987
17.036	63.9284
17.12	63.7776
17.204	63.6588
17.288	63.764
17.372	63.8585
17.456	63.6189
17.54	63.3051
17.624	63.4978
17.708	64.2298
17.792	64.9258
17.876	65.1097
17.96	64.8366
18.044	64.4327
18.128	64.1301
18.212	63.9702
18.296	63.9014
18.38	63.8706
18.464	63.8214
18.548	63.6855
18.632	63.4637
18.716	63.2891
18.8	63.3411
18.884	63.6612
18.968	64.077
19.052	64.3403
19.136	64.3319
19.22	64.1368
19.304	63.9312
19.388	63.8145
19.472	63.7489
19.556	63.6576
19.64	63.5529
19.724	63.5413
19.808	63.7083
19.892	64.01
19.976	64.3011
20.06	64.4619
20.144	64.4977
20.228	64.5137
20.312	64.5886
20.396	64.6931
20.48	64.721
20.564	64.6069
20.648	64.4109
20.732	64.288
20.816	64.3775
20.9	64.6849
20.984	65.0515
21.068	65.244
21.152	65.1085
21.236	64.674
21.32	64.1476
21.404	63.7877
21.488	63.7549
21.572	64.0306
21.656	64.4397
21.74	64.753
21.824	64.8095
21.908	64.5947
21.992	64.218
22.076	63.8306
22.16	63.5468
22.244	63.3993
22.328	63.346
22.412	63.3039
22.496	63.1937
22.58	62.9842
22.664	62.7044
22.748	62.4335
22.832	62.2511
22.916	62.2128
23	62.3003
23.084	62.4524
23.168	62.6
23.252	62.7006
23.336	62.7333
23.42	62.6848
23.504	62.532
23.588	62.2592
23.672	61.8916
23.756	61.5209
23.84	61.2733
23.924	61.2417
24.008	61.4566
24.092	61.8968
24.176	62.5023
24.26	63.228
24.344	64.0758
24.428	65.0714
24.512	66.1988
24.596	67.3515
24.68	68.3317
24.764	68.919
24.848	68.9218
24.932	68.3191
25.016	67.3297
25.1	66.3324
25.184	65.6798
25.268	65.5166
25.352	65.7678
25.436	66.0295
25.52	65.7935
25.604	64.75
25.688	62.7228
25.772	59.8861
25.856	56.7588
25.94	54.4769
26.024	53.8363
26.108	54.3806
26.192	55.4427
26.276	56.6084
26.36	58.6797
26.444	61.4101
26.528	63.3045
26.612	60.4089
26.696	50.7171
26.78	36.5177
26.864	25.0167
26.948	23.8341
27.028	32.7042