Folder: Masteroppgave/Bakgrunnsmateriale/MATLAB/FTIR/ftir_data/subAa/Mapping_121 (part 6)

File: BZ1503107-1_t06_cm-1.asc
PE IR       SPECTRUM    SPECTRUM    ASCII       PEDS        1.60
  -1
BZ6E22~1.ASC
17/04/07
13:43:34.00
17/04/07
13:43:34.00
tln
$BZ1503107-1_t0006$<tbV0>[0.0,-13.0,8.0,0.0,27,1,0]
370
64

2002,4.07
MIRTGS : RIGHTBACK : INTERNAL 2
MIR : ON : INTERNAL 2
OPTKBR

0.200000
8
8.000000
FILLER
RATIO
SPECTRUM
UNLOCKED 256

DOUBLE
64
COMBINED
1
0
0

1.000000
RATIO

1
0
TRUE
51149
0
LEFT NOT FITTED RIGHT NOT FITTED 0
NONE
NONE
15600
12
4.427000
51148
TRUE
1 0 8 72 0 0 0 0

15798

#HDR
-1
-1
#GR
CM-1
%T
2.38419e-05
0.0
5000
-1.000000
4631
8
78.7668
52.3367
#DATA
5000	64.7307
4984	64.4747
4968	64.0967
4952	64.5669
4936	64.2093
4920	65.328
4904	64.1276
4888	63.7361
4872	63.5329
4856	65.2987
4840	65.4148
4824	65.3202
4808	65.1033
4792	65.4801
4776	64.5944
4760	65.3755
4744	64.9937
4728	64.7607
4712	64.2035
4696	64.1336
4680	65.178
4664	64.7351
4648	64.5622
4632	64.5269
4616	64.3222
4600	64.6252
4584	64.3938
4568	63.974
4552	63.3775
4536	63.9848
4520	64.2065
4504	64.8994
4488	67.7638
4472	64.5159
4456	62.9543
4440	61.9055
4424	64.4914
4408	64.4689
4392	64.2915
4376	64.3399
4360	64.0641
4344	64.6709
4328	64.6295
4312	64.8507
4296	64.3812
4280	64.5954
4264	64.8306
4248	64.7901
4232	64.9467
4216	64.7103
4200	64.8937
4184	65.1336
4168	64.9564
4152	64.8157
4136	65.1678
4120	65.0396
4104	65.2834
4088	65.1543
4072	64.8781
4056	65.4899
4040	64.8151
4024	64.9801
4008	64.9634
3992	64.8968
3976	65.1341
3960	65.0541
3944	65.148
3928	64.8895
3912	64.9972
3896	65.1054
3880	64.8845
3864	65.0479
3848	65.1633
3832	65.1182
3816	65.0911
3800	65.0694
3784	65.0048
3768	65.1884
3752	65.2848
3736	65.2017
3720	65.144
3704	65.1953
3688	65.3297
3672	65.3532
3656	65.0736
3640	65.2663
3624	65.0492
3608	65.1108
3592	64.9964
3576	65.1368
3560	65.1184
3544	65.0257
3528	64.8752
3512	65.0547
3496	65.0221
3480	64.8821
3464	64.7402
3448	64.9577
3432	64.9159
3416	65.0744
3400	64.9232
3384	64.9393
3368	64.8383
3352	64.9472
3336	64.8749
3320	65.1584
3304	65.1008
3288	65.0959
3272	65.0699
3256	64.9467
3240	64.9043
3224	64.9552
3208	65.0929
3192	65.0334
3176	64.9314
3160	65.0377
3144	64.8219
3128	64.9345
3112	64.9283
3096	65.1125
3080	64.8635
3064	64.9365
3048	65.0113
3032	64.9705
3016	65.0075
3000	65.0982
2984	64.7926
2968	65.0293
2952	64.882
2936	64.8341
2920	64.873
2904	64.8384
2888	64.9431
2872	64.9634
2856	64.9726
2840	65.0192
2824	65.0424
2808	64.9204
2792	64.9578
2776	64.8928
2760	64.9911
2744	64.9766
2728	65.0288
2712	64.8657
2696	65.0063
2680	64.906
2664	65.0301
2648	64.9334
2632	64.8883
2616	64.9806
2600	64.9343
2584	65.085
2568	65.025
2552	64.9267
2536	64.9928
2520	64.9316
2504	64.9432
2488	64.9798
2472	65.007
2456	64.9593
2440	64.9013
2424	64.7954
2408	64.9395
2392	64.9114
2376	64.9504
2360	64.9764
2344	64.9696
2328	64.9415
2312	64.9444
2296	64.8778
2280	64.894
2264	64.9372
2248	64.8213
2232	64.8034
2216	64.843
2200	64.9132
2184	64.7076
2168	64.8027
2152	64.682
2136	64.7157
2120	64.8544
2104	64.79
2088	64.7487
2072	64.7092
2056	64.814
2040	64.7953
2024	64.8005
2008	64.8641
1992	64.7545
1976	64.8204
1960	64.803
1944	64.7228
1928	64.7787
1912	64.7381
1896	64.7596
1880	64.6929
1864	64.7363
1848	64.7423
1832	64.6584
1816	64.7866
1800	64.7284
1784	64.7355
1768	64.7644
1752	64.6287
1736	64.451
1720	64.614
1704	64.692
1688	64.5042
1672	64.6843
1656	64.6681
1640	64.6063
1624	64.6438
1608	64.559
1592	64.5453
1576	64.5263
1560	64.5898
1544	64.5252
1528	64.4295
1512	64.5881
1496	64.5335
1480	64.5112
1464	64.4599
1448	64.4543
1432	64.5935
1416	64.446
1400	64.367
1384	64.3682
1368	64.2881
1352	64.4454
1336	64.3605
1320	64.3349
1304	64.2137
1288	64.3589
1272	64.2085
1256	64.1829
1240	64.2459
1224	64.1975
1208	64.2908
1192	64.2593
1176	64.132
1160	64.0934
1144	64.2032
1128	64.2683
1112	64.1522
1096	64.3526
1080	64.3773
1064	64.1168
1048	64.138
1032	64.1916
1016	64.0919
1000	64.1849
984	 64.0996
968	 64.182
952	 64.2291
936	 64.2662
920	 64.141
904	 64.1699
888	 64.1441
872	 64.272
856	 64.2443
840	 64.0484
824	 64.0367
808	 64.2483
792	 64.1131
776	 64.161
760	 64.0608
744	 63.9101
728	 64.2081
712	 64.0523
696	 63.6834
680	 64.0939
664	 64.0066
648	 64.0924
632	 64.2508
616	 64.1613
600	 63.7625
584	 64.2649
568	 64.0346
552	 64.3771
536	 64.3969
520	 64.6219
504	 63.902
488	 63.9359
472	 66.7983
456	 63.7285
440	 57.5857
424	 62.1816
408	 67.7815
392	 65.0687
376	 71.197
370	 69.4775

File: BZ1503107-1_t07.asc
PE IR       SPECTRUM    SPECTRUM    ASCII       PEDS        1.60
  -1
BZ1565~1.ASC
17/04/07
13:48:11.00
17/04/07
13:48:38.00
tln
$BZ1503107-1_t0007$<tbV0>[-2.6,-13.0,8.0,0.0,27,1,0]
27.028
64

2002,4.07
MIRTGS : RIGHTBACK : INTERNAL 2
MIR : ON : INTERNAL 2
OPTKBR

0.200000
8
8.000000
FILLER
RATIO
SPECTRUM
UNLOCKED 256

DOUBLE
64
COMBINED
1
0
0

0.002000
RATIO

1
0
TRUE
51149
0
LEFT NOT FITTED RIGHT NOT FITTED 0
NONE
NONE
15600
12
4.427000
51148
TRUE
1 0 8 72 0 0 0 0

15798

#HDR
-1
-1
#GR
µM
%T
2.38419e-05
0.0
2.000000
0.002000
12515
8
80.6439
48.6151
#DATA
2.000000	 64.4937
2.084000	 65.6566
2.168000	 64.4247
2.252000	 72.9351
2.336000	 64.7682
2.420000	 64.7762
2.504000	 65.018
2.588000	 64.889
2.672000	 65.1377
2.756000	 65.2882
2.840000	 64.774
2.924000	 64.8316
3.008000	 64.9662
3.092000	 64.7893
3.176000	 64.94
3.260000	 64.9805
3.344000	 64.8371
3.428000	 64.7401
3.512000	 64.8427
3.596000	 64.9292
3.680000	 64.8838
3.764000	 64.8357
3.848000	 64.8219
3.932000	 64.9626
4.016000	 64.9162
4.100000	 64.7956
4.184000	 64.8941
4.268000	 64.8453
4.352000	 64.8177
4.436000	 64.8639
4.520000	 64.8364
4.604000	 64.8275
4.688000	 64.7001
4.772000	 64.86
4.856000	 64.7627
4.940000	 64.7665
5.024000	 64.6947
5.108000	 64.7102
5.192000	 64.7006
5.276000	 64.7868
5.359999	 64.6967
5.444000	 64.7431
5.528000	 64.7596
5.612000	 64.7338
5.696000	 64.6861
5.780000	 64.4422
5.864000	 64.6549
5.948000	 64.6455
6.032000	 64.7286
6.116000	 64.6242
6.200000	 64.6313
6.284000	 64.6748
6.368000	 64.5396
6.452000	 64.6528
6.536000	 64.4534
6.620000	 64.543
6.704000	 64.7265
6.788000	 64.6949
6.872000	 64.65
6.956000	 64.5958
7.040000	 64.5118
7.124000	 64.5315
7.208000	 64.3653
7.292000	 64.3124
7.376000	 64.3437
7.460000	 64.4235
7.544000	 64.4582
7.628000	 64.2651
7.712000	 64.2239
7.796000	 64.3185
7.880000	 64.2331
7.964000	 64.2759
8.048000	 64.2395
8.132000	 64.2015
8.216000	 64.2411
8.300000	 64.2232
8.384000	 64.3389
8.468000	 64.1606
8.552000	 64.0857
8.635999	 64.2234
8.719999	 64.1351
8.804000	 64.2696
8.888000	 64.1755
8.972000	 64.2923
9.056000	 64.2687
9.140000	 64.2631
9.224000	 64.2728
9.308000	 64.2087
9.391999	 64.0907
9.475999	 64.2057
9.560000	 64.1839
9.644000	 64.1152
9.728000	 64.1919
9.812000	 64.0301
9.896000	 64.216
9.980000	 64.237
10.064	64.4038
10.148	64.2734
10.232	64.2061
10.316	64.2924
10.4	64.2729
10.484	64.1236
10.568	64.2511
10.652	64.2806
10.736	64.1963
10.82	64.0798
10.904	64.0368
10.988	64.1972
11.072	64.0882
11.156	64.1876
11.24	64.0638
11.324	64.143
11.408	64.2017
11.492	64.1425
11.576	64.2352
11.66	64.1972
11.744	64.2229
11.828	64.3052
11.912	64.1743
11.996	63.9114
12.08	63.9162
12.164	64.0394
12.248	64.1366
12.332	64.0235
12.416	63.9551
12.5	64.0217
12.584	64.1106
12.668	64.0855
12.752	64.1262
12.836	64.1682
12.92	64.0417
13.004	63.9371
13.088	63.9816
13.172	64.0791
13.256	64.2271
13.34	64.3943
13.424	64.4013
13.508	64.2878
13.592	64.1913
13.676	64.1837
13.76	64.2103
13.844	63.994
13.928	63.8246
14.012	63.9061
14.096	64.0528
14.18	64.1414
14.264	64.1403
14.348	64.1165
14.432	64.1391
14.516	64.2951
14.6	64.3576
14.684	64.117
14.768	63.9017
14.852	64.0074
14.936	64.1927
15.02	64.2449
15.104	64.2477
15.188	64.2111
15.272	64.122
15.356	64.0338
15.44	63.9687
15.524	63.9585
15.608	63.963
15.692	63.8978
15.776	63.8082
15.86	63.7603
15.944	63.7487
16.028	63.7825
16.112	63.8842
16.196	64.0266
16.28	64.103
16.364	64.0086
16.448	63.8099
16.532	63.6744
16.616	63.646
16.7	63.6678
16.784	63.7393
16.868	63.8945
16.952	64.0684
17.036	64.1385
17.12	64.0706
17.204	63.9614
17.288	63.9462
17.372	64.0135
17.456	64.0089
17.54	63.9054
17.624	63.9038
17.708	64.1176
17.792	64.3802
17.876	64.4911
17.96	64.4369
18.044	64.2888
18.128	64.1216
18.212	64.0323
18.296	64.0909
18.38	64.233
18.464	64.3187
18.548	64.2896
18.632	64.2082
18.716	64.1475
18.8	64.1024
18.884	64.0003
18.968	63.7921
19.052	63.5637
19.136	63.5335
19.22	63.9029
19.304	64.6377
19.388	65.4009
19.472	65.768
19.556	65.5636
19.64	65.0055
19.724	64.4839
19.808	64.2157
19.892	64.1123
19.976	63.9849
20.06	63.7853
20.144	63.6212
20.228	63.5675
20.312	63.5568
20.396	63.4782
20.48	63.3239
20.564	63.186
20.648	63.1445
20.732	63.1899
20.816	63.3026
20.9	63.5463
20.984	64.0104
21.068	64.6603
21.152	65.2619
21.236	65.5078
21.32	65.253
21.404	64.652
21.488	64.0563
21.572	63.7508
21.656	63.7503
21.74	63.8335
21.824	63.7553
21.908	63.4727
21.992	63.1751
22.076	63.1115
22.16	63.3852
22.244	63.8577
22.328	64.2518
22.412	64.3469
22.496	64.1064
22.58	63.6524
22.664	63.1587
22.748	62.7642
22.832	62.5428
22.916	62.5549
23	62.8501
23.084	63.4406
23.168	64.2626
23.252	65.1646
23.336	65.9201
23.42	66.3139
23.504	66.1887
23.588	65.4956
23.672	64.303
23.756	62.7982
23.84	61.2447
23.924	59.9532
24.008	59.2249
24.092	59.2925
24.176	60.2297
24.26	61.8827
24.344	63.8837
24.428	65.7894
24.512	67.1462
24.596	67.7009
24.68	67.4141
24.764	66.422
24.848	64.9565
24.932	63.3069
25.016	61.7484
25.1	60.5169
25.184	59.7573
25.268	59.4735
25.352	59.5434
25.436	59.7307
25.52	59.8018
25.604	59.6421
25.688	59.0971
25.772	58.1782
25.856	57.1437
25.94	56.7876
26.024	57.5344
26.108	58.662
26.192	59.6629
26.276	60.7739
26.36	63.9016
26.444	69.6633
26.528	76.7812
26.612	80.6176
26.696	78.0981
26.78	70.584
26.864	64.7497
26.948	67.7404
27.028	78.1386

File: BZ1503107-1_t07_cm-1.asc
PE IR       SPECTRUM    SPECTRUM    ASCII       PEDS        1.60
  -1
BZ6F22~1.ASC
17/04/07
13:48:11.00
17/04/07
13:48:11.00
tln
$BZ1503107-1_t0007$<tbV0>[-2.6,-13.0,8.0,0.0,27,1,0]
370
64

2002,4.07
MIRTGS : RIGHTBACK : INTERNAL 2
MIR : ON : INTERNAL 2
OPTKBR

0.200000
8
8.000000
FILLER
RATIO
SPECTRUM
UNLOCKED 256

DOUBLE
64
COMBINED
1
0
0

1.000000
RATIO

1
0
TRUE
51149
0
LEFT NOT FITTED RIGHT NOT FITTED 0
NONE
NONE
15600
12
4.427000
51148
TRUE
1 0 8 72 0 0 0 0

15798

#HDR
-1
-1
#GR
CM-1
%T
2.38419e-05
0.0
5000
-1.000000
4631
8
80.3834
47.9481
#DATA
5000	64.4937
4984	64.7114
4968	64.4324
4952	64.3665
4936	63.9696
4920	65.3401
4904	65.1226
4888	64.5775
4872	64.0021
4856	64.413
4840	64.4852
4824	64.8053
4808	64.5835
4792	65.0592
4776	64.4494
4760	65.0864
4744	64.639
4728	64.532
4712	64.5777
4696	64.9465
4680	64.8137
4664	64.6606
4648	64.4823
4632	64.4159
4616	64.562
4600	64.5556
4584	64.8153
4568	64.3734
4552	64.4414
4536	64.4118
4520	64.6512
4504	65.1126
4488	68.0189
4472	64.1776
4456	59.9856
4440	72.9539
4424	64.8384
4408	64.6506
4392	64.8057
4376	64.5108
4360	64.8711
4344	64.8884
4328	64.8924
4312	64.7195
4296	64.8928
4280	64.7973
4264	64.8345
4248	64.5681
4232	64.7876
4216	64.857
4200	64.9186
4184	64.8995
4168	64.7071
4152	64.6398
4136	64.8258
4120	64.793
4104	65.0358
4088	65.1553
4072	65.0982
4056	65.0553
4040	64.7222
4024	64.8129
4008	64.8602
3992	64.992
3976	64.7726
3960	64.9657
3944	65.1307
3928	64.753
3912	64.9706
3896	64.881
3880	64.9905
3864	64.889
3848	64.9412
3832	64.9498
3816	64.8699
3800	65.1981
3784	64.9641
3768	64.7389
3752	65.0905
3736	65.0954
3720	64.9543
3704	65.09
3688	65.0853
3672	65.2705
3656	64.9974
3640	65.2121
3624	65.2457
3608	65.2072
3592	64.893
3576	64.8335
3560	64.9763
3544	65.045
3528	64.9335
3512	64.9812
3496	64.9147
3480	64.9438
3464	64.8804
3448	64.8657
3432	64.9192
3416	64.8517
3400	64.9406
3384	65.0314
3368	65.0579
3352	65.0801
3336	65.11
3320	64.9806
3304	65.0257
3288	65.0473
3272	64.9312
3256	65.0646
3240	64.7132
3224	64.8376
3208	64.9958
3192	64.9444
3176	64.9404
3160	64.9413
3144	64.8466
3128	64.9268
3112	64.8603
3096	64.9878
3080	64.9003
3064	64.9314
3048	64.7928
3032	65.0157
3016	64.98
3000	65.0267
2984	64.8751
2968	64.9422
2952	64.8756
2936	64.7913
2920	64.6866
2904	64.8899
2888	64.8169
2872	64.8757
2856	64.9721
2840	64.9699
2824	64.8463
2808	64.7733
2792	64.9316
2776	64.8638
2760	64.9002
2744	64.8195
2728	64.8646
2712	64.8496
2696	64.8906
2680	64.8155
2664	64.7412
2648	64.9136
2632	64.9158
2616	64.8739
2600	64.8024
2584	64.8969
2568	64.933
2552	64.9339
2536	65.0686
2520	64.8427
2504	64.9208
2488	64.9683
2472	64.9288
2456	64.9559
2440	64.7883
2424	64.8589
2408	64.7869
2392	64.9193
2376	64.8423
2360	64.8118
2344	64.8477
2328	64.9033
2312	64.8418
2296	64.8149
2280	64.8059
2264	64.8605
2248	64.905
2232	64.9007
2216	64.889
2200	64.8504
2184	64.8263
2168	64.8581
2152	64.5751
2136	64.6569
2120	64.9327
2104	64.7897
2088	64.8933
2072	64.7921
2056	64.7655
2040	64.8223
2024	64.7665
2008	64.7921
1992	64.7005
1976	64.8002
1960	64.7149
1944	64.7074
1928	64.7286
1912	64.7377
1896	64.7847
1880	64.7495
1864	64.695
1848	64.865
1832	64.6452
1816	64.7894
1800	64.7524
1784	64.7367
1768	64.7648
1752	64.6285
1736	64.5541
1720	64.6217
1704	64.6781
1688	64.6327
1672	64.6428
1656	64.7661
1640	64.6017
1624	64.6838
1608	64.6476
1592	64.6718
1576	64.5823
1560	64.5952
1544	64.6361
1528	64.5074
1512	64.5527
1496	64.7534
1480	64.5816
1464	64.5703
1448	64.4965
1432	64.5693
1416	64.42
1400	64.51
1384	64.4207
1368	64.372
1352	64.3719
1336	64.355
1320	64.3618
1304	64.2262
1288	64.3195
1272	64.2542
1256	64.2708
1240	64.2584
1224	64.1903
1208	64.2194
1192	64.3376
1176	64.0322
1160	64.1961
1144	64.2008
1128	64.1785
1112	64.3403
1096	64.1992
1080	64.3381
1064	64.1116
1048	64.1794
1032	64.1807
1016	64.0731
1000	64.3013
984	 64.2711
968	 64.3168
952	 64.1553
936	 64.2735
920	 64.0244
904	 64.0949
888	 64.0407
872	 64.1303
856	 64.1941
840	 64.1981
824	 63.9937
808	 63.9705
792	 64.1013
776	 64.1078
760	 64.0603
744	 64.3815
728	 64.221
712	 63.9642
696	 64.1128
680	 64.0379
664	 64.2478
648	 63.9729
632	 63.776
616	 64.0776
600	 63.6554
584	 64.0663
568	 63.885
552	 64.1434
536	 64.1866
520	 63.9807
504	 64.1668
488	 63.3012
472	 65.4207
456	 63.3861
440	 62.8478
424	 65.5305
408	 67.1206
392	 59.8036
376	 80.3834
370	 78.1386

File: BZ1503107-1_t08.asc
PE IR       SPECTRUM    SPECTRUM    ASCII       PEDS        1.60
  -1
BZ1965~1.ASC
17/04/07
13:52:49.00
17/04/07
13:53:15.00
tln
$BZ1503107-1_t0008$<tbV0>[-5.2,-13.0,8.0,0.0,27,1,0]
27.028
64

2002,4.07
MIRTGS : RIGHTBACK : INTERNAL 2
MIR : ON : INTERNAL 2
OPTKBR

0.200000
8
8.000000
FILLER
RATIO
SPECTRUM
UNLOCKED 256

DOUBLE
64
COMBINED
1
0
0

0.002000
RATIO

1
0
TRUE
51149
0
LEFT NOT FITTED RIGHT NOT FITTED 0
NONE
NONE
15600
12
4.427000
51148
TRUE
1 0 8 72 0 0 0 0

15798

#HDR
-1
-1
#GR
µM
%T
2.38419e-05
0.0
2.000000
0.002000
12515
8
85.573
44.0173
#DATA
2.000000	 61.9254
2.084000	 64.4306
2.168000	 62.6968
2.252000	 76.5923
2.336000	 62.9621
2.420000	 63.4971
2.504000	 63.4203
2.588000	 63.3369
2.672000	 63.8764
2.756000	 63.7837
2.840000	 63.5102
2.924000	 63.7779
3.008000	 63.6886
3.092000	 63.7684
3.176000	 63.828
3.260000	 63.9683
3.344000	 63.7856
3.428000	 63.5935
3.512000	 63.8421
3.596000	 63.9659
3.680000	 63.9558
3.764000	 64.0002
3.848000	 64.0079
3.932000	 63.995
4.016000	 64.0258
4.100000	 64.0144
4.184000	 64.0037
4.268000	 64.0644
4.352000	 64.0205
4.436000	 64.1267
4.520000	 63.9723
4.604000	 64.1521
4.688000	 64.0883
4.772000	 64.0846
4.856000	 64.0612
4.940000	 64.045
5.024000	 64.1258
5.108000	 64.2231
5.192000	 64.0106
5.276000	 64.1271
5.359999	 64.1405
5.444000	 64.0793
5.528000	 64.1333
5.612000	 64.0305
5.696000	 64.0147
5.780000	 63.7707
5.864000	 64.0182
5.948000	 64.0827
6.032000	 63.9944
6.116000	 63.8942
6.200000	 63.9841
6.284000	 64.0653
6.368000	 64.016
6.452000	 64.1003
6.536000	 63.9604
6.620000	 64.1555
6.704000	 64.1089
6.788000	 64.0126
6.872000	 63.9963
6.956000	 64.1462
7.040000	 64.0366
7.124000	 63.8677
7.208000	 63.8513
7.292000	 63.8668
7.376000	 64.0198
7.460000	 64.0708
7.544000	 63.9546
7.628000	 63.7569
7.712000	 63.8198
7.796000	 63.8216
7.880000	 63.7415
7.964000	 63.6841
8.048000	 63.5867
8.132000	 63.6972
8.216000	 63.6882
8.300000	 63.734
8.384000	 63.7106
8.468000	 63.7193
8.552000	 63.7845
8.635999	 63.6029
8.719999	 63.7343
8.804000	 63.8943
8.888000	 63.8622
8.972000	 64.0617
9.056000	 63.72
9.140000	 64.0118
9.224000	 64.0024
9.308000	 63.7759
9.391999	 63.7629
9.475999	 63.968
9.560000	 63.8342
9.644000	 63.7845
9.728000	 63.8582
9.812000	 63.8137
9.896000	 63.796
9.980000	 63.7345
10.064	63.78
10.148	63.8605
10.232	63.7741
10.316	63.8035
10.4	63.8613
10.484	63.9965
10.568	64.0909
10.652	64.1419
10.736	64.0501
10.82	63.914
10.904	64.0714
10.988	64.1226
11.072	63.98
11.156	63.9338
11.24	63.7155
11.324	63.8404
11.408	63.9645
11.492	64.0668
11.576	64.0813
11.66	63.8798
11.744	63.9503
11.828	64.1168
11.912	64.1147
11.996	63.9831
12.08	63.7271
12.164	63.7936
12.248	63.8305
12.332	63.8676
12.416	63.8584
12.5	63.8275
12.584	63.8401
12.668	63.7911
12.752	63.9721
12.836	64.0616
12.92	64.0078
13.004	63.9484
13.088	63.8885
13.172	63.7902
13.256	63.7443
13.34	63.8491
13.424	63.872
13.508	63.7612
13.592	63.6663
13.676	63.7915
13.76	64.0123
13.844	64.0407
13.928	64.0285
14.012	64.0137
14.096	63.9105
14.18	63.8882
14.264	63.9254
14.348	63.8578
14.432	63.7346
14.516	63.6251
14.6	63.5229
14.684	63.4393
14.768	63.4221
14.852	63.561
14.936	63.7522
15.02	63.853
15.104	63.8571
15.188	63.7239
15.272	63.5443
15.356	63.55
15.44	63.7346
15.524	63.8487
15.608	63.8028
15.692	63.738
15.776	63.7297
15.86	63.7927
15.944	63.9161
16.028	64.004
16.112	63.9963
16.196	63.9128
16.28	63.7662
16.364	63.6122
16.448	63.5759
16.532	63.6924
16.616	63.8205
16.7	63.8388
16.784	63.8179
16.868	63.8371
16.952	63.8379
17.036	63.8045
17.12	63.8894
17.204	64.1627
17.288	64.3507
17.372	64.1211
17.456	63.6116
17.54	63.3921
17.624	63.8022
17.708	64.5429
17.792	65.0737
17.876	65.1887
17.96	65.0563
18.044	64.8088
18.128	64.4026
18.212	63.8758
18.296	63.4766
18.38	63.425
18.464	63.7109
18.548	64.1983
18.632	64.7676
18.716	65.2633
18.8	65.4133
18.884	65.0041
18.968	64.1016
19.052	63.0609
19.136	62.3021
19.22	62.0834
19.304	62.3738
19.388	62.9265
19.472	63.4822
19.556	63.9098
19.64	64.1953
19.724	64.3322
19.808	64.2807
19.892	64.0289
19.976	63.6952
20.06	63.5155
20.144	63.6434
20.228	63.993
20.312	64.2948
20.396	64.3261
20.48	64.0602
20.564	63.6546
20.648	63.359
20.732	63.3851
20.816	63.798
20.9	64.4306
20.984	64.9286
21.068	64.9473
21.152	64.4035
21.236	63.5686
21.32	62.899
21.404	62.7414
21.488	63.1326
21.572	63.841
21.656	64.5383
21.74	64.9682
21.824	65.0281
21.908	64.7581
21.992	64.2683
22.076	63.6816
22.16	63.12
22.244	62.6898
22.328	62.465
22.412	62.4767
22.496	62.6866
22.58	63.0111
22.664	63.3605
22.748	63.6726
22.832	63.9383
22.916	64.1926
23	64.4748
23.084	64.7979
23.168	65.1451
23.252	65.4825
23.336	65.7716
23.42	65.9973
23.504	66.1604
23.588	66.2545
23.672	66.2479
23.756	66.0863
23.84	65.7431
23.924	65.2285
24.008	64.6117
24.092	64.0278
24.176	63.6265
24.26	63.5368
24.344	63.8194
24.428	64.4187
24.512	65.1616
24.596	65.823
24.68	66.1727
24.764	66.0499
24.848	65.4804
24.932	64.6587
25.016	63.8565
25.1	63.3319
25.184	63.1407
25.268	63.069
25.352	62.747
25.436	61.7432
25.52	59.8534
25.604	57.2499
25.688	54.2563
25.772	51.2924
25.856	48.7306
25.94	47.1882
26.024	46.7409
26.108	46.3797
26.192	45.4148
26.276	44.1568
26.36	44.7578
26.444	48.5538
26.528	55.2239
26.612	61.105
26.696	63.4075
26.78	62.6926
26.864	63.8745
26.948	72.2566
27.028	85.573

File: BZ1503107-1_t08_cm-1.asc
PE IR       SPECTRUM    SPECTRUM    ASCII       PEDS        1.60
  -1
BZ6032~1.ASC
17/04/07
13:52:49.00
17/04/07
13:52:49.00
tln
$BZ1503107-1_t0008$<tbV0>[-5.2,-13.0,8.0,0.0,27,1,0]
370
64

2002,4.07
MIRTGS : RIGHTBACK : INTERNAL 2
MIR : ON : INTERNAL 2
OPTKBR

0.200000
8
8.000000
FILLER
RATIO
SPECTRUM
UNLOCKED 256

DOUBLE
64
COMBINED
1
0
0

1.000000
RATIO

1
0
TRUE
51149
0
LEFT NOT FITTED RIGHT NOT FITTED 0
NONE
NONE
15600
12
4.427000
51148
TRUE
1 0 8 72 0 0 0 0

15798

#HDR
-1
-1
#GR
CM-1
%T
2.38419e-05
0.0
5000
-1.000000
4631
8
85.573
44.0665
#DATA
5000	61.9254
4984	63.9917
4968	62.5059
4952	62.9741
4936	63.0022
4920	62.2161
4904	63.0948
4888	63.1348
4872	62.6981
4856	63.7542
4840	63.4962
4824	63.2048
4808	63.1689
4792	63.8677
4776	63.0831
4760	63.7372
4744	63.2404
4728	63.372
4712	62.9553
4696	62.8103
4680	63.1214
4664	63.1592
4648	63.0615
4632	62.7372
4616	62.5975
4600	62.9096
4584	62.8822
4568	62.8297
4552	62.1122
4536	62.8437
4520	61.6351
4504	63.1778
4488	65.9159
4472	62.682
4456	56.4815
4440	76.4361
4424	63.7935
4408	63.6329
4392	62.6527
4376	62.76
4360	62.9105
4344	62.8477
4328	62.8115
4312	63.0313
4296	63.1292
4280	62.9841
4264	63.0869
4248	63.1073
4232	63.3643
4216	63.337
4200	63.4126
4184	63.3102
4168	63.4717
4152	63.5214
4136	63.5517
4120	63.768
4104	63.9307
4088	63.728
4072	63.8082
4056	63.7989
4040	63.7418
4024	63.4546
4008	63.4384
3992	63.4027
3976	63.5138
3960	63.63
3944	63.5698
3928	63.3573
3912	63.5889
3896	63.5549
3880	63.3603
3864	63.3368
3848	63.631
3832	63.7791
3816	63.63
3800	63.6451
3784	63.6712
3768	63.7763
3752	63.9797
3736	63.7742
3720	63.8003
3704	63.9098
3688	63.8318
3672	64.1715
3656	63.8698
3640	63.9361
3624	63.8969
3608	63.901
3592	63.6878
3576	63.7368
3560	63.6911
3544	63.7206
3528	63.4962
3512	63.6863
3496	63.8628
3480	63.7295
3464	63.545
3448	63.6765
3432	63.7509
3416	63.7489
3400	63.7077
3384	63.7316
3368	63.7858
3352	63.5854
3336	63.9228
3320	63.6914
3304	63.7908
3288	63.7942
3272	63.8049
3256	63.8172
3240	63.732
3224	63.7388
3208	63.9965
3192	63.9259
3176	63.7406
3160	63.919
3144	63.8341
3128	63.7204
3112	63.6821
3096	63.9018
3080	63.8652
3064	63.8828
3048	63.8465
3032	63.943
3016	64.1401
3000	63.8077
2984	63.7703
2968	63.7563
2952	63.6122
2936	63.8075
2920	63.6473
2904	63.6584
2888	63.905
2872	63.8901
2856	63.746
2840	63.9337
2824	63.9319
2808	63.8761
2792	63.8726
2776	63.9415
2760	63.9711
2744	63.938
2728	64.0278
2712	63.967
2696	64.0461
2680	63.9621
2664	63.8892
2648	63.9306
2632	63.9651
2616	64.0448
2600	63.9966
2584	64.0824
2568	64.0439
2552	64.0322
2536	64.0384
2520	64.0555
2504	63.9112
2488	64.0674
2472	64.0224
2456	64.0718
2440	64.0141
2424	63.9186
2408	63.9742
2392	64.0116
2376	64.1161
2360	64.0327
2344	64.063
2328	64.1369
2312	64.0738
2296	64.0352
2280	63.9038
2264	64.044
2248	64.1481
2232	64.084
2216	63.9961
2200	64.0872
2184	64.0642
2168	64.1469
2152	63.9198
2136	64.0619
2120	64.0922
2104	64.1275
2088	64.1654
2072	64.0774
2056	64.1103
2040	64.0954
2024	64.0443
2008	64.2824
1992	64.1224
1976	64.1584
1960	64.2346
1944	64.0722
1928	64.0262
1912	64.195
1896	64.1362
1880	64.0603
1864	64.132
1848	64.1731
1832	64.1097
1816	64.1778
1800	64.1554
1784	64.0456
1768	64.2523
1752	63.9688
1736	63.8727
1720	63.9938
1704	64.0395
1688	63.9201
1672	64.0884
1656	64.0721
1640	63.8769
1624	64.0248
1608	63.9671
1592	64.0661
1576	64.0634
1560	64.034
1544	64.0698
1528	63.9714
1512	64.1379
1496	64.2351
1480	64.0412
1464	64.006
1448	63.8751
1432	64.0819
1416	63.9776
1400	63.8783
1384	63.7893
1368	63.9143
1352	64.0344
1336	64.0701
1320	63.9133
1304	63.8113
1288	63.8808
1272	63.7618
1256	63.6901
1240	63.6318
1224	63.7025
1208	63.6951
1192	63.7128
1176	63.7189
1160	63.5872
1144	63.7683
1128	63.8071
1112	64.0124
1096	63.962
1080	63.9923
1064	63.7819
1048	63.8783
1032	63.8631
1016	63.8515
1000	63.7312
984	 63.8566
968	 63.8174
952	 64.0248
936	 64.1327
920	 63.9658
904	 63.9779
888	 63.7269
872	 64.0607
856	 63.8515
840	 64.1203
824	 63.7413
808	 63.8808
792	 63.8004
776	 64.0296
760	 63.8105
744	 63.8577
728	 63.9635
712	 63.9769
696	 63.8289
680	 63.4241
664	 63.8688
648	 63.7163
632	 63.7547
616	 63.8536
600	 63.8433
584	 63.8971
568	 63.6649
552	 64.472
536	 64.9316
520	 62.0957
504	 64.2021
488	 64.0069
472	 64.0703
456	 64.647
440	 63.6006
424	 66.2527
408	 65.1427
392	 60.1144
376	 60.2453
370	 85.573