Folder: Masteroppgave/Bakgrunnsmateriale/MATLAB/FTIR/ftir_data/subAa/Mapping_121 (part 40)

File: BZ1503107-1_t91_cm-1.asc
PE IR       SPECTRUM    SPECTRUM    ASCII       PEDS        1.60
  -1
BZ69A5~1.ASC
17/04/07
20:46:00.00
17/04/07
20:46:00.00
tln
$BZ1503107-1_t0091$<tbV0>[7.8,7.8,8.0,0.0,27,1,0]
370
64

2002,4.07
MIRTGS : RIGHTBACK : INTERNAL 2
MIR : ON : INTERNAL 2
OPTKBR

0.200000
8
8.000000
FILLER
RATIO
SPECTRUM
UNLOCKED 256

DOUBLE
64
COMBINED
1
0
0

1.000000
RATIO

1
0
TRUE
51149
0
LEFT NOT FITTED RIGHT NOT FITTED 0
NONE
NONE
15600
12
4.427000
51148
TRUE
1 0 8 72 0 0 0 0

15798

#HDR
-1
-1
#GR
CM-1
%T
2.38419e-05
0.0
5000
-1.000000
4631
8
80.7195
51.4939
#DATA
5000	64.25
4984	64.5848
4968	63.5023
4952	67.8461
4936	63.0851
4920	64.1394
4904	64.9804
4888	64.8347
4872	64.9094
4856	65.1489
4840	64.7914
4824	65.0977
4808	65.2343
4792	64.8814
4776	65.0898
4760	65.4451
4744	65.1675
4728	65.1174
4712	65.0509
4696	64.9085
4680	65.4339
4664	65.4089
4648	64.838
4632	65.4804
4616	65.0508
4600	65.0135
4584	64.9686
4568	64.9906
4552	64.6313
4536	64.488
4520	64.3456
4504	64.0475
4488	63.716
4472	63.8947
4456	66.2648
4440	80.7195
4424	65.9003
4408	64.7903
4392	64.0139
4376	64.2872
4360	64.38
4344	64.8011
4328	64.7989
4312	64.8031
4296	64.8373
4280	64.6587
4264	64.7475
4248	64.9903
4232	64.8752
4216	64.9366
4200	64.865
4184	65.2022
4168	65.2335
4152	64.9871
4136	64.9737
4120	65.0481
4104	65.1741
4088	65.1928
4072	65.1271
4056	65.0568
4040	65.2209
4024	65.213
4008	65.1198
3992	65.1369
3976	64.9808
3960	64.7905
3944	64.8911
3928	65.164
3912	64.782
3896	64.9501
3880	65.1554
3864	65.0764
3848	65.1137
3832	65.1292
3816	64.9883
3800	64.8789
3784	65.2356
3768	65.1125
3752	65.0439
3736	65.2002
3720	65.3224
3704	65.2917
3688	65.2369
3672	65.3562
3656	65.0069
3640	65.2946
3624	64.9331
3608	65.1784
3592	65.3248
3576	65.0579
3560	65.1736
3544	64.7936
3528	65.1278
3512	65.0054
3496	65.0433
3480	65.0493
3464	64.9947
3448	64.8542
3432	64.9338
3416	65.0182
3400	64.9436
3384	64.9872
3368	64.9054
3352	65.0306
3336	64.9148
3320	64.9462
3304	65.0399
3288	64.9465
3272	64.9922
3256	64.8713
3240	65.0316
3224	64.946
3208	64.9629
3192	64.8707
3176	65.0256
3160	64.8732
3144	64.8637
3128	64.9868
3112	64.9222
3096	65.097
3080	64.8284
3064	64.8763
3048	64.9803
3032	64.8466
3016	64.8901
3000	64.8369
2984	64.8116
2968	64.7051
2952	64.6756
2936	64.7549
2920	64.786
2904	64.8603
2888	64.7795
2872	64.731
2856	64.802
2840	64.7328
2824	64.8287
2808	64.7265
2792	64.7468
2776	64.8491
2760	64.8793
2744	64.7607
2728	64.9044
2712	64.7114
2696	64.808
2680	64.7271
2664	64.812
2648	64.8931
2632	64.6877
2616	64.6414
2600	64.7185
2584	64.5726
2568	64.7503
2552	64.7979
2536	64.7199
2520	64.6111
2504	64.6522
2488	64.7119
2472	64.7352
2456	64.7762
2440	64.5961
2424	64.7288
2408	64.5496
2392	64.6188
2376	64.5753
2360	64.5671
2344	64.5963
2328	64.6301
2312	64.5579
2296	64.5774
2280	64.4809
2264	64.588
2248	64.5659
2232	64.5453
2216	64.45
2200	64.3905
2184	64.4671
2168	64.3703
2152	64.4661
2136	64.4324
2120	64.3986
2104	64.3874
2088	64.2953
2072	64.1762
2056	64.4933
2040	64.3867
2024	64.2668
2008	64.3152
1992	64.384
1976	64.2649
1960	64.2473
1944	64.2324
1928	64.2361
1912	64.1362
1896	64.2786
1880	64.1933
1864	64.1525
1848	64.1577
1832	64.1983
1816	64.1846
1800	64.1464
1784	64.0064
1768	64.1362
1752	63.9292
1736	63.7774
1720	63.8958
1704	63.864
1688	63.9714
1672	63.7969
1656	64.0417
1640	64.0198
1624	63.8726
1608	63.8913
1592	63.8073
1576	63.7814
1560	63.8043
1544	63.7192
1528	63.7645
1512	63.643
1496	63.8428
1480	63.7498
1464	63.6981
1448	63.6874
1432	63.7023
1416	63.5573
1400	63.7223
1384	63.6361
1368	63.6684
1352	63.4483
1336	63.4917
1320	63.5414
1304	63.4574
1288	63.3903
1272	63.3718
1256	63.3379
1240	63.3562
1224	63.4175
1208	63.4631
1192	63.2737
1176	63.1518
1160	63.1675
1144	63.239
1128	63.1624
1112	63.25
1096	63.3141
1080	63.028
1064	63.1386
1048	63.1553
1032	63.0875
1016	62.9664
1000	63.0214
984	 63.2831
968	 63.0722
952	 63.0417
936	 63.1755
920	 63.0747
904	 63.1057
888	 63.1161
872	 63.1211
856	 63.0763
840	 62.8723
824	 62.8355
808	 63.0733
792	 62.9363
776	 62.8617
760	 62.6822
744	 62.8976
728	 63.0817
712	 62.6696
696	 62.2849
680	 62.3425
664	 62.7691
648	 62.2915
632	 62.3151
616	 62.0299
600	 62.3846
584	 61.7252
568	 63.0292
552	 62.4952
536	 61.4981
520	 62.4538
504	 62.742
488	 63.7987
472	 61.3874
456	 61.0918
440	 61.4903
424	 62.7827
408	 63.1426
392	 53.7665
376	 63.7359
370	 68.2785

File: BZ1503107-1_t92.asc
PE IR       SPECTRUM    SPECTRUM    ASCII       PEDS        1.60
  -1
BZ315B~1.ASC
17/04/07
20:50:37.00
17/04/07
20:51:03.00
tln
$BZ1503107-1_t0092$<tbV0>[5.2,7.8,8.0,0.0,27,1,0]
27.028
64

2002,4.07
MIRTGS : RIGHTBACK : INTERNAL 2
MIR : ON : INTERNAL 2
OPTKBR

0.200000
8
8.000000
FILLER
RATIO
SPECTRUM
UNLOCKED 256

DOUBLE
64
COMBINED
1
0
0

0.002000
RATIO

1
0
TRUE
51149
0
LEFT NOT FITTED RIGHT NOT FITTED 0
NONE
NONE
15600
12
4.427000
51148
TRUE
1 0 8 72 0 0 0 0

15798

#HDR
-1
-1
#GR
µM
%T
2.38419e-05
0.0
2.000000
0.002000
12515
8
78.5294
60.0703
#DATA
2.000000	 64.8235
2.084000	 64.7721
2.168000	 65.302
2.252000	 68.3599
2.336000	 64.9885
2.420000	 65.2058
2.504000	 65.1096
2.588000	 65.1978
2.672000	 65.1729
2.756000	 65.2011
2.840000	 65.1949
2.924000	 65.0368
3.008000	 64.8212
3.092000	 65.0184
3.176000	 64.8228
3.260000	 64.7729
3.344000	 64.7784
3.428000	 64.8696
3.512000	 64.7547
3.596000	 64.9445
3.680000	 64.854
3.764000	 64.7954
3.848000	 64.6638
3.932000	 64.5593
4.016000	 64.7714
4.100000	 64.5967
4.184000	 64.5237
4.268000	 64.5416
4.352000	 64.5319
4.436000	 64.4923
4.520000	 64.4706
4.604000	 64.4086
4.688000	 64.3921
4.772000	 64.3956
4.856000	 64.4507
4.940000	 64.2516
5.024000	 64.4083
5.108000	 64.2005
5.192000	 64.1266
5.276000	 64.2521
5.359999	 64.117
5.444000	 64.2058
5.528000	 64.1234
5.612000	 64.0115
5.696000	 63.8799
5.780000	 63.7039
5.864000	 63.9097
5.948000	 63.8518
6.032000	 63.8634
6.116000	 63.8918
6.200000	 63.9001
6.284000	 63.9476
6.368000	 63.8089
6.452000	 63.6118
6.536000	 63.6243
6.620000	 63.7667
6.704000	 63.7048
6.788000	 63.7372
6.872000	 63.5311
6.956000	 63.6346
7.040000	 63.6055
7.124000	 63.732
7.208000	 63.4205
7.292000	 63.5633
7.376000	 63.6377
7.460000	 63.4195
7.544000	 63.5033
7.628000	 63.5259
7.712000	 63.5186
7.796000	 63.4268
7.880000	 63.2956
7.964000	 63.3623
8.048000	 63.3476
8.132000	 63.2982
8.216000	 63.4393
8.300000	 63.2637
8.384000	 63.2942
8.468000	 63.082
8.552000	 63.0272
8.635999	 63.0892
8.719999	 63.2048
8.804000	 63.1818
8.888000	 63.1823
8.972000	 63.2359
9.056000	 63.0678
9.140000	 63.102
9.224000	 63.1068
9.308000	 63.2308
9.391999	 63.1487
9.475999	 63.1011
9.560000	 63.0371
9.644000	 63.1431
9.728000	 63.1368
9.812000	 62.9727
9.896000	 63.0557
9.980000	 62.9817
10.064	62.986
10.148	63.1827
10.232	63.3308
10.316	63.0892
10.4	63.0547
10.484	63.0142
10.568	63.0489
10.652	63.0855
10.736	63.0387
10.82	63.0424
10.904	62.9892
10.988	62.9864
11.072	62.9728
11.156	62.8288
11.24	62.7864
11.324	62.8906
11.408	62.8783
11.492	63.0912
11.576	63.0032
11.66	62.8875
11.744	63.0006
11.828	62.987
11.912	62.9513
11.996	62.9194
12.08	62.8606
12.164	62.8654
12.248	62.8627
12.332	62.8781
12.416	62.9131
12.5	63.0117
12.584	63.206
12.668	63.1671
12.752	63.0795
12.836	62.845
12.92	62.5648
13.004	62.66
13.088	62.7467
13.172	62.666
13.256	62.6859
13.34	62.7417
13.424	62.8066
13.508	62.9757
13.592	63.0604
13.676	62.9846
13.76	62.8595
13.844	62.7259
13.928	62.6899
14.012	62.6852
14.096	62.6603
14.18	62.7175
14.264	62.7122
14.348	62.5533
14.432	62.5507
14.516	62.6712
14.6	62.6038
14.684	62.3833
14.768	62.2652
14.852	62.3885
14.936	62.4497
15.02	62.2738
15.104	62.1603
15.188	62.1518
15.272	62.1333
15.356	62.2661
15.44	62.5966
15.524	62.8667
15.608	62.8984
15.692	62.7798
15.776	62.593
15.86	62.3641
15.944	62.2288
16.028	62.2316
16.112	62.2418
16.196	62.2129
16.28	62.2428
16.364	62.4183
16.448	62.6469
16.532	62.6961
16.616	62.5465
16.7	62.4302
16.784	62.4375
16.868	62.4946
16.952	62.5853
17.036	62.6636
17.12	62.5848
17.204	62.3369
17.288	62.1383
17.372	62.2032
17.456	62.5098
17.54	62.81
17.624	62.8505
17.708	62.6304
17.792	62.3993
17.876	62.3782
17.96	62.5599
18.044	62.7989
18.128	62.9449
18.212	62.8913
18.296	62.6027
18.38	62.1554
18.464	61.7
18.548	61.3613
18.632	61.1961
18.716	61.2215
18.8	61.417
18.884	61.6872
18.968	61.8694
19.052	61.8395
19.136	61.5948
19.22	61.26
19.304	61.0254
19.388	61.0457
19.472	61.3293
19.556	61.7217
19.64	61.9949
19.724	61.9613
19.808	61.5787
19.892	60.9808
19.976	60.4323
20.06	60.1967
20.144	60.4173
20.228	61.057
20.312	61.8931
20.396	62.5967
20.48	62.8743
20.564	62.6292
20.648	62.029
20.732	61.425
20.816	61.1549
20.9	61.3505
20.984	61.8826
21.068	62.4472
21.152	62.7376
21.236	62.6182
21.32	62.1973
21.404	61.7556
21.488	61.5538
21.572	61.6743
21.656	62.0106
21.74	62.3727
21.824	62.6286
21.908	62.761
21.992	62.7967
22.076	62.7342
22.16	62.5465
22.244	62.2576
22.328	61.9839
22.412	61.868
22.496	61.9659
22.58	62.2068
22.664	62.4494
22.748	62.5744
22.832	62.5653
22.916	62.4867
23	62.4098
23.084	62.3613
23.168	62.3202
23.252	62.2591
23.336	62.1832
23.42	62.1379
23.504	62.1738
23.588	62.2998
23.672	62.4754
23.756	62.6319
23.84	62.6819
23.924	62.5624
24.008	62.2476
24.092	61.7534
24.176	61.1581
24.26	60.5817
24.344	60.1786
24.428	60.0803
24.512	60.3629
24.596	60.9757
24.68	61.748
24.764	62.4506
24.848	62.8782
24.932	62.9414
25.016	62.7335
25.1	62.4819
25.184	62.5055
25.268	63.0705
25.352	64.288
25.436	66.0867
25.52	68.2289
25.604	70.4191
25.688	72.4144
25.772	74.1168
25.856	75.5567
25.94	76.7732
26.024	77.7464
26.108	78.3782
26.192	78.4943
26.276	77.9054
26.36	76.5199
26.444	74.4
26.528	71.7698
26.612	68.9122
26.696	66.1584
26.78	63.84
26.864	62.1969
26.948	61.326
27.028	61.1791

File: BZ1503107-1_t92_cm-1.asc
PE IR       SPECTRUM    SPECTRUM    ASCII       PEDS        1.60
  -1
BZ6AA5~1.ASC
17/04/07
20:50:37.00
17/04/07
20:50:37.00
tln
$BZ1503107-1_t0092$<tbV0>[5.2,7.8,8.0,0.0,27,1,0]
370
64

2002,4.07
MIRTGS : RIGHTBACK : INTERNAL 2
MIR : ON : INTERNAL 2
OPTKBR

0.200000
8
8.000000
FILLER
RATIO
SPECTRUM
UNLOCKED 256

DOUBLE
64
COMBINED
1
0
0

1.000000
RATIO

1
0
TRUE
51149
0
LEFT NOT FITTED RIGHT NOT FITTED 0
NONE
NONE
15600
12
4.427000
51148
TRUE
1 0 8 72 0 0 0 0

15798

#HDR
-1
-1
#GR
CM-1
%T
2.38419e-05
0.0
5000
-1.000000
4631
8
78.5216
60.0786
#DATA
5000	64.8235
4984	66.3414
4968	63.3227
4952	66.2721
4936	65.4875
4920	65.403
4904	65.2299
4888	64.4024
4872	65.8215
4856	64.4111
4840	64.6655
4824	64.4891
4808	64.7765
4792	65.0052
4776	65.2192
4760	64.6183
4744	65.0977
4728	65.2191
4712	65.2442
4696	64.943
4680	65.5179
4664	65.177
4648	65.276
4632	65.4556
4616	65.1795
4600	64.9806
4584	65.275
4568	64.9148
4552	64.6808
4536	64.8309
4520	65.0476
4504	64.5311
4488	63.7664
4472	64.6962
4456	64.0913
4440	67.6559
4424	65.1754
4408	65.2052
4392	64.103
4376	64.4972
4360	64.9322
4344	64.8134
4328	64.8108
4312	64.6569
4296	65.114
4280	64.9708
4264	64.6695
4248	64.9405
4232	64.9917
4216	64.9845
4200	64.9574
4184	65.2752
4168	65.3538
4152	64.8844
4136	65.1167
4120	65.0279
4104	65.1958
4088	64.9825
4072	65.1085
4056	64.9811
4040	64.8587
4024	65.2385
4008	65.1641
3992	65.0813
3976	65.0915
3960	64.942
3944	64.9913
3928	64.8996
3912	65.1003
3896	65.1255
3880	64.9712
3864	65.1973
3848	65.1039
3832	65.1104
3816	65.0978
3800	64.978
3784	65.1656
3768	65.1183
3752	65.1668
3736	65.0256
3720	65.3203
3704	65.0614
3688	65.1448
3672	65.1779
3656	64.965
3640	65.1349
3624	65.2259
3608	64.9711
3592	65.1765
3576	65.0569
3560	65.1136
3544	64.9852
3528	65.2872
3512	64.9037
3496	65.0511
3480	65.0727
3464	65.1449
3448	65.0798
3432	65.1036
3416	65.1212
3400	65.0663
3384	64.9899
3368	64.9532
3352	64.8708
3336	64.9874
3320	64.8751
3304	65.0875
3288	64.8542
3272	65.0519
3256	65.0146
3240	64.9657
3224	64.9492
3208	65.0378
3192	64.799
3176	64.9941
3160	64.9011
3144	64.9048
3128	64.897
3112	64.9066
3096	65.0226
3080	64.8285
3064	64.7711
3048	65.0003
3032	64.9038
3016	64.9535
3000	64.7942
2984	64.791
2968	64.7237
2952	64.5606
2936	64.7872
2920	64.8651
2904	64.9272
2888	64.7937
2872	64.7407
2856	64.7973
2840	64.7167
2824	64.8195
2808	64.7572
2792	64.7167
2776	64.9118
2760	64.8144
2744	64.7505
2728	64.8353
2712	64.7854
2696	64.7958
2680	64.8772
2664	64.7898
2648	64.8813
2632	64.7223
2616	64.7896
2600	64.6806
2584	64.7415
2568	64.7399
2552	64.6728
2536	64.6483
2520	64.7054
2504	64.5947
2488	64.7845
2472	64.7749
2456	64.6737
2440	64.5978
2424	64.6234
2408	64.6051
2392	64.5415
2376	64.5227
2360	64.6882
2344	64.5472
2328	64.5795
2312	64.5381
2296	64.5497
2280	64.4813
2264	64.4505
2248	64.4798
2232	64.4172
2216	64.4851
2200	64.4097
2184	64.3558
2168	64.4325
2152	64.381
2136	64.36
2120	64.3122
2104	64.3735
2088	64.3223
2072	64.2647
2056	64.4796
2040	64.3233
2024	64.2514
2008	64.2766
1992	64.4053
1976	64.2951
1960	64.2126
1944	64.1486
1928	64.1426
1912	64.1628
1896	64.2528
1880	64.1238
1864	64.1451
1848	64.0481
1832	64.2072
1816	64.1925
1800	64.1035
1784	64.0373
1768	64.0374
1752	63.8088
1736	63.7067
1720	63.8086
1704	63.8939
1688	63.8435
1672	63.8762
1656	63.8398
1640	63.9896
1624	63.8283
1608	63.8598
1592	63.9494
1576	63.6972
1560	63.63
1544	63.6541
1528	63.6488
1512	63.7374
1496	63.7323
1480	63.75
1464	63.6336
1448	63.6198
1432	63.6337
1416	63.6325
1400	63.6217
1384	63.4597
1368	63.5989
1352	63.6099
1336	63.4353
1320	63.5633
1304	63.4196
1288	63.5041
1272	63.2961
1256	63.3599
1240	63.319
1224	63.3725
1208	63.3003
1192	63.2777
1176	63.0044
1160	63.0646
1144	63.2224
1128	63.1636
1112	63.2345
1096	63.0858
1080	63.1599
1064	63.1451
1048	63.0012
1032	63.1242
1016	62.9355
1000	62.9481
984	 63.2496
968	 63.0846
952	 63.0354
936	 63.0764
920	 63.0052
904	 62.9874
888	 62.845
872	 63.0692
856	 62.9141
840	 62.9578
824	 62.8501
808	 62.9024
792	 63.2081
776	 62.646
760	 62.6758
744	 62.8336
728	 62.8987
712	 62.6717
696	 62.5286
680	 62.3314
664	 62.1966
648	 62.5633
632	 62.4639
616	 62.2116
600	 62.4602
584	 62.5775
568	 62.8692
552	 62.9344
536	 61.1835
520	 61.2204
504	 61.3544
488	 62.8707
472	 62.7374
456	 62.7788
440	 62.5573
424	 62.2941
408	 60.3509
392	 67.973
376	 69.4649
370	 61.1791

File: BZ1503107-1_t93.asc
PE IR       SPECTRUM    SPECTRUM    ASCII       PEDS        1.60
  -1
BZ355B~1.ASC
17/04/07
20:55:14.00
17/04/07
20:55:40.00
tln
$BZ1503107-1_t0093$<tbV0>[2.6,7.8,8.0,0.0,27,1,0]
27.028
64

2002,4.07
MIRTGS : RIGHTBACK : INTERNAL 2
MIR : ON : INTERNAL 2
OPTKBR

0.200000
8
8.000000
FILLER
RATIO
SPECTRUM
UNLOCKED 256

DOUBLE
64
COMBINED
1
0
0

0.002000
RATIO

1
0
TRUE
51149
0
LEFT NOT FITTED RIGHT NOT FITTED 0
NONE
NONE
15600
12
4.427000
51148
TRUE
1 0 8 72 0 0 0 0

15798

#HDR
-1
-1
#GR
µM
%T
2.38419e-05
0.0
2.000000
0.002000
12515
8
98.2284
54.7102
#DATA
2.000000	 65.5887
2.084000	 65.0293
2.168000	 64.1507
2.252000	 98.1189
2.336000	 64.5919
2.420000	 64.9588
2.504000	 64.7035
2.588000	 65.0036
2.672000	 65.076
2.756000	 64.8614
2.840000	 64.9326
2.924000	 64.8916
3.008000	 64.8029
3.092000	 64.8289
3.176000	 64.7041
3.260000	 64.6971
3.344000	 64.6065
3.428000	 64.6113
3.512000	 64.4653
3.596000	 64.7392
3.680000	 64.676
3.764000	 64.4769
3.848000	 64.5071
3.932000	 64.4558
4.016000	 64.49
4.100000	 64.3184
4.184000	 64.3
4.268000	 64.3689
4.352000	 64.3038
4.436000	 64.2357
4.520000	 64.2263
4.604000	 64.1698
4.688000	 64.2201
4.772000	 64.2351
4.856000	 64.2009
4.940000	 64.0419
5.024000	 64.1906
5.108000	 64.0615
5.192000	 63.9838
5.276000	 64.0041
5.359999	 63.9693
5.444000	 63.9518
5.528000	 63.89
5.612000	 63.9158
5.696000	 63.6508
5.780000	 63.4218
5.864000	 63.5431
5.948000	 63.6178
6.032000	 63.676
6.116000	 63.5608
6.200000	 63.6039
6.284000	 63.6609
6.368000	 63.5851
6.452000	 63.5515
6.536000	 63.4996
6.620000	 63.5065
6.704000	 63.5817
6.788000	 63.5871
6.872000	 63.4111
6.956000	 63.55
7.040000	 63.3342
7.124000	 63.481
7.208000	 63.255
7.292000	 63.3286
7.376000	 63.2541
7.460000	 63.3686
7.544000	 63.3242
7.628000	 63.2937
7.712000	 63.1868
7.796000	 63.1168
7.880000	 63.0985
7.964000	 63.0605
8.048000	 63.0033
8.132000	 63.005
8.216000	 63.1069
8.300000	 63.1098
8.384000	 63.0943
8.468000	 62.972
8.552000	 62.816
8.635999	 62.8842
8.719999	 62.8457
8.804000	 62.9363
8.888000	 62.9639
8.972000	 62.8082
9.056000	 63.0385
9.140000	 62.9695
9.224000	 62.834
9.308000	 62.8625
9.391999	 62.789
9.475999	 62.6888
9.560000	 63.0703
9.644000	 62.9973
9.728000	 62.8738
9.812000	 62.8668
9.896000	 62.8382
9.980000	 62.8448
10.064	62.7278
10.148	62.8008
10.232	62.9188
10.316	62.7992
10.4	62.8712
10.484	62.8555
10.568	62.7643
10.652	62.833
10.736	62.855
10.82	62.8667
10.904	62.7111
10.988	62.8285
11.072	62.8068
11.156	62.5605
11.24	62.6215
11.324	62.7082
11.408	62.6955
11.492	62.765
11.576	62.7951
11.66	62.6265
11.744	62.7027
11.828	62.8067
11.912	62.8067
11.996	62.7075
12.08	62.5797
12.164	62.5748
12.248	62.7242
12.332	62.6802
12.416	62.5344
12.5	62.6719
12.584	62.9122
12.668	62.8773
12.752	62.8747
12.836	62.8211
12.92	62.651
13.004	62.5809
13.088	62.5757
13.172	62.6138
13.256	62.5667
13.34	62.4473
13.424	62.4329
13.508	62.3687
13.592	62.3232
13.676	62.4428
13.76	62.5952
13.844	62.5962
13.928	62.5553
14.012	62.556
14.096	62.4235
14.18	62.3005
14.264	62.321
14.348	62.2989
14.432	62.3724
14.516	62.5465
14.6	62.4574
14.684	62.1908
14.768	62.2217
14.852	62.3752
14.936	62.2846
15.02	62.2154
15.104	62.3111
15.188	62.3128
15.272	62.3064
15.356	62.4665
15.44	62.5707
15.524	62.463
15.608	62.3571
15.692	62.4105
15.776	62.4837
15.86	62.4695
15.944	62.441
16.028	62.4336
16.112	62.4026
16.196	62.3245
16.28	62.2457
16.364	62.2599
16.448	62.3294
16.532	62.3004
16.616	62.1849
16.7	62.1258
16.784	62.1029
16.868	61.9976
16.952	61.8028
17.036	61.5824
17.12	61.3736
17.204	61.2386
17.288	61.2875
17.372	61.5451
17.456	61.8572
17.54	62.0282
17.624	62.0231
17.708	61.9302
17.792	61.7929
17.876	61.6151
17.96	61.4821
18.044	61.4939
18.128	61.5769
18.212	61.5343
18.296	61.2767
18.38	60.9359
18.464	60.7566
18.548	60.9143
18.632	61.3663
18.716	61.8525
18.8	62.1204
18.884	62.196
18.968	62.3518
19.052	62.7307
19.136	63.0716
19.22	62.966
19.304	62.3968
19.388	61.8189
19.472	61.6432
19.556	61.8066
19.64	61.9328
19.724	61.8191
19.808	61.6154
19.892	61.5622
19.976	61.6752
20.06	61.7777
20.144	61.7534
20.228	61.6934
20.312	61.782
20.396	62.0915
20.48	62.5079
20.564	62.8444
20.648	62.998
20.732	63.0036
20.816	62.944
20.9	62.837
20.984	62.6387
21.068	62.3118
21.152	61.9065
21.236	61.5672
21.32	61.4631
21.404	61.6867
21.488	62.1802
21.572	62.7673
21.656	63.2669
21.74	63.5857
21.824	63.7286
21.908	63.7216
21.992	63.5275
22.076	63.0541
22.16	62.2518
22.244	61.2159
22.328	60.1926
22.412	59.4686
22.496	59.2286
22.58	59.4827
22.664	60.1027
22.748	60.8782
22.832	61.6088
22.916	62.1197
23	62.3143
23.084	62.1865
23.168	61.8343
23.252	61.4293
23.336	61.1782
23.42	61.2463
23.504	61.7131
23.588	62.5097
23.672	63.4486
23.756	64.2874
23.84	64.8007
23.924	64.8537
24.008	64.417
24.092	63.5425
24.176	62.3432
24.26	60.9597
24.344	59.5467
24.428	58.2455
24.512	57.2166
24.596	56.5602
24.68	56.2948
24.764	56.3552
24.848	56.6268
24.932	57.0117
25.016	57.4903
25.1	58.1394
25.184	59.0708
25.268	60.351
25.352	61.9675
25.436	63.7782
25.52	65.5677
25.604	67.1484
25.688	68.3864
25.772	69.2137
25.856	69.5898
25.94	69.447
26.024	68.6806
26.108	67.2086
26.192	65.0318
26.276	62.3131
26.36	59.4174
26.444	56.8624
26.528	55.1848
26.612	54.7301
26.696	55.624
26.78	57.7301
26.864	60.7173
26.948	64.2101
27.028	67.7266

File: BZ1503107-1_t93_cm-1.asc
PE IR       SPECTRUM    SPECTRUM    ASCII       PEDS        1.60
  -1
BZ6BA5~1.ASC
17/04/07
20:55:14.00
17/04/07
20:55:14.00
tln
$BZ1503107-1_t0093$<tbV0>[2.6,7.8,8.0,0.0,27,1,0]
370
64

2002,4.07
MIRTGS : RIGHTBACK : INTERNAL 2
MIR : ON : INTERNAL 2
OPTKBR

0.200000
8
8.000000
FILLER
RATIO
SPECTRUM
UNLOCKED 256

DOUBLE
64
COMBINED
1
0
0

1.000000
RATIO

1
0
TRUE
51149
0
LEFT NOT FITTED RIGHT NOT FITTED 0
NONE
NONE
15600
12
4.427000
51148
TRUE
1 0 8 72 0 0 0 0

15798

#HDR
-1
-1
#GR
CM-1
%T
2.38419e-05
0.0
5000
-1.000000
4631
8
101.733
54.7106
#DATA
5000	65.5887
4984	63.9403
4968	64.0464
4952	67.3715
4936	64.6786
4920	65.2935
4904	65.2065
4888	64.3305
4872	64.3657
4856	64.5652
4840	65.0602
4824	64.913
4808	64.9292
4792	64.886
4776	65.0715
4760	65.1567
4744	65.0524
4728	64.8482
4712	65.2615
4696	64.5082
4680	64.8931
4664	65.0509
4648	64.429
4632	64.7943
4616	64.2859
4600	64.4399
4584	64.4334
4568	64.3797
4552	63.9367
4536	63.6679
4520	64.2951
4504	63.8201
4488	62.7856
4472	63.1983
4456	66.1749
4440	96.1418
4424	65.4082
4408	64.3064
4392	63.8334
4376	63.4022
4360	64.3155
4344	64.0821
4328	64.2594
4312	64.0932
4296	64.8263
4280	64.5834
4264	64.5363
4248	64.8364
4232	64.8146
4216	64.8002
4200	64.9599
4184	64.9605
4168	65.0555
4152	65.0509
4136	64.7793
4120	65.0772
4104	65.1624
4088	65.1637
4072	64.881
4056	65.0406
4040	64.7496
4024	65.0792
4008	64.7692
3992	64.6706
3976	64.7197
3960	64.8792
3944	64.3877
3928	64.852
3912	64.7154
3896	64.7644
3880	64.4316
3864	65.0034
3848	64.8465
3832	65.0033
3816	64.8521
3800	64.9487
3784	64.9023
3768	64.9105
3752	65.0988
3736	64.9813
3720	65.208
3704	65.2294
3688	64.9357
3672	64.9624
3656	64.9102
3640	64.7522
3624	64.8038
3608	64.9291
3592	65.0342
3576	64.6886
3560	64.8625
3544	64.6058
3528	64.9742
3512	64.7802
3496	64.9322
3480	64.8879
3464	64.9241
3448	64.6683
3432	64.7103
3416	65.0022
3400	64.8137
3384	64.9367
3368	64.8344
3352	64.7993
3336	64.7933
3320	64.8513
3304	64.8352
3288	64.8876
3272	64.9434
3256	64.9613
3240	64.8251
3224	64.7628
3208	64.7434
3192	64.7155
3176	64.93
3160	64.7254
3144	64.7163
3128	64.6482
3112	64.772
3096	64.9136
3080	64.6884
3064	64.7429
3048	64.8594
3032	64.7342
3016	64.7194
3000	64.7637
2984	64.51
2968	64.5071
2952	64.4932
2936	64.6558
2920	64.6349
2904	64.532
2888	64.573
2872	64.5864
2856	64.611
2840	64.5657
2824	64.6593
2808	64.5936
2792	64.5879
2776	64.7361
2760	64.6976
2744	64.7062
2728	64.6061
2712	64.7088
2696	64.643
2680	64.5498
2664	64.3914
2648	64.5534
2632	64.4837
2616	64.372
2600	64.5041
2584	64.4527
2568	64.3675
2552	64.4275
2536	64.4262
2520	64.4059
2504	64.3534
2488	64.4962
2472	64.4391
2456	64.3973
2440	64.3125
2424	64.503
2408	64.3562
2392	64.3028
2376	64.3259
2360	64.4985
2344	64.3808
2328	64.3532
2312	64.3586
2296	64.3365
2280	64.2415
2264	64.2694
2248	64.3415
2232	64.3168
2216	64.1894
2200	64.1284
2184	64.0912
2168	64.1793
2152	64.1128
2136	64.2401
2120	64.184
2104	64.1598
2088	64.1453
2072	64.1293
2056	64.1649
2040	64.1078
2024	64.0417
2008	64.0878
1992	64.1728
1976	64.1079
1960	64.0602
1944	63.9773
1928	64.0124
1912	63.9287
1896	64.0021
1880	63.9118
1864	63.9848
1848	63.9362
1832	63.9181
1816	63.8564
1800	63.8787
1784	63.9131
1768	63.7839
1752	63.5491
1736	63.2731
1720	63.5383
1704	63.5378
1688	63.6538
1672	63.6072
1656	63.6604
1640	63.6207
1624	63.6893
1608	63.5479
1592	63.6554
1576	63.5443
1560	63.5886
1544	63.5304
1528	63.508
1512	63.5008
1496	63.5728
1480	63.5438
1464	63.3649
1448	63.4167
1432	63.4473
1416	63.3372
1400	63.4197
1384	63.2396
1368	63.3545
1352	63.2546
1336	63.3327
1320	63.3169
1304	63.2653
1288	63.1059
1272	63.1123
1256	63.0598
1240	62.9765
1224	63.0939
1208	63.0923
1192	63.1041
1176	62.9286
1160	62.8634
1144	62.8803
1128	62.9598
1112	62.8431
1096	62.9776
1080	62.8243
1064	62.7723
1048	62.9467
1032	62.8562
1016	62.829
1000	62.8292
984	 62.8391
968	 62.8024
952	 62.8157
936	 62.8404
920	 62.7816
904	 62.8446
888	 62.6617
872	 62.7353
856	 62.6269
840	 62.8152
824	 62.5365
808	 62.5921
792	 62.915
776	 62.7166
760	 62.6064
744	 62.4275
728	 62.5638
712	 62.5237
696	 62.2989
680	 62.1616
664	 62.2568
648	 62.5706
632	 62.4837
616	 62.2831
600	 62.1387
584	 61.3663
568	 62.0349
552	 61.5683
536	 61.5203
520	 62.9133
504	 61.5689
488	 62.5636
472	 61.7487
456	 63.6923
440	 60.6835
424	 62.4769
408	 57.2389
392	 65.3677
376	 54.7106
370	 67.7266