Folder: Masteroppgave/Bakgrunnsmateriale/MATLAB/FTIR/ftir_data/subAa/Mapping_121 (part 27)

File: BZ1503107-1_t59.asc
PE IR       SPECTRUM    SPECTRUM    ASCII       PEDS        1.60
  -1
BZ2D63~1.ASC
17/04/07
18:04:21.00
17/04/07
18:04:47.00
tln
$BZ1503107-1_t0059$<tbV0>[5.2,0.0,8.0,0.0,27,1,0]
27.028
64

2002,4.07
MIRTGS : RIGHTBACK : INTERNAL 2
MIR : ON : INTERNAL 2
OPTKBR

0.200000
8
8.000000
FILLER
RATIO
SPECTRUM
UNLOCKED 256

DOUBLE
64
COMBINED
1
0
0

0.002000
RATIO

1
0
TRUE
51149
0
LEFT NOT FITTED RIGHT NOT FITTED 0
NONE
NONE
15600
12
4.427000
51148
TRUE
1 0 8 72 0 0 0 0

15798

#HDR
-1
-1
#GR
µM
%T
2.38419e-05
0.0
2.000000
0.002000
12515
8
80.8841
57.0828
#DATA
2.000000	 66.3347
2.084000	 64.8366
2.168000	 64.8659
2.252000	 63.7311
2.336000	 64.9831
2.420000	 64.7898
2.504000	 65.3047
2.588000	 65.2447
2.672000	 65.1008
2.756000	 65.1143
2.840000	 65.2361
2.924000	 65.1887
3.008000	 65.0239
3.092000	 65.138
3.176000	 65.0752
3.260000	 65.0228
3.344000	 64.985
3.428000	 64.9428
3.512000	 64.8634
3.596000	 64.8953
3.680000	 64.8334
3.764000	 64.8479
3.848000	 64.8367
3.932000	 64.8909
4.016000	 64.9247
4.100000	 64.8352
4.184000	 64.8135
4.268000	 64.8013
4.352000	 64.801
4.436000	 64.8655
4.520000	 64.7374
4.604000	 64.6665
4.688000	 64.6711
4.772000	 64.7283
4.856000	 64.5216
4.940000	 64.6106
5.024000	 64.6495
5.108000	 64.4001
5.192000	 64.4372
5.276000	 64.3969
5.359999	 64.5539
5.444000	 64.4872
5.528000	 64.4431
5.612000	 64.4025
5.696000	 64.2892
5.780000	 64.1048
5.864000	 64.2138
5.948000	 64.1799
6.032000	 64.2472
6.116000	 64.2107
6.200000	 64.2523
6.284000	 64.1135
6.368000	 64.1079
6.452000	 64.0751
6.536000	 64.0558
6.620000	 64.1267
6.704000	 64.069
6.788000	 64.1036
6.872000	 63.9943
6.956000	 64.1316
7.040000	 64.1448
7.124000	 64.0475
7.208000	 63.9157
7.292000	 64.0993
7.376000	 63.8855
7.460000	 63.8758
7.544000	 63.9242
7.628000	 63.9461
7.712000	 63.9923
7.796000	 63.8053
7.880000	 63.8392
7.964000	 63.8677
8.048000	 63.8885
8.132000	 63.7574
8.216000	 63.8197
8.300000	 63.845
8.384000	 63.7618
8.468000	 63.7045
8.552000	 63.6994
8.635999	 63.6202
8.719999	 63.5612
8.804000	 63.7137
8.888000	 63.6422
8.972000	 63.6905
9.056000	 63.6614
9.140000	 63.6635
9.224000	 63.4899
9.308000	 63.5078
9.391999	 63.6018
9.475999	 63.7695
9.560000	 63.748
9.644000	 63.7055
9.728000	 63.468
9.812000	 63.5814
9.896000	 63.5931
9.980000	 63.7559
10.064	63.6697
10.148	63.7505
10.232	63.7105
10.316	63.6802
10.4	63.4127
10.484	63.5159
10.568	63.6156
10.652	63.4686
10.736	63.4725
10.82	63.5522
10.904	63.4913
10.988	63.47
11.072	63.48
11.156	63.5411
11.24	63.676
11.324	63.7484
11.408	63.5288
11.492	63.4953
11.576	63.6886
11.66	63.6432
11.744	63.5178
11.828	63.5838
11.912	63.6079
11.996	63.6047
12.08	63.8692
12.164	63.6703
12.248	63.6418
12.332	63.6699
12.416	63.6264
12.5	63.4642
12.584	63.4665
12.668	63.5481
12.752	63.5067
12.836	63.5357
12.92	63.4507
13.004	63.3688
13.088	63.354
13.172	63.5012
13.256	63.4189
13.34	63.1536
13.424	63.2216
13.508	63.3991
13.592	63.3749
13.676	63.2772
13.76	63.2848
13.844	63.3303
13.928	63.4105
14.012	63.3707
14.096	63.2045
14.18	63.1236
14.264	63.1951
14.348	63.3182
14.432	63.3278
14.516	63.334
14.6	63.3175
14.684	63.3136
14.768	63.4075
14.852	63.3671
14.936	63.3645
15.02	63.488
15.104	63.433
15.188	63.3005
15.272	63.2273
15.356	63.2266
15.44	63.3077
15.524	63.2495
15.608	63.1292
15.692	63.1544
15.776	63.0109
15.86	62.7083
15.944	62.8337
16.028	63.5196
16.112	64.142
16.196	64.0872
16.28	63.4692
16.364	62.9101
16.448	62.7861
16.532	62.9733
16.616	63.1506
16.7	63.14
16.784	62.9829
16.868	62.7437
16.952	62.4753
17.036	62.3449
17.12	62.5045
17.204	62.8495
17.288	63.1287
17.372	63.2046
17.456	63.1287
17.54	63.058
17.624	63.0837
17.708	63.1525
17.792	63.207
17.876	63.2584
17.96	63.2756
18.044	63.1594
18.128	62.9566
18.212	62.9159
18.296	63.1512
18.38	63.3789
18.464	63.2536
18.548	62.8773
18.632	62.7432
18.716	63.1208
18.8	63.7118
18.884	63.9826
18.968	63.7064
19.052	63.1452
19.136	62.7682
19.22	62.8824
19.304	63.4134
19.388	63.9653
19.472	64.1302
19.556	63.8702
19.64	63.568
19.724	63.5922
19.808	63.8809
19.892	64.0265
19.976	63.7464
20.06	63.1767
20.144	62.693
20.228	62.538
20.312	62.6814
20.396	62.9834
20.48	63.3735
20.564	63.846
20.648	64.3624
20.732	64.8073
20.816	65.053
20.9	65.051
20.984	64.851
21.068	64.5548
21.152	64.2577
21.236	64.0066
21.32	63.7923
21.404	63.5723
21.488	63.3185
21.572	63.0526
21.656	62.8395
21.74	62.7476
21.824	62.8051
21.908	62.9845
21.992	63.2217
22.076	63.4378
22.16	63.5506
22.244	63.4822
22.328	63.19
22.412	62.7179
22.496	62.2037
22.58	61.8081
22.664	61.6289
22.748	61.6381
22.832	61.725
22.916	61.7853
23	61.8086
23.084	61.8892
23.168	62.1566
23.252	62.6656
23.336	63.3659
23.42	64.1053
23.504	64.7202
23.588	65.0744
23.672	65.077
23.756	64.6942
23.84	63.9518
23.924	62.9239
24.008	61.7299
24.092	60.5316
24.176	59.503
24.26	58.7835
24.344	58.4807
24.428	58.648
24.512	59.2683
24.596	60.2792
24.68	61.5881
24.764	63.0809
24.848	64.6523
24.932	66.2491
25.016	67.8661
25.1	69.4995
25.184	71.0632
25.268	72.3558
25.352	73.1057
25.436	73.0031
25.52	71.8656
25.604	69.7503
25.688	66.9758
25.772	64.0949
25.856	61.746
25.94	60.4729
26.024	60.6151
26.108	62.197
26.192	65.0244
26.276	68.7104
26.36	72.6823
26.444	76.3331
26.528	79.134
26.612	80.6663
26.696	80.7188
26.78	79.344
26.864	76.8839
26.948	73.9104
27.028	71.2699

File: BZ1503107-1_t59_cm-1.asc
PE IR       SPECTRUM    SPECTRUM    ASCII       PEDS        1.60
  -1
BZ61B3~1.ASC
17/04/07
18:04:21.00
17/04/07
18:04:21.00
tln
$BZ1503107-1_t0059$<tbV0>[5.2,0.0,8.0,0.0,27,1,0]
370
64

2002,4.07
MIRTGS : RIGHTBACK : INTERNAL 2
MIR : ON : INTERNAL 2
OPTKBR

0.200000
8
8.000000
FILLER
RATIO
SPECTRUM
UNLOCKED 256

DOUBLE
64
COMBINED
1
0
0

1.000000
RATIO

1
0
TRUE
51149
0
LEFT NOT FITTED RIGHT NOT FITTED 0
NONE
NONE
15600
12
4.427000
51148
TRUE
1 0 8 72 0 0 0 0

15798

#HDR
-1
-1
#GR
CM-1
%T
2.38419e-05
0.0
5000
-1.000000
4631
8
80.8748
56.5253
#DATA
5000	66.3347
4984	66.0563
4968	65.5489
4952	64.1686
4936	64.7022
4920	64.3903
4904	64.7654
4888	64.6789
4872	64.4849
4856	65.1518
4840	64.9156
4824	64.9237
4808	64.9569
4792	64.6486
4776	64.5297
4760	65.0481
4744	64.782
4728	64.9673
4712	65.4263
4696	64.9742
4680	65.2162
4664	64.7059
4648	65.0444
4632	65.1853
4616	64.6958
4600	65.1541
4584	64.656
4568	64.7158
4552	65.2522
4536	65.2329
4520	65.5185
4504	64.8864
4488	65.1994
4472	65.1985
4456	64.5038
4440	64.8274
4424	58.9093
4408	64.6673
4392	65.3492
4376	64.6575
4360	65.6118
4344	65.3287
4328	65.3123
4312	64.9215
4296	65.1258
4280	64.9792
4264	65.0292
4248	65.4463
4232	65.1384
4216	65.1005
4200	65.048
4184	65.1005
4168	64.9261
4152	64.6657
4136	64.8935
4120	65.1326
4104	64.8925
4088	65.0419
4072	65.1938
4056	64.8827
4040	64.9672
4024	64.9343
4008	65.0764
3992	65.4
3976	64.9569
3960	65.086
3944	64.8665
3928	65.0095
3912	64.9714
3896	65.1579
3880	65.1811
3864	65.2443
3848	65.2264
3832	65.2442
3816	65.014
3800	65.1716
3784	65.1888
3768	65.1997
3752	65.0074
3736	65.0923
3720	65.1705
3704	65.1428
3688	65.0344
3672	65.1021
3656	65.1073
3640	65.3374
3624	65.1404
3608	65.0668
3592	65.1444
3576	65.0248
3560	65.0207
3544	65.1607
3528	65.0391
3512	65.2836
3496	65.1924
3480	65.0316
3464	65.1222
3448	65.0973
3432	65.0516
3416	65.0941
3400	64.9489
3384	65.0989
3368	65.1596
3352	64.998
3336	64.967
3320	65.0243
3304	65.0281
3288	65.0179
3272	64.9014
3256	65.1272
3240	65.1488
3224	65.1576
3208	64.9805
3192	65.1257
3176	65.0493
3160	65.0903
3144	65.0142
3128	64.9689
3112	64.9366
3096	65.057
3080	64.9265
3064	65.0195
3048	64.8621
3032	64.9619
3016	64.9086
3000	65.0669
2984	65.0534
2968	64.7563
2952	64.988
2936	64.93
2920	64.9311
2904	64.887
2888	64.9867
2872	65.0318
2856	64.7996
2840	64.891
2824	64.9453
2808	64.9917
2792	64.9338
2776	64.885
2760	64.8914
2744	64.8926
2728	64.9086
2712	64.8047
2696	64.8645
2680	64.8974
2664	64.8869
2648	64.9287
2632	64.906
2616	64.8455
2600	64.8445
2584	64.8727
2568	64.7347
2552	64.8189
2536	64.8061
2520	64.7742
2504	64.8212
2488	64.9341
2472	64.8076
2456	64.8276
2440	64.8325
2424	64.8134
2408	64.8571
2392	64.8031
2376	64.7006
2360	64.8119
2344	64.8143
2328	64.8248
2312	64.7311
2296	64.8022
2280	64.6169
2264	64.7437
2248	64.7668
2232	64.6904
2216	64.7631
2200	64.7464
2184	64.6235
2168	64.5903
2152	64.571
2136	64.6969
2120	64.7454
2104	64.5966
2088	64.6514
2072	64.5504
2056	64.4775
2040	64.592
2024	64.6118
2008	64.6
1992	64.6263
1976	64.4214
1960	64.4253
1944	64.5678
1928	64.4507
1912	64.5313
1896	64.3982
1880	64.5087
1864	64.5468
1848	64.344
1832	64.4809
1816	64.4442
1800	64.4004
1784	64.4013
1768	64.4208
1752	64.2264
1736	64.071
1720	64.2173
1704	64.1853
1688	64.2331
1672	64.0753
1656	64.2695
1640	64.1973
1624	64.2372
1608	64.2667
1592	64.1181
1576	64.0289
1560	64.145
1544	64.1166
1528	64.064
1512	64.1606
1496	64.0004
1480	64.0785
1464	64.0253
1448	64.0775
1432	64.1491
1416	64.0527
1400	64.0261
1384	63.8656
1368	64.047
1352	63.8029
1336	63.9122
1320	63.932
1304	63.9363
1288	63.7736
1272	63.8505
1256	63.8679
1240	63.9193
1224	63.7827
1208	63.8529
1192	63.7406
1176	63.7014
1160	63.6171
1144	63.4981
1128	63.7084
1112	63.6746
1096	63.7347
1080	63.5504
1064	63.5992
1048	63.7597
1032	63.4855
1016	63.5048
1000	63.7212
984	 63.7515
968	 63.618
952	 63.565
936	 63.4516
920	 63.5251
904	 63.4814
888	 63.7015
872	 63.4657
856	 63.5924
840	 63.6127
824	 63.778
808	 63.6491
792	 63.532
776	 63.496
760	 63.4769
744	 63.2642
728	 63.2745
712	 63.307
696	 63.3305
680	 63.3367
664	 63.4889
648	 63.3025
632	 62.826
616	 63.8449
600	 63.1669
584	 62.5159
568	 63.0712
552	 62.9821
536	 62.8038
520	 62.9325
504	 63.9803
488	 63.4349
472	 64.1485
456	 63.0436
440	 61.6236
424	 65.0673
408	 59.2469
392	 72.0515
376	 80.4846
370	 71.2699

File: BZ1503107-1_t60.asc
PE IR       SPECTRUM    SPECTRUM    ASCII       PEDS        1.60
  -1
BZ2941~1.ASC
17/04/07
18:08:58.00
17/04/07
18:09:24.00
tln
$BZ1503107-1_t0060$<tbV0>[2.6,0.0,8.0,0.0,27,1,0]
27.028
64

2002,4.07
MIRTGS : RIGHTBACK : INTERNAL 2
MIR : ON : INTERNAL 2
OPTKBR

0.200000
8
8.000000
FILLER
RATIO
SPECTRUM
UNLOCKED 256

DOUBLE
64
COMBINED
1
0
0

0.002000
RATIO

1
0
TRUE
51149
0
LEFT NOT FITTED RIGHT NOT FITTED 0
NONE
NONE
15600
12
4.427000
51148
TRUE
1 0 8 72 0 0 0 0

15798

#HDR
-1
-1
#GR
µM
%T
2.38419e-05
0.0
2.000000
0.002000
12515
8
81.2887
57.2527
#DATA
2.000000	 65.3455
2.084000	 64.827
2.168000	 65.0463
2.252000	 60.9209
2.336000	 65.0346
2.420000	 64.8554
2.504000	 65.0405
2.588000	 65.1167
2.672000	 64.9805
2.756000	 65.1061
2.840000	 65.1127
2.924000	 65.0715
3.008000	 65.0375
3.092000	 64.9883
3.176000	 64.9669
3.260000	 64.9643
3.344000	 64.8984
3.428000	 64.8501
3.512000	 65.0575
3.596000	 64.9614
3.680000	 64.9591
3.764000	 64.8765
3.848000	 65.022
3.932000	 64.8648
4.016000	 64.9381
4.100000	 64.8719
4.184000	 64.753
4.268000	 64.655
4.352000	 64.7674
4.436000	 64.7403
4.520000	 64.7001
4.604000	 64.6453
4.688000	 64.6586
4.772000	 64.6218
4.856000	 64.615
4.940000	 64.5877
5.024000	 64.6188
5.108000	 64.3524
5.192000	 64.4845
5.276000	 64.4206
5.359999	 64.349
5.444000	 64.3917
5.528000	 64.4586
5.612000	 64.4354
5.696000	 64.2768
5.780000	 64.1491
5.864000	 64.2539
5.948000	 64.1552
6.032000	 64.2071
6.116000	 64.1733
6.200000	 64.1687
6.284000	 64.1208
6.368000	 64.114
6.452000	 64.1074
6.536000	 64.0768
6.620000	 64.14
6.704000	 64.0134
6.788000	 64.0955
6.872000	 64.0247
6.956000	 64.0029
7.040000	 64.064
7.124000	 64.0819
7.208000	 63.9906
7.292000	 63.8259
7.376000	 63.9709
7.460000	 63.8663
7.544000	 63.7938
7.628000	 63.853
7.712000	 63.9197
7.796000	 63.8652
7.880000	 63.9242
7.964000	 63.8287
8.048000	 63.8741
8.132000	 63.729
8.216000	 63.6017
8.300000	 63.8282
8.384000	 63.8015
8.468000	 63.7528
8.552000	 63.7343
8.635999	 63.679
8.719999	 63.6891
8.804000	 63.5641
8.888000	 63.6075
8.972000	 63.6841
9.056000	 63.815
9.140000	 63.7662
9.224000	 63.6477
9.308000	 63.8567
9.391999	 63.7478
9.475999	 63.582
9.560000	 63.5627
9.644000	 63.6232
9.728000	 63.6016
9.812000	 63.7027
9.896000	 63.7056
9.980000	 63.6164
10.064	63.8442
10.148	63.7236
10.232	63.7148
10.316	63.5291
10.4	63.5248
10.484	63.6574
10.568	63.7022
10.652	63.4002
10.736	63.4356
10.82	63.6381
10.904	63.5636
10.988	63.6766
11.072	63.8187
11.156	63.5505
11.24	63.4522
11.324	63.5362
11.408	63.6649
11.492	63.6666
11.576	63.63
11.66	63.6927
11.744	63.7054
11.828	63.722
11.912	63.7291
11.996	63.7147
12.08	63.6234
12.164	63.3842
12.248	63.3864
12.332	63.3218
12.416	63.354
12.5	63.4702
12.584	63.4887
12.668	63.5479
12.752	63.5561
12.836	63.5489
12.92	63.4716
13.004	63.4278
13.088	63.5239
13.172	63.552
13.256	63.4823
13.34	63.2955
13.424	63.2525
13.508	63.2688
13.592	63.0851
13.676	63.0351
13.76	63.2101
13.844	63.4426
13.928	63.4564
14.012	63.2805
14.096	63.0547
14.18	62.8949
14.264	62.9276
14.348	63.0452
14.432	63.1771
14.516	63.3625
14.6	63.5089
14.684	63.6697
14.768	63.7095
14.852	63.4269
14.936	63.1226
15.02	63.0183
15.104	63.1836
15.188	63.5756
15.272	63.7344
15.356	63.5733
15.44	63.4524
15.524	63.3541
15.608	63.2431
15.692	63.2428
15.776	63.1731
15.86	62.9689
15.944	62.9783
16.028	63.384
16.112	63.8512
16.196	63.9002
16.28	63.4742
16.364	62.9899
16.448	62.8357
16.532	62.9843
16.616	63.128
16.7	63.0605
16.784	62.8447
16.868	62.6604
16.952	62.6454
17.036	62.7796
17.12	62.9313
17.204	63.0893
17.288	63.3203
17.372	63.5291
17.456	63.5678
17.54	63.5032
17.624	63.4596
17.708	63.3523
17.792	63.084
17.876	62.791
17.96	62.7099
18.044	62.8934
18.128	63.1874
18.212	63.4069
18.296	63.428
18.38	63.2167
18.464	62.8823
18.548	62.6731
18.632	62.7936
18.716	63.1787
18.8	63.5237
18.884	63.5827
18.968	63.3873
19.052	63.1457
19.136	62.9692
19.22	62.7895
19.304	62.5339
19.388	62.2739
19.472	62.1394
19.556	62.1723
19.64	62.2984
19.724	62.4198
19.808	62.4926
19.892	62.5137
19.976	62.468
20.06	62.3179
20.144	62.0821
20.228	61.8965
20.312	61.9417
20.396	62.2813
20.48	62.7542
20.564	63.0607
20.648	62.984
20.732	62.5698
20.816	62.0963
20.9	61.8811
20.984	62.0565
21.068	62.4907
21.152	62.8922
21.236	62.9992
21.32	62.7368
21.404	62.2439
21.488	61.7687
21.572	61.5114
21.656	61.5258
21.74	61.7322
21.824	62.0156
21.908	62.3279
21.992	62.7042
22.076	63.1891
22.16	63.7346
22.244	64.1703
22.328	64.3045
22.412	64.0467
22.496	63.4975
22.58	62.8856
22.664	62.4311
22.748	62.226
22.832	62.2141
22.916	62.2675
23	62.2996
23.084	62.3154
23.168	62.3613
23.252	62.4457
23.336	62.5165
23.42	62.4846
23.504	62.2937
23.588	61.9613
23.672	61.5704
23.756	61.2392
23.84	61.0447
23.924	61.0064
24.008	61.0993
24.092	61.2642
24.176	61.4055
24.26	61.4252
24.344	61.2454
24.428	60.8709
24.512	60.4453
24.596	60.2258
24.68	60.4773
24.764	61.3264
24.848	62.6993
24.932	64.3179
25.016	65.8322
25.1	67.0006
25.184	67.8245
25.268	68.5421
25.352	69.4612
25.436	70.7769
25.52	72.378
25.604	73.8587
25.688	74.6559
25.772	74.3275
25.856	72.7665
25.94	70.1306
26.024	66.8336
26.108	63.4527
26.192	60.6068
26.276	58.8493
26.36	58.564
26.444	59.8839
26.528	62.6598
26.612	66.4929
26.696	70.8041
26.78	74.9367
26.864	78.317
26.948	80.5206
27.028	81.2887

File: BZ1503107-1_t60_cm-1.asc
PE IR       SPECTRUM    SPECTRUM    ASCII       PEDS        1.60
  -1
BZ6821~1.ASC
17/04/07
18:08:58.00
17/04/07
18:08:58.00
tln
$BZ1503107-1_t0060$<tbV0>[2.6,0.0,8.0,0.0,27,1,0]
370
64

2002,4.07
MIRTGS : RIGHTBACK : INTERNAL 2
MIR : ON : INTERNAL 2
OPTKBR

0.200000
8
8.000000
FILLER
RATIO
SPECTRUM
UNLOCKED 256

DOUBLE
64
COMBINED
1
0
0

1.000000
RATIO

1
0
TRUE
51149
0
LEFT NOT FITTED RIGHT NOT FITTED 0
NONE
NONE
15600
12
4.427000
51148
TRUE
1 0 8 72 0 0 0 0

15798

#HDR
-1
-1
#GR
CM-1
%T
2.38419e-05
0.0
5000
-1.000000
4631
8
81.2887
57.2145
#DATA
5000	65.3455
4984	64.356
4968	64.3445
4952	66.0609
4936	65.0072
4920	63.6395
4904	64.8369
4888	64.6806
4872	64.8169
4856	64.7963
4840	64.8768
4824	64.8152
4808	64.8721
4792	64.5214
4776	64.5284
4760	64.9335
4744	64.7386
4728	65.0829
4712	64.8583
4696	64.7446
4680	65.1649
4664	64.7878
4648	64.7066
4632	65.1523
4616	65.056
4600	65.318
4584	65.3872
4568	65.3237
4552	65.4916
4536	65.4746
4520	65.5416
4504	66.0867
4488	65.8386
4472	65.4369
4456	65.4005
4440	61.8109
4424	60.2445
4408	65.3382
4392	65.9545
4376	65.5846
4360	65.8483
4344	65.6797
4328	65.5887
4312	65.238
4296	65.5137
4280	65.0458
4264	65.4275
4248	64.8141
4232	65.2422
4216	65.0735
4200	65.1246
4184	64.895
4168	64.6969
4152	64.7305
4136	64.8268
4120	64.9695
4104	64.7011
4088	64.9847
4072	64.929
4056	64.942
4040	64.9327
4024	65.0814
4008	65.0843
3992	65.0823
3976	65.3075
3960	65.1121
3944	65.0534
3928	64.9657
3912	65.0681
3896	65.1433
3880	65.0583
3864	65.1167
3848	65.441
3832	65.0874
3816	64.9765
3800	65.0382
3784	65.1403
3768	65.0276
3752	65.0103
3736	64.9301
3720	65.0015
3704	65.0768
3688	65.0316
3672	65.172
3656	65.0849
3640	65.1467
3624	65.0185
3608	64.9329
3592	64.9433
3576	64.952
3560	65.2322
3544	65.1456
3528	65.0571
3512	65.0627
3496	65.2017
3480	65.1599
3464	65.2051
3448	65.2311
3432	65.0098
3416	65.127
3400	64.9689
3384	64.9724
3368	65.185
3352	64.9254
3336	65.0141
3320	65.0189
3304	64.9616
3288	65.0654
3272	64.9255
3256	65.0728
3240	64.9289
3224	65.1593
3208	65.0434
3192	65.0497
3176	65.1049
3160	65.0139
3144	64.9188
3128	65.1357
3112	64.9029
3096	65.0113
3080	65.0326
3064	64.9476
3048	64.9705
3032	64.9374
3016	65.0734
3000	64.9324
2984	64.926
2968	64.7988
2952	64.7932
2936	64.8068
2920	64.8518
2904	64.8285
2888	64.9819
2872	64.8801
2856	65.0563
2840	64.9052
2824	64.9577
2808	64.9015
2792	64.8717
2776	64.9804
2760	64.886
2744	64.9661
2728	64.9521
2712	65.0756
2696	64.8437
2680	64.97
2664	64.8521
2648	64.8765
2632	64.8752
2616	64.9368
2600	64.9974
2584	64.9936
2568	64.8593
2552	64.8514
2536	64.7974
2520	64.8716
2504	64.7787
2488	64.9437
2472	64.7298
2456	64.7329
2440	64.8561
2424	64.7043
2408	64.7296
2392	64.7566
2376	64.6463
2360	64.7168
2344	64.6905
2328	64.7299
2312	64.6536
2296	64.7049
2280	64.7249
2264	64.7582
2248	64.6726
2232	64.6099
2216	64.7441
2200	64.6558
2184	64.6837
2168	64.6601
2152	64.6563
2136	64.6744
2120	64.5982
2104	64.6113
2088	64.6013
2072	64.5623
2056	64.674
2040	64.5101
2024	64.5862
2008	64.5277
1992	64.5936
1976	64.5068
1960	64.366
1944	64.5551
1928	64.4954
1912	64.4437
1896	64.4211
1880	64.4397
1864	64.3676
1848	64.4268
1832	64.397
1816	64.457
1800	64.3679
1784	64.4502
1768	64.3615
1752	64.2259
1736	64.1596
1720	64.273
1704	64.2452
1688	64.1984
1672	64.2272
1656	64.2162
1640	64.2848
1624	64.1397
1608	64.2065
1592	64.1122
1576	64.0854
1560	64.1322
1544	64.1439
1528	64.0871
1512	64.1302
1496	64.0808
1480	64.1942
1464	64.1193
1448	63.9514
1432	63.9823
1416	64.0884
1400	64.0246
1384	63.9411
1368	63.7992
1352	63.9077
1336	63.9081
1320	63.7974
1304	63.8605
1288	63.907
1272	63.885
1256	63.8313
1240	63.8724
1224	63.6817
1208	63.8058
1192	63.8047
1176	63.687
1160	63.6466
1144	63.5778
1128	63.5874
1112	63.7331
1096	63.7989
1080	63.7565
1064	63.7447
1048	63.5345
1032	63.5588
1016	63.6649
1000	63.6771
984	 63.7231
968	 63.5031
952	 63.711
936	 63.3441
920	 63.5941
904	 63.819
888	 63.4569
872	 63.6755
856	 63.7054
840	 63.7313
824	 63.4537
808	 63.3023
792	 63.5183
776	 63.5127
760	 63.5552
744	 63.2685
728	 63.1434
712	 63.1935
696	 63.0721
680	 63.7066
664	 63.0565
648	 63.4598
632	 63.0582
616	 63.7495
600	 63.1133
584	 62.9369
568	 63.4686
552	 63.1461
536	 62.8906
520	 62.761
504	 62.5072
488	 62.8138
472	 62.9816
456	 62.4169
440	 62.2544
424	 61.9751
408	 60.4545
392	 72.1905
376	 65.6993
370	 81.2887

File: BZ1503107-1_t61.asc
PE IR       SPECTRUM    SPECTRUM    ASCII       PEDS        1.60
  -1
BZ2D41~1.ASC
17/04/07
18:13:35.00
17/04/07
18:14:02.00
tln
$BZ1503107-1_t0061$<tbV0>[0.0,0.0,8.0,0.0,27,1,0]
27.028
64

2002,4.07
MIRTGS : RIGHTBACK : INTERNAL 2
MIR : ON : INTERNAL 2
OPTKBR

0.200000
8
8.000000
FILLER
RATIO
SPECTRUM
UNLOCKED 256

DOUBLE
64
COMBINED
1
0
0

0.002000
RATIO

1
0
TRUE
51149
0
LEFT NOT FITTED RIGHT NOT FITTED 0
NONE
NONE
15600
12
4.427000
51148
TRUE
1 0 8 72 0 0 0 0

15798

#HDR
-1
-1
#GR
µM
%T
2.38419e-05
0.0
2.000000
0.002000
12515
8
74.6345
50.4873
#DATA
2.000000	 64.7628
2.084000	 64.4563
2.168000	 64.6848
2.252000	 54.0223
2.336000	 65.0971
2.420000	 64.9936
2.504000	 65.0437
2.588000	 65.0806
2.672000	 64.9179
2.756000	 64.9184
2.840000	 65.1912
2.924000	 65.0629
3.008000	 64.9767
3.092000	 64.8853
3.176000	 64.8216
3.260000	 64.8881
3.344000	 64.9167
3.428000	 64.8295
3.512000	 64.9767
3.596000	 65.0271
3.680000	 64.974
3.764000	 64.8426
3.848000	 64.9303
3.932000	 64.7889
4.016000	 64.8826
4.100000	 64.9138
4.184000	 64.8357
4.268000	 64.6848
4.352000	 64.8529
4.436000	 64.7452
4.520000	 64.7642
4.604000	 64.5971
4.688000	 64.5635
4.772000	 64.6175
4.856000	 64.6306
4.940000	 64.6129
5.024000	 64.5506
5.108000	 64.4799
5.192000	 64.475
5.276000	 64.3963
5.359999	 64.4453
5.444000	 64.4541
5.528000	 64.423
5.612000	 64.4364
5.696000	 64.2973
5.780000	 64.1199
5.864000	 64.2527
5.948000	 64.1469
6.032000	 64.2491
6.116000	 64.1031
6.200000	 64.2785
6.284000	 64.1387
6.368000	 64.1672
6.452000	 64.1608
6.536000	 63.9822
6.620000	 64.122
6.704000	 64.1686
6.788000	 64.0464
6.872000	 63.8979
6.956000	 64.0024
7.040000	 64.0993
7.124000	 63.9816
7.208000	 64.0023
7.292000	 63.8881
7.376000	 63.8834
7.460000	 63.8136
7.544000	 63.8657
7.628000	 63.7822
7.712000	 63.9982
7.796000	 63.7118
7.880000	 63.7514
7.964000	 63.8178
8.048000	 63.6274
8.132000	 63.6823
8.216000	 63.7964
8.300000	 63.7637
8.384000	 63.662
8.468000	 63.7485
8.552000	 63.7377
8.635999	 63.5516
8.719999	 63.5619
8.804000	 63.8064
8.888000	 63.6039
8.972000	 63.6886
9.056000	 63.6587
9.140000	 63.693
9.224000	 63.5177
9.308000	 63.7616
9.391999	 63.6899
9.475999	 63.6298
9.560000	 63.5282
9.644000	 63.4969
9.728000	 63.4811
9.812000	 63.5991
9.896000	 63.7345
9.980000	 63.6464
10.064	63.6123
10.148	63.6735
10.232	63.8536
10.316	63.7146
10.4	63.5005
10.484	63.4305
10.568	63.4892
10.652	63.5391
10.736	63.5805
10.82	63.6255
10.904	63.5468
10.988	63.464
11.072	63.5964
11.156	63.5964
11.24	63.4673
11.324	63.5078
11.408	63.5843
11.492	63.5399
11.576	63.5818
11.66	63.816
11.744	63.8454
11.828	63.6315
11.912	63.4842
11.996	63.5171
12.08	63.6086
12.164	63.8792
12.248	63.8415
12.332	63.6008
12.416	63.4248
12.5	63.4181
12.584	63.4819
12.668	63.4816
12.752	63.35
12.836	63.2124
12.92	63.1617
13.004	63.331
13.088	63.4222
13.172	63.4131
13.256	63.347
13.34	63.347
13.424	63.4514
13.508	63.3707
13.592	63.2353
13.676	63.1868
13.76	63.2737
13.844	63.3259
13.928	63.2698
14.012	63.2601
14.096	63.1678
14.18	62.9572
14.264	62.8995
14.348	63.0269
14.432	63.2784
14.516	63.5969
14.6	63.567
14.684	63.4033
14.768	63.4759
14.852	63.3575
14.936	63.0623
15.02	63.0169
15.104	63.2432
15.188	63.4503
15.272	63.4373
15.356	63.3794
15.44	63.2837
15.524	62.9528
15.608	62.7055
15.692	62.7988
15.776	62.88
15.86	62.839
15.944	63.0827
16.028	63.6941
16.112	64.1563
16.196	63.9557
16.28	63.1755
16.364	62.4743
16.448	62.4099
16.532	62.8083
16.616	63.1095
16.7	63.1311
16.784	63.0372
16.868	62.8593
16.952	62.5922
17.036	62.4484
17.12	62.6082
17.204	62.9314
17.288	63.1203
17.372	63.0763
17.456	62.9883
17.54	63.0823
17.624	63.341
17.708	63.5437
17.792	63.5417
17.876	63.3395
17.96	63.0163
18.044	62.6931
18.128	62.5249
18.212	62.5861
18.296	62.7423
18.38	62.7356
18.464	62.4951
18.548	62.2642
18.632	62.2935
18.716	62.4803
18.8	62.4776
18.884	62.1373
18.968	61.7203
19.052	61.6114
19.136	61.9172
19.22	62.4264
19.304	62.8885
19.388	63.1828
19.472	63.2366
19.556	62.9813
19.64	62.4913
19.724	62.0741
19.808	62.0965
19.892	62.6781
19.976	63.5575
20.06	64.2826
20.144	64.5397
20.228	64.3273
20.312	63.8519
20.396	63.3155
20.48	62.8074
20.564	62.3431
20.648	61.9437
20.732	61.6573
20.816	61.5282
20.9	61.5496
20.984	61.6677
21.068	61.8229
21.152	61.9906
21.236	62.1881
21.32	62.4394
21.404	62.724
21.488	62.9746
21.572	63.1271
21.656	63.1824
21.74	63.2196
21.824	63.3241
21.908	63.4937
21.992	63.6204
22.076	63.5671
22.16	63.2873
22.244	62.8875
22.328	62.5644
22.412	62.4912
22.496	62.6915
22.58	63.0474
22.664	63.3882
22.748	63.5873
22.832	63.6277
22.916	63.5648
23	63.4845
23.084	63.4295
23.168	63.404
23.252	63.4088
23.336	63.4633
23.42	63.6183
23.504	63.9254
23.588	64.3514
23.672	64.7537
23.756	64.9166
23.84	64.6156
23.924	63.7436
24.008	62.3896
24.092	60.8275
24.176	59.4022
24.26	58.3668
24.344	57.7783
24.428	57.4688
24.512	57.1202
24.596	56.4589
24.68	55.3618
24.764	53.9104
24.848	52.3534
24.932	51.0837
25.016	50.4983
25.1	50.8749
25.184	52.3399
25.268	54.807
25.352	58.0115
25.436	61.5265
25.52	64.8335
25.604	67.4255
25.688	68.8951
25.772	69.0514
25.856	67.9627
25.94	65.8921
26.024	63.3166
26.108	60.8643
26.192	59.1852
26.276	58.7896
26.36	59.9364
26.444	62.4855
26.528	65.9261
26.612	69.5103
26.696	72.4678
26.78	74.216
26.864	74.6128
26.948	73.9542
27.028	72.9014