Folder: Masteroppgave/Bakgrunnsmateriale/MATLAB/FTIR/ftir_data/subAa/Mapping_121 (part 18)

File: BZ1503107-1_t36_cm-1.asc
PE IR       SPECTRUM    SPECTRUM    ASCII       PEDS        1.60
  -1
BZ6EA0~1.ASC
17/04/07
16:10:31.00
17/04/07
16:10:31.00
tln
$BZ1503107-1_t0036$<tbV0>[7.8,-5.2,8.0,0.0,27,1,0]
370
64

2002,4.07
MIRTGS : RIGHTBACK : INTERNAL 2
MIR : ON : INTERNAL 2
OPTKBR

0.200000
8
8.000000
FILLER
RATIO
SPECTRUM
UNLOCKED 256

DOUBLE
64
COMBINED
1
0
0

1.000000
RATIO

1
0
TRUE
51149
0
LEFT NOT FITTED RIGHT NOT FITTED 0
NONE
NONE
15600
12
4.427000
51148
TRUE
1 0 8 72 0 0 0 0

15798

#HDR
-1
-1
#GR
CM-1
%T
2.38419e-05
0.0
5000
-1.000000
4631
8
77.5582
40.4587
#DATA
5000	65.3729
4984	64.9178
4968	64.3305
4952	64.0314
4936	64.4152
4920	64.9096
4904	64.8811
4888	64.5951
4872	65.0236
4856	65.1455
4840	65.4505
4824	65.1594
4808	64.9435
4792	64.7316
4776	64.9566
4760	65.4022
4744	65.257
4728	65.3147
4712	65.5486
4696	65.0286
4680	64.5975
4664	65.0161
4648	65.2735
4632	64.7764
4616	64.8795
4600	65.0239
4584	64.8971
4568	64.9243
4552	64.6792
4536	64.7326
4520	64.7637
4504	65.3092
4488	64.6077
4472	64.5239
4456	64.9445
4440	66.1119
4424	60.4926
4408	68.363
4392	66.1108
4376	64.8603
4360	64.8186
4344	64.8721
4328	64.3605
4312	64.7343
4296	65.3321
4280	64.8036
4264	64.8818
4248	64.7744
4232	65.1263
4216	64.977
4200	65.3416
4184	65.2856
4168	64.8455
4152	65.0739
4136	65.3209
4120	65.1567
4104	64.9735
4088	65.2466
4072	65.286
4056	65.0519
4040	64.9487
4024	65.1633
4008	65.3305
3992	65.432
3976	65.0588
3960	65.1951
3944	65.2096
3928	65.1657
3912	65.136
3896	65.351
3880	65.1716
3864	64.9945
3848	65.1458
3832	65.0712
3816	65.1829
3800	65.2961
3784	64.8416
3768	65.116
3752	65.1559
3736	65.1778
3720	64.9993
3704	65.3376
3688	64.9475
3672	65.3774
3656	65.2097
3640	65.2272
3624	65.265
3608	65.3507
3592	65.4304
3576	65.1457
3560	65.2721
3544	65.0349
3528	64.9189
3512	65.2567
3496	65.0968
3480	65.1387
3464	65.0322
3448	65.1518
3432	65.3324
3416	65.2103
3400	65.3073
3384	65.2617
3368	65.1801
3352	65.2701
3336	65.1615
3320	65.1759
3304	64.9951
3288	65.1983
3272	65.2497
3256	65.1328
3240	65.1479
3224	65.073
3208	64.9878
3192	64.9958
3176	65.0185
3160	64.9673
3144	64.9471
3128	65.0245
3112	65.0817
3096	65.1803
3080	65.2109
3064	65.2112
3048	65.0934
3032	65.1066
3016	65.1054
3000	65.1244
2984	65.1899
2968	64.95
2952	64.9456
2936	65.1153
2920	65.0443
2904	64.9922
2888	65.0511
2872	65.0592
2856	65.1383
2840	64.9815
2824	65.0869
2808	64.9641
2792	65.1284
2776	65.0633
2760	65.2546
2744	65.1615
2728	64.9928
2712	64.9578
2696	65.1388
2680	65.0658
2664	65.0996
2648	65.0457
2632	65.0721
2616	65.014
2600	65.0645
2584	65.0983
2568	65.011
2552	64.928
2536	65.0172
2520	64.9806
2504	65.0695
2488	64.8652
2472	64.921
2456	64.8846
2440	65.0404
2424	64.8837
2408	64.9065
2392	65.0602
2376	64.8096
2360	64.8571
2344	64.8979
2328	64.8445
2312	64.9228
2296	64.8854
2280	64.8209
2264	64.673
2248	64.8052
2232	64.9196
2216	64.8242
2200	64.975
2184	64.8992
2168	64.8538
2152	64.836
2136	64.7757
2120	64.8387
2104	64.847
2088	64.8128
2072	64.8756
2056	64.8544
2040	64.7499
2024	64.8499
2008	64.8474
1992	64.7845
1976	64.7228
1960	64.8175
1944	64.7315
1928	64.6401
1912	64.6749
1896	64.686
1880	64.5756
1864	64.6203
1848	64.6127
1832	64.6055
1816	64.7049
1800	64.6356
1784	64.5824
1768	64.5413
1752	64.5328
1736	64.3246
1720	64.4542
1704	64.5649
1688	64.6946
1672	64.5824
1656	64.4592
1640	64.4078
1624	64.4457
1608	64.472
1592	64.5222
1576	64.3673
1560	64.5976
1544	64.4005
1528	64.346
1512	64.3904
1496	64.5001
1480	64.473
1464	64.307
1448	64.3311
1432	64.3
1416	64.326
1400	64.1993
1384	64.1922
1368	64.2804
1352	64.0817
1336	64.3137
1320	64.1477
1304	64.3433
1288	64.2293
1272	64.0568
1256	64.1962
1240	64.1224
1224	64.0993
1208	64.1517
1192	64.0808
1176	64.1787
1160	64.1222
1144	64.0135
1128	63.9488
1112	64.0212
1096	63.8927
1080	64.0125
1064	64.0106
1048	63.9453
1032	64.0904
1016	64.1934
1000	64.1145
984	 64.1367
968	 64.0076
952	 63.8994
936	 64.0022
920	 64.012
904	 64.0076
888	 63.9753
872	 63.9832
856	 64.1182
840	 64.0336
824	 63.6851
808	 63.8724
792	 64.1875
776	 63.8025
760	 63.6683
744	 63.5064
728	 63.6459
712	 63.3855
696	 63.8284
680	 62.9718
664	 63.3638
648	 63.9167
632	 65.3177
616	 62.6126
600	 64.1896
584	 63.3576
568	 63.928
552	 63.9675
536	 63.9462
520	 64.0458
504	 63.3582
488	 63.306
472	 63.7743
456	 61.9268
440	 62.2493
424	 62.2116
408	 66.2384
392	 75.0047
376	 44.9481
370	 43.2255

File: BZ1503107-1_t37.asc
PE IR       SPECTRUM    SPECTRUM    ASCII       PEDS        1.60
  -1
BZ2567~1.ASC
17/04/07
16:15:08.00
17/04/07
16:15:34.00
tln
$BZ1503107-1_t0037$<tbV0>[5.2,-5.2,8.0,0.0,27,1,0]
27.028
64

2002,4.07
MIRTGS : RIGHTBACK : INTERNAL 2
MIR : ON : INTERNAL 2
OPTKBR

0.200000
8
8.000000
FILLER
RATIO
SPECTRUM
UNLOCKED 256

DOUBLE
64
COMBINED
1
0
0

0.002000
RATIO

1
0
TRUE
51149
0
LEFT NOT FITTED RIGHT NOT FITTED 0
NONE
NONE
15600
12
4.427000
51148
TRUE
1 0 8 72 0 0 0 0

15798

#HDR
-1
-1
#GR
µM
%T
2.38419e-05
0.0
2.000000
0.002000
12515
8
76.7254
38.5127
#DATA
2.000000	 65.5849
2.084000	 65.1449
2.168000	 65.04
2.252000	 65.0485
2.336000	 65.1895
2.420000	 64.937
2.504000	 65.185
2.588000	 65.2572
2.672000	 65.2347
2.756000	 65.2159
2.840000	 65.1332
2.924000	 65.3932
3.008000	 65.1196
3.092000	 65.0948
3.176000	 65.0857
3.260000	 65.1331
3.344000	 65.0535
3.428000	 65.1894
3.512000	 64.8824
3.596000	 65.0229
3.680000	 65.1777
3.764000	 65.0938
3.848000	 65.0405
3.932000	 64.8856
4.016000	 64.9438
4.100000	 64.8885
4.184000	 65.0483
4.268000	 64.9352
4.352000	 64.9227
4.436000	 64.7779
4.520000	 64.7645
4.604000	 64.8525
4.688000	 64.8929
4.772000	 64.7978
4.856000	 64.8518
4.940000	 64.8239
5.024000	 64.7292
5.108000	 64.7215
5.192000	 64.7977
5.276000	 64.6492
5.359999	 64.7577
5.444000	 64.6681
5.528000	 64.6213
5.612000	 64.5897
5.696000	 64.4864
5.780000	 64.3179
5.864000	 64.5968
5.948000	 64.6078
6.032000	 64.3818
6.116000	 64.4871
6.200000	 64.328
6.284000	 64.4164
6.368000	 64.276
6.452000	 64.3433
6.536000	 64.3663
6.620000	 64.4527
6.704000	 64.3239
6.788000	 64.3027
6.872000	 64.3986
6.956000	 64.3831
7.040000	 64.2876
7.124000	 64.353
7.208000	 64.2496
7.292000	 64.3624
7.376000	 64.1964
7.460000	 64.2108
7.544000	 64.2951
7.628000	 64.2517
7.712000	 64.1966
7.796000	 64.2825
7.880000	 64.1209
7.964000	 64.0836
8.048000	 64.1702
8.132000	 64.1529
8.216000	 64.212
8.300000	 64.0762
8.384000	 63.9752
8.468000	 64.0099
8.552000	 63.954
8.635999	 64.0306
8.719999	 64.113
8.804000	 63.7896
8.888000	 63.7667
8.972000	 64.0459
9.056000	 63.9868
9.140000	 63.9224
9.224000	 64.0039
9.308000	 63.9078
9.391999	 64.0228
9.475999	 63.9579
9.560000	 64.0576
9.644000	 63.9089
9.728000	 64.0192
9.812000	 64.1131
9.896000	 64.1036
9.980000	 64.1444
10.064	64.1267
10.148	63.9974
10.232	64.1223
10.316	63.937
10.4	63.9016
10.484	63.892
10.568	63.9669
10.652	64.1219
10.736	64.11
10.82	64.0623
10.904	64.2342
10.988	64.122
11.072	64.1004
11.156	64.115
11.24	64.0964
11.324	63.9453
11.408	63.9999
11.492	63.9303
11.576	63.9919
11.66	63.9469
11.744	63.9981
11.828	63.8692
11.912	64.1275
11.996	64.1704
12.08	63.929
12.164	63.8817
12.248	63.7914
12.332	63.8547
12.416	64.0891
12.5	64.1042
12.584	63.9998
12.668	64.0469
12.752	64.2402
12.836	64.1911
12.92	63.9879
13.004	63.7771
13.088	63.7668
13.172	63.8364
13.256	63.5712
13.34	63.4186
13.424	63.6561
13.508	63.7902
13.592	63.6804
13.676	63.4463
13.76	63.3606
13.844	63.4456
13.928	63.5155
14.012	63.4501
14.096	63.416
14.18	63.4034
14.264	63.3326
14.348	63.3437
14.432	63.5674
14.516	63.9095
14.6	64.1074
14.684	64.1624
14.768	64.036
14.852	63.7212
14.936	63.584
15.02	63.6529
15.104	63.6265
15.188	63.6039
15.272	63.7197
15.356	63.7987
15.44	63.8069
15.524	63.9579
15.608	64.222
15.692	64.4345
15.776	64.6771
15.86	64.8705
15.944	64.8188
16.028	64.6019
16.112	64.1964
16.196	63.5425
16.28	63.1051
16.364	63.3159
16.448	63.8666
16.532	64.265
16.616	64.4696
16.7	64.5998
16.784	64.58
16.868	64.333
16.952	64.0079
17.036	63.8347
17.12	63.8359
17.204	63.8279
17.288	63.714
17.372	63.5868
17.456	63.514
17.54	63.4706
17.624	63.4909
17.708	63.6466
17.792	63.8676
17.876	64.0055
17.96	64.0765
18.044	64.2144
18.128	64.381
18.212	64.3562
18.296	64.0352
18.38	63.587
18.464	63.2924
18.548	63.2933
18.632	63.5053
18.716	63.7459
18.8	63.9088
18.884	64.0039
18.968	64.0705
19.052	64.1052
19.136	64.0671
19.22	63.9322
19.304	63.7261
19.388	63.5181
19.472	63.3876
19.556	63.3681
19.64	63.4375
19.724	63.5611
19.808	63.7183
19.892	63.869
19.976	63.9399
20.06	63.8844
20.144	63.7424
20.228	63.6104
20.312	63.5461
20.396	63.5234
20.48	63.4986
20.564	63.489
20.648	63.563
20.732	63.7547
20.816	64.0101
20.9	64.2293
20.984	64.3445
21.068	64.3508
21.152	64.2678
21.236	64.0932
21.32	63.8119
21.404	63.443
21.488	63.0507
21.572	62.7095
21.656	62.4563
21.74	62.279
21.824	62.151
21.908	62.0745
21.992	62.0887
22.076	62.2345
22.16	62.5028
22.244	62.8138
22.328	63.0521
22.412	63.1288
22.496	63.0408
22.58	62.8739
22.664	62.7606
22.748	62.813
22.832	63.0496
22.916	63.4043
23	63.7614
23.084	64.0244
23.168	64.1375
23.252	64.1039
23.336	63.9755
23.42	63.7866
23.504	63.5571
23.588	63.3074
23.672	63.0598
23.756	62.8297
23.84	62.6731
23.924	62.6621
24.008	62.8645
24.092	63.3313
24.176	64.0725
24.26	64.9803
24.344	65.812
24.428	66.3136
24.512	66.3523
24.596	66.0093
24.68	65.6256
24.764	65.7096
24.848	66.6661
24.932	68.6254
25.016	71.2753
25.1	73.9293
25.184	75.5897
25.268	75.3855
25.352	72.9424
25.436	68.5121
25.52	63.0535
25.604	57.9352
25.688	54.5628
25.772	53.8557
25.856	55.9348
25.94	60.0897
26.024	64.934
26.108	68.8767
26.192	70.7092
26.276	69.8946
26.36	66.6312
26.444	61.6938
26.528	56.0847
26.612	50.6037
26.696	45.8252
26.78	42.0944
26.864	39.5962
26.948	38.525
27.028	39.1054

File: BZ1503107-1_t37_cm-1.asc
PE IR       SPECTRUM    SPECTRUM    ASCII       PEDS        1.60
  -1
BZ6FA0~1.ASC
17/04/07
16:15:08.00
17/04/07
16:15:08.00
tln
$BZ1503107-1_t0037$<tbV0>[5.2,-5.2,8.0,0.0,27,1,0]
370
64

2002,4.07
MIRTGS : RIGHTBACK : INTERNAL 2
MIR : ON : INTERNAL 2
OPTKBR

0.200000
8
8.000000
FILLER
RATIO
SPECTRUM
UNLOCKED 256

DOUBLE
64
COMBINED
1
0
0

1.000000
RATIO

1
0
TRUE
51149
0
LEFT NOT FITTED RIGHT NOT FITTED 0
NONE
NONE
15600
12
4.427000
51148
TRUE
1 0 8 72 0 0 0 0

15798

#HDR
-1
-1
#GR
CM-1
%T
2.38419e-05
0.0
5000
-1.000000
4631
8
77.9148
38.5134
#DATA
5000	65.5849
4984	64.9099
4968	64.9116
4952	64.9356
4936	64.9152
4920	65.2215
4904	65.2715
4888	64.0955
4872	64.5876
4856	64.948
4840	64.7612
4824	64.9883
4808	64.9908
4792	64.581
4776	64.5851
4760	65.1423
4744	64.9893
4728	64.8445
4712	65.2671
4696	64.9855
4680	65.3038
4664	65.1827
4648	65.1896
4632	64.843
4616	65.0389
4600	65.0938
4584	64.7669
4568	64.9432
4552	64.6518
4536	65.4127
4520	64.8721
4504	64.7906
4488	65.0369
4472	65.1754
4456	65.4939
4440	65.0747
4424	72.9196
4408	59.7966
4392	65.0323
4376	65.7396
4360	64.8783
4344	65.0922
4328	65.0402
4312	64.9706
4296	65.2678
4280	65.1513
4264	65.1766
4248	64.948
4232	65.3082
4216	65.2986
4200	65.0005
4184	65.1642
4168	64.9478
4152	65.1284
4136	65.0096
4120	65.1031
4104	64.9896
4088	65.2469
4072	65.0482
4056	65.1577
4040	65.0457
4024	65.4115
4008	65.1116
3992	65.2294
3976	65.4761
3960	65.1656
3944	65.2221
3928	65.1551
3912	65.2769
3896	65.2148
3880	65.1079
3864	65.2575
3848	65.1375
3832	65.4938
3816	65.2808
3800	65.42
3784	65.2189
3768	65.2627
3752	65.2377
3736	65.2463
3720	65.4219
3704	65.2964
3688	65.2108
3672	65.2291
3656	65.3625
3640	65.0967
3624	65.2362
3608	65.3526
3592	65.3441
3576	64.9916
3560	65.1612
3544	65.1093
3528	65.1111
3512	65.2734
3496	65.1547
3480	64.8724
3464	65.0642
3448	65.1037
3432	65.2541
3416	65.2988
3400	65.2613
3384	65.1956
3368	65.0779
3352	65.0377
3336	65.2212
3320	65.0857
3304	65.137
3288	64.8949
3272	65.2225
3256	65.1114
3240	65.1356
3224	64.9295
3208	65.0202
3192	64.9143
3176	65.0568
3160	65.2039
3144	64.9964
3128	64.8809
3112	65.0122
3096	65.1816
3080	65.1386
3064	65.1714
3048	65.251
3032	65.0464
3016	64.9279
3000	65.0716
2984	65.2021
2968	64.9368
2952	65.113
2936	64.9972
2920	65.1832
2904	65.0294
2888	65.0338
2872	65.0749
2856	65.0247
2840	65.0714
2824	65.0671
2808	65.224
2792	65.3516
2776	65.0869
2760	65.0784
2744	65.1291
2728	65.1417
2712	65.0415
2696	65.1026
2680	64.9836
2664	64.9935
2648	65.1196
2632	65.0746
2616	65.0325
2600	65.012
2584	64.9864
2568	64.9904
2552	65.0242
2536	64.9729
2520	65.0177
2504	65.071
2488	64.936
2472	64.9903
2456	64.9067
2440	64.8882
2424	64.7318
2408	65.0185
2392	65.0271
2376	64.8
2360	64.9879
2344	64.9234
2328	64.9094
2312	64.9041
2296	64.9041
2280	64.8091
2264	64.8241
2248	64.7969
2232	64.9827
2216	64.8228
2200	64.9531
2184	64.9391
2168	64.8375
2152	64.744
2136	64.8772
2120	64.9091
2104	64.8855
2088	64.7662
2072	64.9214
2056	64.8899
2040	64.7903
2024	64.8201
2008	64.7929
1992	64.7184
1976	64.7675
1960	64.7194
1944	64.7614
1928	64.8034
1912	64.6996
1896	64.6621
1880	64.6386
1864	64.7132
1848	64.7886
1832	64.6749
1816	64.702
1800	64.5998
1784	64.5927
1768	64.4696
1752	64.4947
1736	64.3112
1720	64.5325
1704	64.611
1688	64.6435
1672	64.6244
1656	64.37
1640	64.4669
1624	64.3654
1608	64.4237
1592	64.4217
1576	64.2027
1560	64.4452
1544	64.4063
1528	64.3587
1512	64.4425
1496	64.2443
1480	64.411
1464	64.2399
1448	64.425
1432	64.1816
1416	64.2993
1400	64.2512
1384	64.3065
1368	64.355
1352	64.1898
1336	64.1845
1320	64.293
1304	64.2959
1288	64.3193
1272	64.1579
1256	64.0776
1240	64.1963
1224	64.1556
1208	64.1439
1192	63.98
1176	64.0032
1160	64.0273
1144	64.0664
1128	63.7337
1112	64.0242
1096	63.9125
1080	63.9904
1064	64.0295
1048	64.0439
1032	63.989
1016	64.1466
1000	64.145
984	 63.9972
968	 63.9107
952	 63.9155
936	 64.1673
920	 64.1953
904	 64.1083
888	 64.0311
872	 63.9379
856	 63.9762
840	 64.1023
824	 63.8939
808	 63.9779
792	 63.9975
776	 64.0724
760	 63.8432
744	 63.7024
728	 63.3624
712	 63.4245
696	 63.3748
680	 64.1533
664	 63.6564
648	 63.8029
632	 64.8088
616	 63.2794
600	 64.5578
584	 63.8369
568	 63.4761
552	 64.3636
536	 63.5806
520	 63.9088
504	 63.7826
488	 63.4952
472	 64.2084
456	 62.0674
440	 62.7819
424	 63.3166
408	 66.3567
392	 63.692
376	 51.6178
370	 39.1054

File: BZ1503107-1_t38.asc
PE IR       SPECTRUM    SPECTRUM    ASCII       PEDS        1.60
  -1
BZ2967~1.ASC
17/04/07
16:19:45.00
17/04/07
16:20:11.00
tln
$BZ1503107-1_t0038$<tbV0>[2.6,-5.2,8.0,0.0,27,1,0]
27.028
64

2002,4.07
MIRTGS : RIGHTBACK : INTERNAL 2
MIR : ON : INTERNAL 2
OPTKBR

0.200000
8
8.000000
FILLER
RATIO
SPECTRUM
UNLOCKED 256

DOUBLE
64
COMBINED
1
0
0

0.002000
RATIO

1
0
TRUE
51149
0
LEFT NOT FITTED RIGHT NOT FITTED 0
NONE
NONE
15600
12
4.427000
51148
TRUE
1 0 8 72 0 0 0 0

15798

#HDR
-1
-1
#GR
µM
%T
2.38419e-05
0.0
2.000000
0.002000
12515
8
79.4086
53.2934
#DATA
2.000000	 65.5348
2.084000	 64.6128
2.168000	 64.7383
2.252000	 67.3715
2.336000	 65.1662
2.420000	 65.0761
2.504000	 65.2068
2.588000	 65.0987
2.672000	 65.2265
2.756000	 65.5247
2.840000	 65.1639
2.924000	 65.1985
3.008000	 65.0274
3.092000	 65.0197
3.176000	 65.1171
3.260000	 65.1266
3.344000	 65.1481
3.428000	 65.0191
3.512000	 64.9683
3.596000	 64.9651
3.680000	 64.9844
3.764000	 65.0528
3.848000	 64.9246
3.932000	 64.8921
4.016000	 64.9998
4.100000	 64.9897
4.184000	 65.0451
4.268000	 64.894
4.352000	 64.8737
4.436000	 64.7946
4.520000	 64.8381
4.604000	 64.7657
4.688000	 64.8739
4.772000	 64.8342
4.856000	 64.6331
4.940000	 64.8463
5.024000	 64.6079
5.108000	 64.705
5.192000	 64.623
5.276000	 64.5402
5.359999	 64.6274
5.444000	 64.6077
5.528000	 64.5662
5.612000	 64.5564
5.696000	 64.4766
5.780000	 64.2507
5.864000	 64.5038
5.948000	 64.517
6.032000	 64.3729
6.116000	 64.481
6.200000	 64.2702
6.284000	 64.4004
6.368000	 64.4239
6.452000	 64.2541
6.536000	 64.308
6.620000	 64.4788
6.704000	 64.4432
6.788000	 64.3219
6.872000	 64.2515
6.956000	 64.3787
7.040000	 64.4031
7.124000	 64.3094
7.208000	 64.2898
7.292000	 64.2333
7.376000	 64.2717
7.460000	 64.258
7.544000	 64.1906
7.628000	 64.1064
7.712000	 64.1123
7.796000	 64.1459
7.880000	 64.0969
7.964000	 64.0459
8.048000	 64.1098
8.132000	 64.1004
8.216000	 64.1836
8.300000	 64.1137
8.384000	 64.1654
8.468000	 64.046
8.552000	 63.8184
8.635999	 64.0963
8.719999	 64.0198
8.804000	 63.9305
8.888000	 63.8077
8.972000	 64.003
9.056000	 63.88
9.140000	 63.7551
9.224000	 63.9722
9.308000	 64.0265
9.391999	 63.925
9.475999	 63.8984
9.560000	 63.9069
9.644000	 63.7593
9.728000	 64.0494
9.812000	 63.9955
9.896000	 64.0028
9.980000	 64.0369
10.064	63.9518
10.148	63.9973
10.232	63.891
10.316	63.9538
10.4	64.0051
10.484	63.8785
10.568	64.0878
10.652	64.1442
10.736	64.1416
10.82	64.2504
10.904	64.212
10.988	63.9948
11.072	63.8968
11.156	64.1125
11.24	64.1239
11.324	63.9696
11.408	64.2274
11.492	64.239
11.576	64.0375
11.66	63.8998
11.744	63.818
11.828	63.7785
11.912	63.8197
11.996	63.736
12.08	63.74
12.164	63.6626
12.248	63.6812
12.332	63.8771
12.416	63.7455
12.5	63.7109
12.584	63.8666
12.668	63.9402
12.752	64.0453
12.836	64.0794
12.92	63.9425
13.004	63.8094
13.088	63.6228
13.172	63.5544
13.256	63.5178
13.34	63.7363
13.424	64.0349
13.508	63.6023
13.592	63.4383
13.676	63.7378
13.76	63.8145
13.844	63.7909
13.928	63.6481
14.012	63.5363
14.096	63.6234
14.18	63.8727
14.264	63.9382
14.348	63.5749
14.432	63.3476
14.516	63.2709
14.6	63.1233
14.684	63.4549
14.768	64.0873
14.852	64.3532
14.936	64.1011
15.02	63.4234
15.104	63.0904
15.188	63.4289
15.272	63.4415
15.356	63.117
15.44	63.3859
15.524	64.1045
15.608	64.6872
15.692	64.9737
15.776	64.8414
15.86	64.4021
15.944	64.0726
16.028	63.8968
16.112	63.5448
16.196	62.9318
16.28	62.4638
16.364	62.6328
16.448	63.2952
16.532	63.8015
16.616	63.9235
16.7	63.9366
16.784	63.8914
16.868	63.6029
16.952	63.1818
17.036	63.0019
17.12	63.211
17.204	63.5802
17.288	63.8439
17.372	63.9728
17.456	64.0506
17.54	64.0713
17.624	63.9793
17.708	63.8241
17.792	63.7401
17.876	63.799
17.96	63.9493
18.044	64.0827
18.128	64.0975
18.212	63.9943
18.296	63.8609
18.38	63.725
18.464	63.549
18.548	63.3618
18.632	63.2552
18.716	63.2782
18.8	63.4175
18.884	63.6366
18.968	63.891
19.052	64.1145
19.136	64.2392
19.22	64.2421
19.304	64.1642
19.388	64.0569
19.472	63.9316
19.556	63.7815
19.64	63.641
19.724	63.5859
19.808	63.6582
19.892	63.7963
19.976	63.8536
20.06	63.7007
20.144	63.3392
20.228	62.9142
20.312	62.6067
20.396	62.512
20.48	62.6138
20.564	62.8413
20.648	63.1223
20.732	63.3949
20.816	63.6046
20.9	63.7219
20.984	63.7581
21.068	63.757
21.152	63.7437
21.236	63.6977
21.32	63.5834
21.404	63.4005
21.488	63.2036
21.572	63.0717
21.656	63.0501
21.74	63.1269
21.824	63.2483
21.908	63.3558
21.992	63.4292
22.076	63.4959
22.16	63.6049
22.244	63.7957
22.328	64.0544
22.412	64.3003
22.496	64.4147
22.58	64.3147
22.664	64.0086
22.748	63.6254
22.832	63.348
22.916	63.3305
23	63.6065
23.084	64.0769
23.168	64.5317
23.252	64.7607
23.336	64.6294
23.42	64.1419
23.504	63.4256
23.588	62.6806
23.672	62.0985
23.756	61.817
23.84	61.8803
23.924	62.2597
24.008	62.8608
24.092	63.5302
24.176	64.1007
24.26	64.4457
24.344	64.5063
24.428	64.3156
24.512	63.9866
24.596	63.6789
24.68	63.547
24.764	63.6822
24.848	64.0808
24.932	64.6688
25.016	65.3427
25.1	65.9915
25.184	66.5669
25.268	67.1086
25.352	67.7014
25.436	68.5437
25.52	69.8441
25.604	71.6872
25.688	73.9508
25.772	76.2702
25.856	78.1605
25.94	79.2304
26.024	79.3362
26.108	78.6606
26.192	77.6538
26.276	76.8285
26.36	76.5602
26.444	76.9554
26.528	77.8148
26.612	78.7475
26.696	79.2654
26.78	78.9739
26.864	77.6407
26.948	75.2091
27.028	71.9525

File: BZ1503107-1_t38_cm-1.asc
PE IR       SPECTRUM    SPECTRUM    ASCII       PEDS        1.60
  -1
BZ60B0~1.ASC
17/04/07
16:19:45.00
17/04/07
16:19:45.00
tln
$BZ1503107-1_t0038$<tbV0>[2.6,-5.2,8.0,0.0,27,1,0]
370
64

2002,4.07
MIRTGS : RIGHTBACK : INTERNAL 2
MIR : ON : INTERNAL 2
OPTKBR

0.200000
8
8.000000
FILLER
RATIO
SPECTRUM
UNLOCKED 256

DOUBLE
64
COMBINED
1
0
0

1.000000
RATIO

1
0
TRUE
51149
0
LEFT NOT FITTED RIGHT NOT FITTED 0
NONE
NONE
15600
12
4.427000
51148
TRUE
1 0 8 72 0 0 0 0

15798

#HDR
-1
-1
#GR
CM-1
%T
2.38419e-05
0.0
5000
-1.000000
4631
8
79.3896
53.1787
#DATA
5000	65.5348
4984	64.9361
4968	64.5864
4952	64.7515
4936	64.6654
4920	64.2404
4904	64.8667
4888	64.9845
4872	64.6761
4856	65.2792
4840	65.1195
4824	65.1782
4808	65.0678
4792	64.6859
4776	64.9972
4760	65.1864
4744	65.0089
4728	65.16
4712	65.5628
4696	64.8328
4680	64.8623
4664	64.9579
4648	65.105
4632	64.9784
4616	64.9693
4600	64.6978
4584	64.9828
4568	64.6162
4552	65.1602
4536	64.959
4520	64.9715
4504	64.8011
4488	64.5391
4472	64.4913
4456	65.5111
4440	67.5112
4424	58.5225
4408	69.5049
4392	65.1681
4376	65.2938
4360	64.9809
4344	65.2464
4328	64.5601
4312	64.7051
4296	65.1863
4280	65.1135
4264	65.1033
4248	64.9938
4232	65.2087
4216	64.9247
4200	64.9818
4184	64.6806
4168	64.8463
4152	65.004
4136	65.2167
4120	65.0443
4104	64.9485
4088	64.8652
4072	65.1356
4056	64.9854
4040	65.1424
4024	65.2902
4008	65.2359
3992	65.1875
3976	65.3816
3960	65.309
3944	65.1518
3928	64.9521
3912	65.4131
3896	65.5151
3880	65.2218
3864	65.0986
3848	65.1349
3832	65.2034
3816	64.9599
3800	65.3693
3784	64.9689
3768	65.4106
3752	65.2727
3736	65.1618
3720	65.0966
3704	65.3069
3688	65.1334
3672	65.3323
3656	65.4388
3640	65.4638
3624	65.4008
3608	65.3183
3592	65.2985
3576	65.0324
3560	65.0539
3544	64.9682
3528	65.0049
3512	65.1759
3496	65.1202
3480	65.1055
3464	65.1183
3448	65.0324
3432	65.1121
3416	65.1873
3400	65.2745
3384	65.4198
3368	65.096
3352	65.1981
3336	65.2425
3320	65.0044
3304	65.2159
3288	65.1219
3272	65.0236
3256	64.9523
3240	65.2249
3224	65.025
3208	65.0486
3192	64.9769
3176	65.1758
3160	65.2025
3144	64.9434
3128	65.2245
3112	64.906
3096	65.1063
3080	65.1003
3064	65.1862
3048	65.1426
3032	65.0639
3016	65.1083
3000	65.0785
2984	65.0682
2968	65.0343
2952	65.0321
2936	64.9455
2920	65.0504
2904	64.9764
2888	65.0836
2872	65.0968
2856	65.0297
2840	65.0453
2824	65.06
2808	65.0488
2792	65.1733
2776	65.0774
2760	64.995
2744	65.0787
2728	65.1049
2712	64.9188
2696	65.1585
2680	64.9548
2664	65.0498
2648	65.0179
2632	64.9951
2616	64.9951
2600	64.931
2584	65.0693
2568	65.0046
2552	65.0564
2536	64.9601
2520	64.9314
2504	65.0526
2488	64.954
2472	65.0463
2456	64.9978
2440	64.9724
2424	65.2109
2408	64.9784
2392	65.0465
2376	64.8295
2360	64.9724
2344	64.9002
2328	64.8253
2312	64.9135
2296	64.8553
2280	64.9132
2264	64.8775
2248	64.8825
2232	64.9631
2216	64.7954
2200	64.8843
2184	64.9054
2168	64.8232
2152	64.9243
2136	64.8667
2120	64.854
2104	64.8584
2088	64.8475
2072	64.9312
2056	64.6972
2040	64.724
2024	64.8448
2008	64.7892
1992	64.6179
1976	64.6471
1960	64.7093
1944	64.786
1928	64.6245
1912	64.6931
1896	64.5499
1880	64.6256
1864	64.6217
1848	64.7105
1832	64.6399
1816	64.654
1800	64.6329
1784	64.5448
1768	64.5282
1752	64.4501
1736	64.3105
1720	64.4223
1704	64.5288
1688	64.5764
1672	64.6473
1656	64.3842
1640	64.4183
1624	64.3723
1608	64.396
1592	64.4021
1576	64.3797
1560	64.4369
1544	64.3271
1528	64.3058
1512	64.5043
1496	64.4273
1480	64.3798
1464	64.2451
1448	64.2753
1432	64.4155
1416	64.3564
1400	64.3021
1384	64.2455
1368	64.2391
1352	64.2243
1336	64.2747
1320	64.076
1304	64.1909
1288	64.2629
1272	64.0682
1256	64.0432
1240	64.1382
1224	64.1269
1208	64.0735
1192	64.1438
1176	63.9932
1160	64.0405
1144	64.0133
1128	63.8481
1112	63.917
1096	63.7571
1080	63.9202
1064	63.9055
1048	63.9626
1032	63.8764
1016	63.935
1000	64.0366
984	 63.9842
968	 63.9773
952	 63.8901
936	 64.1536
920	 64.243
904	 63.8898
888	 64.0686
872	 64.2768
856	 63.8927
840	 63.8244
824	 63.7108
808	 63.8326
792	 63.9175
776	 63.9957
760	 63.5589
744	 64.0007
728	 63.8109
712	 63.5457
696	 63.4881
680	 63.6234
664	 63.1604
648	 63.3306
632	 64.6075
616	 62.6673
600	 63.9303
584	 63.2245
568	 64.0088
552	 64.1041
536	 63.2481
520	 64.2354
504	 63.7123
488	 62.6398
472	 63.7311
456	 63.3779
440	 63.7173
424	 62.7059
408	 63.9954
392	 69.664
376	 78.5904
370	 71.9525