Folder: Masteroppgave/Bakgrunnsmateriale/MATLAB/FTIR/ftir_data/subAa/Mapping_121 (part 48)

File: BZ1503107-1_t111_cm-1.asc
PE IR       SPECTRUM    SPECTRUM    ASCII       PEDS        1.60
  -1
BZ3CF5~1.ASC
17/04/07
22:25:15.00
17/04/07
22:25:15.00
tln
$BZ1503107-1_t0111$<tbV0>[13.0,13.0,8.0,0.0,27,1,0]
370
64

2002,4.07
MIRTGS : RIGHTBACK : INTERNAL 2
MIR : ON : INTERNAL 2
OPTKBR

0.200000
8
8.000000
FILLER
RATIO
SPECTRUM
UNLOCKED 256

DOUBLE
64
COMBINED
1
0
0

1.000000
RATIO

1
0
TRUE
51149
0
LEFT NOT FITTED RIGHT NOT FITTED 0
NONE
NONE
15600
12
4.427000
51148
TRUE
1 0 8 72 0 0 0 0

15798

#HDR
-1
-1
#GR
CM-1
%T
2.38419e-05
0.0
5000
-1.000000
4631
8
74.5137
53.2446
#DATA
5000	64.359
4984	64.3195
4968	62.7538
4952	63.0136
4936	63.3599
4920	63.4561
4904	63.4311
4888	62.9964
4872	63.4348
4856	63.2865
4840	63.1255
4824	63.1059
4808	62.851
4792	63.01
4776	63.0431
4760	62.9472
4744	62.9679
4728	63.3936
4712	62.9698
4696	62.8869
4680	63.1826
4664	63.448
4648	63.3642
4632	63.413
4616	63.7129
4600	63.3776
4584	63.7826
4568	64.1604
4552	63.6664
4536	63.6028
4520	63.6814
4504	63.742
4488	63.5138
4472	64.4546
4456	65.4587
4440	56.3908
4424	56.0065
4408	64.9312
4392	64.3405
4376	64.5651
4360	64.1686
4344	63.8977
4328	63.9582
4312	63.4822
4296	63.5806
4280	63.4599
4264	63.5077
4248	63.2068
4232	63.4029
4216	63.2741
4200	63.1174
4184	62.9675
4168	63.2727
4152	63.0096
4136	63.1239
4120	63.2153
4104	63.4494
4088	63.4026
4072	63.5146
4056	63.3142
4040	63.3356
4024	63.3184
4008	63.5038
3992	63.3847
3976	62.9635
3960	63.2955
3944	63.3578
3928	63.4041
3912	63.4797
3896	63.1499
3880	63.7788
3864	63.1077
3848	63.6042
3832	63.4416
3816	63.2904
3800	63.5213
3784	63.2605
3768	63.4475
3752	63.3645
3736	63.2853
3720	63.2303
3704	63.0986
3688	63.3548
3672	63.408
3656	63.4031
3640	63.2356
3624	63.4462
3608	63.4732
3592	63.487
3576	63.4279
3560	63.5044
3544	63.3102
3528	63.2986
3512	63.2834
3496	63.1383
3480	63.3596
3464	63.1935
3448	63.1882
3432	63.3091
3416	63.43
3400	63.6683
3384	63.3858
3368	63.5412
3352	63.597
3336	63.2642
3320	63.3251
3304	63.2393
3288	63.2986
3272	63.0913
3256	63.2294
3240	63.0934
3224	63.0101
3208	63.0276
3192	63.1109
3176	63.2357
3160	63.1559
3144	63.123
3128	63.2579
3112	63.2756
3096	63.468
3080	63.3604
3064	63.1915
3048	63.129
3032	63.2386
3016	63.1284
3000	63.1486
2984	62.9171
2968	62.992
2952	62.9738
2936	62.9218
2920	62.9248
2904	62.8792
2888	63.0332
2872	63.1257
2856	63.146
2840	63.2392
2824	63.115
2808	63.0797
2792	63.032
2776	63.1075
2760	63.0298
2744	62.9389
2728	63.0594
2712	62.991
2696	62.9462
2680	63.0261
2664	63.0533
2648	62.9942
2632	63.0598
2616	63.0602
2600	63.2252
2584	63.0856
2568	62.966
2552	63.0125
2536	62.9844
2520	62.9397
2504	62.9514
2488	62.8705
2472	62.8798
2456	62.9031
2440	62.8866
2424	62.7307
2408	62.8675
2392	62.8723
2376	62.8878
2360	62.9105
2344	62.9499
2328	62.9553
2312	62.7327
2296	62.9004
2280	62.798
2264	62.6964
2248	62.6729
2232	62.6029
2216	62.7972
2200	62.8099
2184	62.7862
2168	62.6928
2152	62.6719
2136	62.8471
2120	62.7858
2104	62.7467
2088	62.7
2072	62.6283
2056	62.5773
2040	62.5203
2024	62.5169
2008	62.4775
1992	62.3835
1976	62.3831
1960	62.3904
1944	62.4942
1928	62.553
1912	62.4977
1896	62.5577
1880	62.5049
1864	62.4323
1848	62.4315
1832	62.3895
1816	62.3367
1800	62.3799
1784	62.4125
1768	62.2837
1752	62.2304
1736	61.9712
1720	62.036
1704	62.0814
1688	62.2973
1672	62.11
1656	62.1364
1640	62.2069
1624	62.0382
1608	62.1064
1592	62.0752
1576	62.0952
1560	61.979
1544	61.9284
1528	62.0535
1512	61.9799
1496	62.0607
1480	61.7005
1464	61.7914
1448	61.7249
1432	61.7729
1416	61.8499
1400	61.8845
1384	61.6484
1368	61.8404
1352	61.8321
1336	61.9001
1320	61.8705
1304	61.7666
1288	61.5314
1272	61.5718
1256	61.3703
1240	61.1958
1224	61.2886
1208	61.3754
1192	61.3435
1176	61.2308
1160	61.2025
1144	61.1531
1128	61.0927
1112	61.1321
1096	61.0523
1080	60.8643
1064	61.0513
1048	61.0692
1032	60.8931
1016	60.7405
1000	60.8225
984	 60.8612
968	 60.5999
952	 60.6362
936	 60.5368
920	 60.8268
904	 60.7974
888	 60.7224
872	 60.8873
856	 60.7784
840	 60.6754
824	 60.9836
808	 60.6838
792	 60.714
776	 60.5871
760	 60.4875
744	 60.6303
728	 60.1837
712	 60.4001
696	 60.2553
680	 60.2207
664	 60.3672
648	 59.8617
632	 59.8168
616	 59.4862
600	 59.7503
584	 59.4394
568	 59.5626
552	 61.056
536	 60.6706
520	 58.6777
504	 59.1225
488	 59.5594
472	 59.6287
456	 59.1781
440	 57.1917
424	 60.7962
408	 57.7355
392	 63.8535
376	 63.3992
370	 55.7547

File: BZ1503107-1_t112.asc
PE IR       SPECTRUM    SPECTRUM    ASCII       PEDS        1.60
  -1
BZDABA~1.ASC
17/04/07
22:29:52.00
17/04/07
22:30:18.00
tln
$BZ1503107-1_t0112$<tbV0>[10.4,13.0,8.0,0.0,27,1,0]
27.028
64

2002,4.07
MIRTGS : RIGHTBACK : INTERNAL 2
MIR : ON : INTERNAL 2
OPTKBR

0.200000
8
8.000000
FILLER
RATIO
SPECTRUM
UNLOCKED 256

DOUBLE
64
COMBINED
1
0
0

0.002000
RATIO

1
0
TRUE
51149
0
LEFT NOT FITTED RIGHT NOT FITTED 0
NONE
NONE
15600
12
4.427000
51148
TRUE
1 0 8 72 0 0 0 0

15798

#HDR
-1
-1
#GR
µM
%T
2.38419e-05
0.0
2.000000
0.002000
12515
8
74.9038
51.5284
#DATA
2.000000	 65.0947
2.084000	 64.7744
2.168000	 65.0131
2.252000	 54.5876
2.336000	 64.807
2.420000	 64.7605
2.504000	 65.0364
2.588000	 64.9938
2.672000	 65.165
2.756000	 65.0339
2.840000	 64.9506
2.924000	 65.0207
3.008000	 64.9156
3.092000	 64.9588
3.176000	 64.8862
3.260000	 64.6247
3.344000	 64.8071
3.428000	 64.687
3.512000	 64.8251
3.596000	 64.7217
3.680000	 64.6759
3.764000	 64.5447
3.848000	 64.493
3.932000	 64.6558
4.016000	 64.4853
4.100000	 64.541
4.184000	 64.4661
4.268000	 64.5385
4.352000	 64.3653
4.436000	 64.303
4.520000	 64.3852
4.604000	 64.2776
4.688000	 64.3011
4.772000	 64.1399
4.856000	 64.1557
4.940000	 64.0283
5.024000	 64.0228
5.108000	 64.0219
5.192000	 64.0528
5.276000	 63.9719
5.359999	 63.9386
5.444000	 63.9114
5.528000	 63.8533
5.612000	 63.9631
5.696000	 63.7315
5.780000	 63.556
5.864000	 63.6672
5.948000	 63.6835
6.032000	 63.6549
6.116000	 63.5811
6.200000	 63.4669
6.284000	 63.5648
6.368000	 63.5598
6.452000	 63.4617
6.536000	 63.4174
6.620000	 63.4538
6.704000	 63.5134
6.788000	 63.3646
6.872000	 63.3789
6.956000	 63.3018
7.040000	 63.3285
7.124000	 63.2655
7.208000	 63.1864
7.292000	 63.219
7.376000	 63.2515
7.460000	 63.279
7.544000	 63.3198
7.628000	 63.2619
7.712000	 63.1477
7.796000	 63.2026
7.880000	 63.0198
7.964000	 63.0453
8.048000	 62.9843
8.132000	 63.1194
8.216000	 63.1609
8.300000	 63.0301
8.384000	 62.8551
8.468000	 62.9998
8.552000	 62.7931
8.635999	 62.7561
8.719999	 62.7569
8.804000	 62.8777
8.888000	 62.7792
8.972000	 62.8768
9.056000	 62.9263
9.140000	 62.831
9.224000	 62.8592
9.308000	 62.7089
9.391999	 62.9153
9.475999	 62.6933
9.560000	 62.6674
9.644000	 62.6688
9.728000	 62.8137
9.812000	 62.6085
9.896000	 62.5942
9.980000	 62.6563
10.064	62.7112
10.148	62.8382
10.232	62.93
10.316	62.7289
10.4	62.6971
10.484	62.6438
10.568	62.6491
10.652	62.5271
10.736	62.5822
10.82	62.6585
10.904	62.7203
10.988	62.7163
11.072	62.7328
11.156	62.7947
11.24	62.7957
11.324	62.7553
11.408	62.5333
11.492	62.5183
11.576	62.6988
11.66	62.6652
11.744	62.6954
11.828	62.7092
11.912	62.4209
11.996	62.2025
12.08	62.4871
12.164	62.6354
12.248	62.5697
12.332	62.5502
12.416	62.4271
12.5	62.5642
12.584	62.5501
12.668	62.3403
12.752	62.4154
12.836	62.3797
12.92	62.3542
13.004	62.3583
13.088	62.2628
13.172	62.2832
13.256	62.2741
13.34	62.1789
13.424	62.1634
13.508	62.1609
13.592	62.1899
13.676	62.2122
13.76	62.2049
13.844	62.1604
13.928	62.1386
14.012	62.1028
14.096	62.0706
14.18	62.1441
14.264	62.1108
14.348	61.915
14.432	61.8654
14.516	61.8914
14.6	61.8226
14.684	61.865
14.768	61.9361
14.852	61.8491
14.936	61.6709
15.02	61.5535
15.104	61.6817
15.188	61.901
15.272	61.9155
15.356	61.7688
15.44	61.5845
15.524	61.397
15.608	61.2284
15.692	61.0346
15.776	60.8384
15.86	60.7986
15.944	61.062
16.028	61.6101
16.112	62.1059
16.196	62.1665
16.28	62.0224
16.364	62.2204
16.448	62.5812
16.532	62.4632
16.616	61.9186
16.7	61.6223
16.784	61.9415
16.868	62.6582
16.952	63.2194
17.036	63.1619
17.12	62.5347
17.204	61.7355
17.288	60.9703
17.372	60.2364
17.456	59.748
17.54	59.8933
17.624	60.6298
17.708	61.3607
17.792	61.5961
17.876	61.4621
17.96	61.3749
18.044	61.4993
18.128	61.7206
18.212	61.903
18.296	61.9745
18.38	61.9125
18.464	61.7806
18.548	61.6899
18.632	61.6348
18.716	61.5262
18.8	61.3841
18.884	61.3506
18.968	61.4772
19.052	61.6261
19.136	61.5956
19.22	61.3248
19.304	60.99
19.388	60.8489
19.472	61.0061
19.556	61.3367
19.64	61.6181
19.724	61.7084
19.808	61.6133
19.892	61.4422
19.976	61.3222
20.06	61.3332
20.144	61.4622
20.228	61.6109
20.312	61.6735
20.396	61.618
20.48	61.4967
20.564	61.3793
20.648	61.2885
20.732	61.1984
20.816	61.0724
20.9	60.8953
20.984	60.6694
21.068	60.4098
21.152	60.1707
21.236	60.0396
21.32	60.0831
21.404	60.2859
21.488	60.5408
21.572	60.7161
21.656	60.7214
21.74	60.55
21.824	60.2836
21.908	60.0561
21.992	59.9913
22.076	60.1458
22.16	60.4661
22.244	60.7881
22.328	60.9258
22.412	60.7757
22.496	60.3894
22.58	59.949
22.664	59.6696
22.748	59.701
22.832	60.0722
22.916	60.7025
23	61.4357
23.084	62.0962
23.168	62.5186
23.252	62.6123
23.336	62.3791
23.42	61.9062
23.504	61.3487
23.588	60.8688
23.672	60.5653
23.756	60.4313
23.84	60.354
23.924	60.1768
24.008	59.7883
24.092	59.1835
24.176	58.4777
24.26	57.8245
24.344	57.3321
24.428	57.0135
24.512	56.8331
24.596	56.7476
24.68	56.7756
24.764	57.0199
24.848	57.6046
24.932	58.5958
25.016	59.9182
25.1	61.3718
25.184	62.648
25.268	63.4828
25.352	63.7957
25.436	63.709
25.52	63.52
25.604	63.5752
25.688	64.2022
25.772	65.5298
25.856	67.3885
25.94	69.3393
26.024	70.7574
26.108	71.0596
26.192	69.9485
26.276	67.5262
26.36	64.3106
26.444	61.0222
26.528	58.3593
26.612	56.8018
26.696	56.5944
26.78	57.726
26.864	60.0347
26.948	63.3095
27.028	67.1133

File: BZ1503107-1_t112_cm-1.asc
PE IR       SPECTRUM    SPECTRUM    ASCII       PEDS        1.60
  -1
BZ4C7B~1.ASC
17/04/07
22:29:52.00
17/04/07
22:29:52.00
tln
$BZ1503107-1_t0112$<tbV0>[10.4,13.0,8.0,0.0,27,1,0]
370
64

2002,4.07
MIRTGS : RIGHTBACK : INTERNAL 2
MIR : ON : INTERNAL 2
OPTKBR

0.200000
8
8.000000
FILLER
RATIO
SPECTRUM
UNLOCKED 256

DOUBLE
64
COMBINED
1
0
0

1.000000
RATIO

1
0
TRUE
51149
0
LEFT NOT FITTED RIGHT NOT FITTED 0
NONE
NONE
15600
12
4.427000
51148
TRUE
1 0 8 72 0 0 0 0

15798

#HDR
-1
-1
#GR
CM-1
%T
2.38419e-05
0.0
5000
-1.000000
4631
8
75.5464
51.2072
#DATA
5000	65.0947
4984	65.1033
4968	65.3928
4952	64.8769
4936	64.5653
4920	65.2317
4904	65.1566
4888	64.8263
4872	65.0151
4856	65.0364
4840	65.1075
4824	64.7371
4808	64.7014
4792	64.7785
4776	64.3064
4760	64.799
4744	64.4886
4728	65.018
4712	65.0553
4696	64.5939
4680	64.7987
4664	64.8353
4648	65.148
4632	65.0623
4616	65.1485
4600	65.197
4584	64.6487
4568	65.2149
4552	65.283
4536	65.2049
4520	65.5393
4504	65.1923
4488	65.0419
4472	65.5009
4456	65.7716
4440	53.6914
4424	70.7187
4408	65.6709
4392	65.6068
4376	65.7375
4360	65.321
4344	65.096
4328	65.039
4312	65.2499
4296	64.9688
4280	64.8392
4264	65.0022
4248	64.7787
4232	65.1034
4216	65.1466
4200	65.0751
4184	64.8141
4168	65.0429
4152	64.7911
4136	64.5374
4120	64.7583
4104	65.1047
4088	65.1239
4072	65.0267
4056	65.0089
4040	64.848
4024	65.0543
4008	65.4365
3992	65.0128
3976	64.9599
3960	64.8493
3944	65.2381
3928	65.0157
3912	65.0787
3896	64.7899
3880	64.9933
3864	64.9936
3848	65.1916
3832	65.0864
3816	64.7544
3800	64.9146
3784	65.0599
3768	65.0881
3752	65.1172
3736	65.1137
3720	65.1309
3704	65.0069
3688	64.8987
3672	65.0549
3656	65.1966
3640	65.0273
3624	64.9902
3608	65.1456
3592	65.0704
3576	64.8941
3560	65.0251
3544	64.9637
3528	65.0468
3512	64.9042
3496	64.9707
3480	64.9107
3464	64.9242
3448	64.8501
3432	65.0936
3416	65.044
3400	65.0999
3384	64.7714
3368	65.2106
3352	64.9076
3336	65.0606
3320	64.9481
3304	64.8885
3288	64.9666
3272	64.757
3256	64.8831
3240	64.9561
3224	64.8063
3208	64.9125
3192	64.9239
3176	64.9482
3160	64.8496
3144	64.796
3128	64.8598
3112	64.8595
3096	64.9111
3080	64.9048
3064	64.7156
3048	64.8607
3032	64.8007
3016	64.738
3000	64.7581
2984	64.7998
2968	64.8032
2952	64.6947
2936	64.7045
2920	64.6667
2904	64.5427
2888	64.6704
2872	64.7161
2856	64.8057
2840	64.8752
2824	64.6327
2808	64.7528
2792	64.628
2776	64.6939
2760	64.7727
2744	64.6306
2728	64.6802
2712	64.7471
2696	64.5237
2680	64.6873
2664	64.5723
2648	64.7145
2632	64.577
2616	64.6501
2600	64.5147
2584	64.6017
2568	64.6266
2552	64.4833
2536	64.7246
2520	64.5122
2504	64.5489
2488	64.5116
2472	64.5344
2456	64.5293
2440	64.5415
2424	64.3904
2408	64.5192
2392	64.4603
2376	64.4641
2360	64.5709
2344	64.54
2328	64.4604
2312	64.4401
2296	64.3836
2280	64.3512
2264	64.344
2248	64.3439
2232	64.2661
2216	64.3895
2200	64.365
2184	64.2223
2168	64.2612
2152	64.2737
2136	64.2941
2120	64.2456
2104	64.2138
2088	64.1093
2072	64.3368
2056	64.1335
2040	64.0437
2024	64.0254
2008	64.0607
1992	64.0351
1976	64.0313
1960	64.0326
1944	63.963
1928	64.0532
1912	63.9265
1896	63.9719
1880	64.0112
1864	63.9688
1848	63.9034
1832	63.8636
1816	63.8294
1800	63.9145
1784	63.9309
1768	63.8432
1752	63.6523
1736	63.5684
1720	63.7123
1704	63.6645
1688	63.7594
1672	63.6675
1656	63.6323
1640	63.5568
1624	63.5334
1608	63.3829
1592	63.5594
1576	63.5663
1560	63.5602
1544	63.4921
1528	63.3978
1512	63.463
1496	63.5302
1480	63.3363
1464	63.3796
1448	63.3523
1432	63.2743
1416	63.4099
1400	63.2434
1384	63.1482
1368	63.2486
1352	63.2581
1336	63.2342
1320	63.2176
1304	63.1665
1288	63.1275
1272	62.9868
1256	63.0436
1240	62.9708
1224	63.1607
1208	63.1017
1192	62.8531
1176	62.899
1160	62.78
1144	62.7877
1128	62.7879
1112	62.9493
1096	62.8372
1080	62.8768
1064	62.9271
1048	62.6384
1032	62.7475
1016	62.5452
1000	62.6608
984	 62.8872
968	 62.7289
952	 62.6511
936	 62.5202
920	 62.7104
904	 62.7255
888	 62.8021
872	 62.4832
856	 62.657
840	 62.4527
824	 62.6428
808	 62.471
792	 62.4212
776	 62.3431
760	 62.2735
744	 62.1631
728	 62.2111
712	 62.08
696	 61.8824
680	 61.893
664	 61.5825
648	 61.6025
632	 60.7852
616	 62.0885
600	 61.6719
584	 62.5044
568	 60.444
552	 61.6889
536	 61.6111
520	 61.2802
504	 61.547
488	 61.4788
472	 60.0986
456	 60.0194
440	 59.6606
424	 60.8835
408	 56.8366
392	 63.5342
376	 56.9983
370	 67.1133

File: BZ1503107-1_t113.asc
PE IR       SPECTRUM    SPECTRUM    ASCII       PEDS        1.60
  -1
BZDABE~1.ASC
17/04/07
22:34:29.00
17/04/07
22:34:55.00
tln
$BZ1503107-1_t0113$<tbV0>[7.8,13.0,8.0,0.0,27,1,0]
27.028
64

2002,4.07
MIRTGS : RIGHTBACK : INTERNAL 2
MIR : ON : INTERNAL 2
OPTKBR

0.200000
8
8.000000
FILLER
RATIO
SPECTRUM
UNLOCKED 256

DOUBLE
64
COMBINED
1
0
0

0.002000
RATIO

1
0
TRUE
51149
0
LEFT NOT FITTED RIGHT NOT FITTED 0
NONE
NONE
15600
12
4.427000
51148
TRUE
1 0 8 72 0 0 0 0

15798

#HDR
-1
-1
#GR
µM
%T
2.38419e-05
0.0
2.000000
0.002000
12515
8
68.9041
50.3434
#DATA
2.000000	 65.4717
2.084000	 64.8241
2.168000	 65.0423
2.252000	 59.8258
2.336000	 65.0819
2.420000	 64.8362
2.504000	 64.8811
2.588000	 64.9388
2.672000	 65.0375
2.756000	 65.0849
2.840000	 64.8097
2.924000	 64.9083
3.008000	 65.0019
3.092000	 64.8565
3.176000	 64.7583
3.260000	 64.7317
3.344000	 64.7405
3.428000	 64.7787
3.512000	 64.7106
3.596000	 64.7809
3.680000	 64.6651
3.764000	 64.5585
3.848000	 64.6211
3.932000	 64.5729
4.016000	 64.415
4.100000	 64.4553
4.184000	 64.5421
4.268000	 64.3112
4.352000	 64.3353
4.436000	 64.3005
4.520000	 64.2914
4.604000	 64.1961
4.688000	 64.1457
4.772000	 64.0877
4.856000	 64.0544
4.940000	 64.038
5.024000	 64.0523
5.108000	 64.0139
5.192000	 64.0147
5.276000	 63.9643
5.359999	 63.813
5.444000	 63.8891
5.528000	 63.9096
5.612000	 63.9366
5.696000	 63.6713
5.780000	 63.6147
5.864000	 63.5989
5.948000	 63.6941
6.032000	 63.562
6.116000	 63.529
6.200000	 63.4011
6.284000	 63.5433
6.368000	 63.4247
6.452000	 63.3973
6.536000	 63.4301
6.620000	 63.4488
6.704000	 63.361
6.788000	 63.3246
6.872000	 63.2915
6.956000	 63.1821
7.040000	 63.2085
7.124000	 63.2415
7.208000	 63.115
7.292000	 63.1146
7.376000	 63.196
7.460000	 63.1465
7.544000	 63.2231
7.628000	 63.0726
7.712000	 63.1046
7.796000	 63.0809
7.880000	 62.9641
7.964000	 62.8539
8.048000	 62.9656
8.132000	 62.9756
8.216000	 62.983
8.300000	 62.9568
8.384000	 62.9522
8.468000	 62.8773
8.552000	 62.8171
8.635999	 62.8808
8.719999	 62.889
8.804000	 62.7378
8.888000	 62.7757
8.972000	 62.649
9.056000	 62.8196
9.140000	 62.7165
9.224000	 62.6428
9.308000	 62.4729
9.391999	 62.7413
9.475999	 62.618
9.560000	 62.6651
9.644000	 62.6675
9.728000	 62.5885
9.812000	 62.5479
9.896000	 62.5427
9.980000	 62.6827
10.064	62.5208
10.148	62.7042
10.232	62.6925
10.316	62.584
10.4	62.5041
10.484	62.6309
10.568	62.8319
10.652	62.478
10.736	62.5856
10.82	62.7501
10.904	62.7467
10.988	62.6991
11.072	62.7128
11.156	62.7104
11.24	62.5845
11.324	62.4614
11.408	62.4697
11.492	62.5404
11.576	62.5306
11.66	62.3753
11.744	62.414
11.828	62.4901
11.912	62.3989
11.996	62.546
12.08	62.557
12.164	62.5829
12.248	62.6935
12.332	62.5271
12.416	62.4203
12.5	62.665
12.584	62.7783
12.668	62.5233
12.752	62.376
12.836	62.2912
12.92	62.1714
13.004	62.1886
13.088	62.135
13.172	62.0364
13.256	62.0282
13.34	62.1118
13.424	62.1738
13.508	62.1122
13.592	62.1714
13.676	62.2503
13.76	62.1104
13.844	62.1006
13.928	62.287
14.012	62.1573
14.096	61.8719
14.18	61.8346
14.264	62.0041
14.348	62.1646
14.432	62.2568
14.516	62.4606
14.6	62.6027
14.684	62.4709
14.768	62.2066
14.852	61.9597
14.936	61.7786
15.02	61.644
15.104	61.7201
15.188	62.0624
15.272	62.1394
15.356	61.6998
15.44	61.324
15.524	61.4358
15.608	61.7413
15.692	61.6664
15.776	61.0271
15.86	60.3486
15.944	60.2251
16.028	60.5805
16.112	60.9441
16.196	61.1679
16.28	61.4203
16.364	61.5731
16.448	61.3019
16.532	60.9127
16.616	61.0767
16.7	61.7938
16.784	62.439
16.868	62.577
16.952	62.3151
17.036	61.9877
17.12	61.7567
17.204	61.5604
17.288	61.3117
17.372	60.9704
17.456	60.5975
17.54	60.4567
17.624	60.7575
17.708	61.2793
17.792	61.5886
17.876	61.6101
17.96	61.6355
18.044	61.815
18.128	61.9816
18.212	61.9781
18.296	61.8858
18.38	61.8761
18.464	61.961
18.548	61.9693
18.632	61.7228
18.716	61.2564
18.8	60.8131
18.884	60.5913
18.968	60.575
19.052	60.6507
19.136	60.7616
19.22	60.9143
19.304	61.1337
19.388	61.4188
19.472	61.7176
19.556	61.9292
19.64	61.9564
19.724	61.7663
19.808	61.4201
19.892	61.0297
19.976	60.6924
20.06	60.4503
20.144	60.306
20.228	60.2514
20.312	60.2911
20.396	60.4244
20.48	60.6174
20.564	60.8098
20.648	60.9785
20.732	61.1516
20.816	61.356
20.9	61.5571
20.984	61.6768
21.068	61.6766
21.152	61.6117
21.236	61.5894
21.32	61.6724
21.404	61.827
21.488	61.9616
21.572	62.009
21.656	61.9458
21.74	61.7722
21.824	61.499
21.908	61.1625
21.992	60.8422
22.076	60.638
22.16	60.6085
22.244	60.711
22.328	60.8141
22.412	60.7739
22.496	60.5199
22.58	60.1096
22.664	59.6902
22.748	59.4291
22.832	59.4278
22.916	59.6989
23	60.1561
23.084	60.6666
23.168	61.0859
23.252	61.3191
23.336	61.3401
23.42	61.1886
23.504	60.959
23.588	60.751
23.672	60.6213
23.756	60.561
23.84	60.4879
23.924	60.2964
24.008	59.9263
24.092	59.4087
24.176	58.865
24.26	58.4751
24.344	58.3928
24.428	58.6577
24.512	59.2133
24.596	59.931
24.68	60.6736
24.764	61.3571
24.848	61.9825
24.932	62.6037
25.016	63.2745
25.1	64.0218
25.184	64.8014
25.268	65.528
25.352	66.145
25.436	66.6713
25.52	67.1874
25.604	67.7594
25.688	68.3628
25.772	68.8184
25.856	68.8235
25.94	68.0289
26.024	66.1898
26.108	63.3425
26.192	59.8077
26.276	56.1355
26.36	52.988
26.444	50.9431
26.528	50.3498
26.612	51.1861
26.696	53.2368
26.78	56.2125
26.864	59.8412
26.948	63.8623
27.028	67.7303

File: BZ1503107-1_t113_cm-1.asc
PE IR       SPECTRUM    SPECTRUM    ASCII       PEDS        1.60
  -1
BZ4CFA~1.ASC
17/04/07
22:34:29.00
17/04/07
22:34:29.00
tln
$BZ1503107-1_t0113$<tbV0>[7.8,13.0,8.0,0.0,27,1,0]
370
64

2002,4.07
MIRTGS : RIGHTBACK : INTERNAL 2
MIR : ON : INTERNAL 2
OPTKBR

0.200000
8
8.000000
FILLER
RATIO
SPECTRUM
UNLOCKED 256

DOUBLE
64
COMBINED
1
0
0

1.000000
RATIO

1
0
TRUE
51149
0
LEFT NOT FITTED RIGHT NOT FITTED 0
NONE
NONE
15600
12
4.427000
51148
TRUE
1 0 8 72 0 0 0 0

15798

#HDR
-1
-1
#GR
CM-1
%T
2.38419e-05
0.0
5000
-1.000000
4631
8
68.8773
50.346
#DATA
5000	65.4717
4984	65.4577
4968	64.8572
4952	65.2935
4936	64.9033
4920	64.6082
4904	65.036
4888	65.0508
4872	64.6468
4856	65.0623
4840	65.2566
4824	64.7279
4808	64.6995
4792	64.7203
4776	64.3151
4760	64.6854
4744	64.7766
4728	64.9038
4712	64.6983
4696	64.4724
4680	64.6053
4664	64.6239
4648	64.9538
4632	64.8808
4616	64.9622
4600	65.1619
4584	65.0675
4568	65.2309
4552	65.2181
4536	65.2706
4520	65.0864
4504	64.9864
4488	65.2085
4472	64.9774
4456	67.0424
4440	59.0791
4424	63.6132
4408	65.777
4392	65.578
4376	65.9188
4360	65.1205
4344	65.1539
4328	65.1636
4312	65.1817
4296	65.016
4280	65.0539
4264	64.9904
4248	65.0479
4232	64.6529
4216	64.967
4200	65.0235
4184	64.9654
4168	65.0292
4152	64.8261
4136	64.7469
4120	64.8209
4104	65.2086
4088	64.777
4072	65.0789
4056	65.1622
4040	64.7311
4024	64.9354
4008	65.0467
3992	64.9002
3976	64.9007
3960	64.9943
3944	65.0301
3928	64.9191
3912	64.8373
3896	64.8026
3880	65.349
3864	64.9388
3848	64.8124
3832	65.0225
3816	64.9539
3800	65.193
3784	64.9269
3768	64.9198
3752	64.8112
3736	65.0081
3720	64.9658
3704	64.8857
3688	65.0639
3672	65.0567
3656	64.9749
3640	64.9182
3624	65.0356
3608	65.0628
3592	64.9375
3576	64.868
3560	64.9811
3544	64.9006
3528	64.8157
3512	64.9899
3496	64.8983
3480	65.068
3464	65.108
3448	64.8655
3432	64.953
3416	64.9591
3400	65.0505
3384	64.8894
3368	64.8992
3352	64.928
3336	65.0021
3320	64.8365
3304	64.8614
3288	64.8917
3272	64.8876
3256	64.8964
3240	64.9245
3224	64.6924
3208	64.7647
3192	64.6963
3176	64.7691
3160	64.9245
3144	64.6878
3128	64.7786
3112	64.9086
3096	64.8603
3080	64.9405
3064	64.8375
3048	64.7576
3032	64.8219
3016	64.8226
3000	64.7266
2984	64.7155
2968	64.6184
2952	64.6673
2936	64.851
2920	64.7524
2904	64.4936
2888	64.7923
2872	64.6549
2856	64.6668
2840	64.7146
2824	64.664
2808	64.7007
2792	64.6402
2776	64.7331
2760	64.7058
2744	64.5539
2728	64.6385
2712	64.676
2696	64.6108
2680	64.5865
2664	64.5688
2648	64.637
2632	64.5095
2616	64.5224
2600	64.6146
2584	64.4945
2568	64.5509
2552	64.5569
2536	64.6109
2520	64.4274
2504	64.5705
2488	64.4014
2472	64.4195
2456	64.5111
2440	64.4533
2424	64.2282
2408	64.3437
2392	64.5537
2376	64.3845
2360	64.3907
2344	64.3173
2328	64.3683
2312	64.2051
2296	64.3553
2280	64.3907
2264	64.2659
2248	64.2816
2232	64.2009
2216	64.2841
2200	64.3403
2184	64.2845
2168	64.1454
2152	64.2057
2136	64.142
2120	64.1608
2104	64.0897
2088	64.1076
2072	64.1443
2056	64.0973
2040	64.0363
2024	64.0381
2008	63.9515
1992	64.0809
1976	64.0098
1960	64.0232
1944	63.9627
1928	64.0153
1912	63.9191
1896	63.9633
1880	63.8737
1864	63.8333
1848	63.8989
1832	63.8576
1816	63.8138
1800	63.8105
1784	63.9315
1768	63.7982
1752	63.6851
1736	63.622
1720	63.547
1704	63.6174
1688	63.6951
1672	63.655
1656	63.5482
1640	63.5674
1624	63.4118
1608	63.4237
1592	63.5403
1576	63.3787
1560	63.4253
1544	63.4714
1528	63.4333
1512	63.4495
1496	63.329
1480	63.2814
1464	63.3016
1448	63.3676
1432	63.1448
1416	63.2345
1400	63.208
1384	63.1082
1368	63.1192
1352	63.2027
1336	63.1498
1320	63.2398
1304	63.0891
1288	63.0547
1272	62.9652
1256	62.8543
1240	62.9849
1224	62.989
1208	62.9792
1192	62.9432
1176	62.8275
1160	62.8932
1144	62.8814
1128	62.7336
1112	62.6132
1096	62.8047
1080	62.6201
1064	62.7541
1048	62.5716
1032	62.584
1016	62.5057
1000	62.6322
984	 62.7492
968	 62.5932
952	 62.7371
936	 62.4678
920	 62.7752
904	 62.7135
888	 62.5376
872	 62.5188
856	 62.3736
840	 62.4054
824	 62.5328
808	 62.4288
792	 62.6693
776	 62.2063
760	 62.0462
744	 62.1654
728	 62.1605
712	 62.0324
696	 62.186
680	 62.407
664	 61.6379
648	 61.3395
632	 60.6049
616	 61.273
600	 61.4787
584	 61.749
568	 60.658
552	 61.967
536	 61.5998
520	 60.9383
504	 61.2639
488	 60.6456
472	 61.5916
456	 61.0735
440	 59.4717
424	 60.7574
408	 59.1964
392	 67.1247
376	 50.9231
370	 67.7303