Folder: Masteroppgave/Bakgrunnsmateriale/MATLAB/FTIR/ftir_data/subAa/Mapping_121 (part 26)

File: BZ1503107-1_t56_cm-1.asc
PE IR       SPECTRUM    SPECTRUM    ASCII       PEDS        1.60
  -1
BZ6EA3~1.ASC
17/04/07
17:50:29.00
17/04/07
17:50:29.00
tln
$BZ1503107-1_t0056$<tbV0>[13.0,0.0,8.0,0.0,27,1,0]
370
64

2002,4.07
MIRTGS : RIGHTBACK : INTERNAL 2
MIR : ON : INTERNAL 2
OPTKBR

0.200000
8
8.000000
FILLER
RATIO
SPECTRUM
UNLOCKED 256

DOUBLE
64
COMBINED
1
0
0

1.000000
RATIO

1
0
TRUE
51149
0
LEFT NOT FITTED RIGHT NOT FITTED 0
NONE
NONE
15600
12
4.427000
51148
TRUE
1 0 8 72 0 0 0 0

15798

#HDR
-1
-1
#GR
CM-1
%T
2.38419e-05
0.0
5000
-1.000000
4631
8
74.067
47.3123
#DATA
5000	65.603
4984	64.8291
4968	64.3886
4952	65.388
4936	64.8078
4920	65.6088
4904	65.5574
4888	65.1309
4872	64.9767
4856	64.9703
4840	64.7479
4824	64.925
4808	64.7339
4792	65.0748
4776	64.9291
4760	64.7434
4744	64.6169
4728	64.5046
4712	64.5621
4696	64.6417
4680	65.2624
4664	64.7989
4648	65.2368
4632	64.9685
4616	65.0758
4600	65.2674
4584	65.2629
4568	65.0166
4552	65.1749
4536	64.9836
4520	65.0136
4504	65.7486
4488	64.9757
4472	65.0744
4456	63.8963
4440	69.7538
4424	56.3802
4408	65.4955
4392	65.3751
4376	65.1326
4360	65.989
4344	65.15
4328	65.3729
4312	65.4849
4296	65.5003
4280	65.1409
4264	65.0502
4248	64.7033
4232	65.1189
4216	64.96
4200	64.9552
4184	65.1003
4168	64.6741
4152	65.0407
4136	65.0916
4120	65.1578
4104	65.1356
4088	65.1607
4072	65.0566
4056	65.0846
4040	65.1903
4024	65.1406
4008	65.1782
3992	65.3184
3976	65.1951
3960	65.1401
3944	65.1567
3928	65.182
3912	65.1337
3896	65.5234
3880	65.3362
3864	65.2071
3848	65.2764
3832	65.193
3816	65.1923
3800	65.0347
3784	65.0862
3768	64.9766
3752	65.0894
3736	65.1021
3720	65.1492
3704	65.2919
3688	65.2087
3672	65.0976
3656	65.34
3640	65.2653
3624	65.1346
3608	65.0229
3592	65.0417
3576	64.9633
3560	65.0826
3544	65.0334
3528	64.986
3512	65.1314
3496	65.1944
3480	65.1214
3464	65.1034
3448	65.2556
3432	64.9869
3416	65.0588
3400	64.9714
3384	65.0988
3368	65.1002
3352	64.8095
3336	64.9699
3320	65.064
3304	65.2045
3288	65.0639
3272	65.0514
3256	65.1875
3240	65.0608
3224	65.0598
3208	65.1548
3192	65.1375
3176	65.0273
3160	65.2152
3144	65.0008
3128	65.2391
3112	64.9462
3096	65.2156
3080	64.949
3064	65.1005
3048	65.008
3032	64.9041
3016	65.0467
3000	65.1278
2984	65.0193
2968	64.7907
2952	64.8653
2936	64.8955
2920	64.982
2904	64.9523
2888	64.8357
2872	64.8954
2856	64.8151
2840	64.9686
2824	64.9812
2808	65.0677
2792	64.9417
2776	64.9789
2760	64.8633
2744	65.0368
2728	64.8985
2712	64.9045
2696	64.9304
2680	64.932
2664	64.9631
2648	64.9551
2632	64.8776
2616	64.8597
2600	64.9315
2584	64.8837
2568	64.8329
2552	64.8648
2536	64.8968
2520	64.887
2504	64.883
2488	64.9409
2472	64.8146
2456	64.8494
2440	64.8895
2424	64.9508
2408	64.8038
2392	64.9338
2376	64.7342
2360	64.8062
2344	64.784
2328	64.8014
2312	64.8458
2296	64.8088
2280	64.8013
2264	64.8141
2248	64.7728
2232	64.647
2216	64.7498
2200	64.769
2184	64.6951
2168	64.6075
2152	64.7267
2136	64.684
2120	64.7203
2104	64.7475
2088	64.5654
2072	64.6917
2056	64.6986
2040	64.6847
2024	64.5732
2008	64.6253
1992	64.6144
1976	64.5062
1960	64.5448
1944	64.5153
1928	64.515
1912	64.4572
1896	64.4256
1880	64.5761
1864	64.5458
1848	64.4967
1832	64.4912
1816	64.4718
1800	64.4136
1784	64.4578
1768	64.2821
1752	64.2958
1736	64.2047
1720	64.2008
1704	64.3268
1688	64.289
1672	64.1804
1656	64.2484
1640	64.2416
1624	64.2303
1608	64.2972
1592	64.1743
1576	64.2683
1560	64.109
1544	64.1739
1528	64.212
1512	64.2657
1496	64.3791
1480	64.2108
1464	64.0541
1448	64.1938
1432	64.1587
1416	64.0322
1400	64.1381
1384	64.0679
1368	64.0372
1352	64.0651
1336	64.0726
1320	64.0509
1304	64.1211
1288	64.0791
1272	64.0409
1256	63.9154
1240	64.0055
1224	63.8106
1208	63.9469
1192	63.8557
1176	63.8418
1160	63.6569
1144	63.7962
1128	63.7799
1112	63.5573
1096	63.8166
1080	63.6705
1064	63.6274
1048	63.5758
1032	63.666
1016	63.7095
1000	63.8352
984	 63.7588
968	 63.8208
952	 63.7593
936	 63.6951
920	 63.7383
904	 63.9596
888	 63.727
872	 63.5846
856	 63.7681
840	 63.8434
824	 63.8221
808	 63.6182
792	 63.6428
776	 63.6222
760	 63.517
744	 63.2962
728	 63.3369
712	 63.5295
696	 63.4464
680	 63.5382
664	 63.2676
648	 63.4612
632	 63.1947
616	 63.3973
600	 62.9739
584	 63.6946
568	 63.0442
552	 63.9985
536	 64.2975
520	 63.0186
504	 62.6001
488	 62.0047
472	 63.8542
456	 63.205
440	 62.193
424	 62.8226
408	 62.4743
392	 62.3353
376	 52.7977
370	 54.8006

File: BZ1503107-1_t57.asc
PE IR       SPECTRUM    SPECTRUM    ASCII       PEDS        1.60
  -1
BZ2563~1.ASC
17/04/07
17:55:06.00
17/04/07
17:55:33.00
tln
$BZ1503107-1_t0057$<tbV0>[10.4,0.0,8.0,0.0,27,1,0]
27.028
64

2002,4.07
MIRTGS : RIGHTBACK : INTERNAL 2
MIR : ON : INTERNAL 2
OPTKBR

0.200000
8
8.000000
FILLER
RATIO
SPECTRUM
UNLOCKED 256

DOUBLE
64
COMBINED
1
0
0

0.002000
RATIO

1
0
TRUE
51149
0
LEFT NOT FITTED RIGHT NOT FITTED 0
NONE
NONE
15600
12
4.427000
51148
TRUE
1 0 8 72 0 0 0 0

15798

#HDR
-1
-1
#GR
µM
%T
2.38419e-05
0.0
2.000000
0.002000
12515
8
73.6957
37.7458
#DATA
2.000000	 64.6047
2.084000	 64.9988
2.168000	 65.0265
2.252000	 55.9644
2.336000	 65.0843
2.420000	 65.0005
2.504000	 65.1475
2.588000	 65.1718
2.672000	 65.1491
2.756000	 65.3238
2.840000	 65.2398
2.924000	 65.0147
3.008000	 64.978
3.092000	 64.9662
3.176000	 65.1274
3.260000	 65.1145
3.344000	 65.0206
3.428000	 64.9271
3.512000	 64.9728
3.596000	 64.9868
3.680000	 65.028
3.764000	 64.9164
3.848000	 64.9232
3.932000	 64.8991
4.016000	 65.0518
4.100000	 64.942
4.184000	 64.9571
4.268000	 64.842
4.352000	 64.7772
4.436000	 64.7423
4.520000	 64.7805
4.604000	 64.69
4.688000	 64.6428
4.772000	 64.7976
4.856000	 64.6416
4.940000	 64.6656
5.024000	 64.6724
5.108000	 64.5376
5.192000	 64.5245
5.276000	 64.5703
5.359999	 64.5981
5.444000	 64.4827
5.528000	 64.4454
5.612000	 64.4286
5.696000	 64.386
5.780000	 64.2013
5.864000	 64.3119
5.948000	 64.3553
6.032000	 64.2238
6.116000	 64.2178
6.200000	 64.2268
6.284000	 64.2218
6.368000	 64.1633
6.452000	 64.1795
6.536000	 64.1768
6.620000	 64.2728
6.704000	 64.1255
6.788000	 64.2167
6.872000	 64.1713
6.956000	 64.1286
7.040000	 64.2286
7.124000	 64.0779
7.208000	 64.0855
7.292000	 64.1055
7.376000	 64.1412
7.460000	 64.0289
7.544000	 64.1034
7.628000	 64.0765
7.712000	 64.1093
7.796000	 64.0297
7.880000	 64.0716
7.964000	 63.8704
8.048000	 63.8871
8.132000	 63.8713
8.216000	 63.793
8.300000	 63.9873
8.384000	 63.8609
8.468000	 63.9094
8.552000	 63.9524
8.635999	 63.7587
8.719999	 63.7332
8.804000	 63.9104
8.888000	 63.7038
8.972000	 63.7188
9.056000	 63.9204
9.140000	 63.8464
9.224000	 63.6838
9.308000	 63.9017
9.391999	 63.7539
9.475999	 63.8024
9.560000	 64.0065
9.644000	 63.7574
9.728000	 63.7288
9.812000	 63.869
9.896000	 63.8753
9.980000	 63.8647
10.064	63.9057
10.148	64.0132
10.232	63.881
10.316	63.7152
10.4	63.6386
10.484	63.5864
10.568	63.6115
10.652	63.5484
10.736	63.6974
10.82	63.7758
10.904	63.7852
10.988	63.7373
11.072	63.781
11.156	63.6934
11.24	63.9653
11.324	63.9881
11.408	63.7444
11.492	63.5887
11.576	63.6601
11.66	63.6752
11.744	63.6225
11.828	63.6494
11.912	63.706
11.996	63.7086
12.08	63.8244
12.164	63.9619
12.248	63.8462
12.332	63.7111
12.416	63.6156
12.5	63.5901
12.584	63.6273
12.668	63.7739
12.752	63.7539
12.836	63.6497
12.92	63.6062
13.004	63.7532
13.088	63.7636
13.172	63.7007
13.256	63.5547
13.34	63.358
13.424	63.3453
13.508	63.4429
13.592	63.4823
13.676	63.5091
13.76	63.578
13.844	63.5984
13.928	63.4128
14.012	63.3173
14.096	63.4318
14.18	63.4163
14.264	63.3391
14.348	63.3483
14.432	63.4418
14.516	63.6081
14.6	63.5857
14.684	63.4823
14.768	63.5894
14.852	63.7127
14.936	63.6878
15.02	63.4303
15.104	63.1365
15.188	63.2883
15.272	63.6806
15.356	63.8021
15.44	63.6293
15.524	63.3375
15.608	63.2183
15.692	63.3253
15.776	63.2154
15.86	62.8322
15.944	62.7366
16.028	63.1774
16.112	63.6676
16.196	63.5911
16.28	62.9653
16.364	62.3527
16.448	62.1498
16.532	62.3067
16.616	62.5702
16.7	62.7361
16.784	62.7908
16.868	62.8659
16.952	63.0594
17.036	63.333
17.12	63.6062
17.204	63.8451
17.288	63.9896
17.372	63.9508
17.456	63.7471
17.54	63.4954
17.624	63.2306
17.708	62.9281
17.792	62.7
17.876	62.7341
17.96	62.991
18.044	63.2021
18.128	63.186
18.212	63.0093
18.296	62.8231
18.38	62.7145
18.464	62.724
18.548	62.8426
18.632	62.9785
18.716	63.071
18.8	63.2028
18.884	63.4645
18.968	63.7564
19.052	63.8592
19.136	63.7395
19.22	63.5856
19.304	63.5406
19.388	63.5477
19.472	63.5327
19.556	63.5463
19.64	63.6501
19.724	63.8012
19.808	63.9616
19.892	64.2628
19.976	64.8825
20.06	65.7186
20.144	66.3143
20.228	66.2138
20.312	65.3989
20.396	64.3232
20.48	63.5228
20.564	63.2112
20.648	63.2197
20.732	63.2592
20.816	63.1962
20.9	63.0982
20.984	63.1064
21.068	63.284
21.152	63.578
21.236	63.8671
21.32	64.0303
21.404	63.9884
21.488	63.7314
21.572	63.3293
21.656	62.9121
21.74	62.6268
21.824	62.559
21.908	62.6852
21.992	62.895
22.076	63.0507
22.16	63.0621
22.244	62.9247
22.328	62.7009
22.412	62.4753
22.496	62.3083
22.58	62.2142
22.664	62.1763
22.748	62.173
22.832	62.2052
22.916	62.2964
23	62.4886
23.084	62.8092
23.168	63.2324
23.252	63.6845
23.336	64.083
23.42	64.3761
23.504	64.5756
23.588	64.725
23.672	64.8493
23.756	64.9323
23.84	64.9176
23.924	64.7569
24.008	64.4682
24.092	64.1417
24.176	63.8729
24.26	63.7039
24.344	63.5854
24.428	63.4208
24.512	63.1645
24.596	62.886
24.68	62.7703
24.764	63.0413
24.848	63.8032
24.932	65.0307
25.016	66.5701
25.1	68.1752
25.184	69.6494
25.268	70.9197
25.352	71.9984
25.436	72.8901
25.52	73.5117
25.604	73.6836
25.688	73.1769
25.772	71.8437
25.856	69.7168
25.94	66.9742
26.024	63.9422
26.108	61.0312
26.192	58.6473
26.276	57.0759
26.36	56.4373
26.444	56.5451
26.528	56.9154
26.612	56.878
26.696	55.7517
26.78	53.0673
26.864	48.7787
26.948	43.3043
27.028	37.7458

File: BZ1503107-1_t57_cm-1.asc
PE IR       SPECTRUM    SPECTRUM    ASCII       PEDS        1.60
  -1
BZ6FA3~1.ASC
17/04/07
17:55:06.00
17/04/07
17:55:06.00
tln
$BZ1503107-1_t0057$<tbV0>[10.4,0.0,8.0,0.0,27,1,0]
370
64

2002,4.07
MIRTGS : RIGHTBACK : INTERNAL 2
MIR : ON : INTERNAL 2
OPTKBR

0.200000
8
8.000000
FILLER
RATIO
SPECTRUM
UNLOCKED 256

DOUBLE
64
COMBINED
1
0
0

1.000000
RATIO

1
0
TRUE
51149
0
LEFT NOT FITTED RIGHT NOT FITTED 0
NONE
NONE
15600
12
4.427000
51148
TRUE
1 0 8 72 0 0 0 0

15798

#HDR
-1
-1
#GR
CM-1
%T
2.38419e-05
0.0
5000
-1.000000
4631
8
73.6914
37.7458
#DATA
5000	64.6047
4984	66.0217
4968	63.5753
4952	64.0452
4936	65.6381
4920	64.7748
4904	65.1963
4888	65.1232
4872	65.2098
4856	64.9838
4840	64.9695
4824	65.075
4808	64.6781
4792	64.7169
4776	65.4908
4760	64.8248
4744	64.8324
4728	64.7957
4712	65.0436
4696	64.9544
4680	64.9829
4664	64.9066
4648	64.9446
4632	65.3678
4616	65.1463
4600	65.1376
4584	65.3929
4568	64.7642
4552	65.6083
4536	65.371
4520	64.8466
4504	65.3465
4488	65.2342
4472	64.9543
4456	65.4485
4440	57.0001
4424	60.0324
4408	64.7476
4392	64.8344
4376	65.4666
4360	65.7083
4344	65.025
4328	64.9137
4312	65.16
4296	65.3117
4280	65.1041
4264	65.0058
4248	64.8338
4232	65.0997
4216	64.931
4200	65.1357
4184	65.135
4168	64.7473
4152	65.0905
4136	64.9403
4120	65.2044
4104	65.0164
4088	65.0288
4072	64.9361
4056	65.0124
4040	65.0132
4024	65.1235
4008	65.0581
3992	65.2324
3976	65.2168
3960	65.1177
3944	65.0744
3928	64.9579
3912	65.2776
3896	64.9606
3880	65.2154
3864	65.1719
3848	64.9624
3832	65.1856
3816	65.0364
3800	64.9842
3784	65.2621
3768	65.0273
3752	65.0966
3736	65.1133
3720	65.2199
3704	65.3359
3688	65.2051
3672	65.1318
3656	65.137
3640	65.2958
3624	65.2052
3608	65.3246
3592	65.1454
3576	65.1669
3560	65.1502
3544	65.2667
3528	65.0597
3512	65.2569
3496	65.0193
3480	64.9723
3464	65.0366
3448	65.1339
3432	64.9221
3416	64.9598
3400	64.9872
3384	64.9765
3368	65.1379
3352	64.8427
3336	64.866
3320	64.8921
3304	65.2395
3288	64.9646
3272	65.0739
3256	65.0781
3240	65.0264
3224	65.1996
3208	65.1065
3192	65.2534
3176	65.1206
3160	64.9446
3144	65.1626
3128	65.0756
3112	64.9616
3096	65.1344
3080	65.0308
3064	65.1277
3048	64.9474
3032	65.0339
3016	64.9419
3000	65.2051
2984	65.1097
2968	64.7601
2952	64.9835
2936	64.8756
2920	64.9202
2904	64.9311
2888	64.9511
2872	64.8836
2856	65.0248
2840	64.8638
2824	64.8881
2808	64.8645
2792	64.9738
2776	64.9435
2760	64.9545
2744	64.8223
2728	64.9069
2712	65.1055
2696	64.9454
2680	64.899
2664	64.9663
2648	64.8085
2632	64.9501
2616	64.9593
2600	64.9136
2584	64.9095
2568	64.804
2552	64.835
2536	64.8673
2520	64.8915
2504	64.8961
2488	65.0345
2472	64.8907
2456	64.8474
2440	64.9243
2424	64.9204
2408	64.7099
2392	64.9675
2376	64.7412
2360	64.7274
2344	64.8375
2328	64.7658
2312	64.7011
2296	64.7609
2280	64.7136
2264	64.8498
2248	64.6723
2232	64.7737
2216	64.7756
2200	64.811
2184	64.6901
2168	64.5863
2152	64.6268
2136	64.678
2120	64.6452
2104	64.6754
2088	64.6494
2072	64.4525
2056	64.6184
2040	64.6886
2024	64.6669
2008	64.6874
1992	64.6553
1976	64.602
1960	64.5619
1944	64.6115
1928	64.5382
1912	64.5993
1896	64.5765
1880	64.5371
1864	64.5919
1848	64.574
1832	64.4361
1816	64.4503
1800	64.5041
1784	64.4526
1768	64.41
1752	64.403
1736	64.1499
1720	64.3157
1704	64.3099
1688	64.2479
1672	64.3508
1656	64.2037
1640	64.2813
1624	64.1496
1608	64.2517
1592	64.2188
1576	64.104
1560	64.1865
1544	64.135
1528	64.1676
1512	64.2687
1496	64.1043
1480	64.2958
1464	64.2402
1448	64.1453
1432	64.107
1416	64.2068
1400	64.0714
1384	64.0707
1368	64.08
1352	64.0431
1336	64.0358
1320	64.1119
1304	64.0338
1288	64.0265
1272	64.0591
1256	63.8741
1240	63.8763
1224	63.917
1208	63.9416
1192	63.858
1176	63.9446
1160	63.7528
1144	63.7706
1128	63.7763
1112	63.7491
1096	63.8944
1080	63.7657
1064	63.7548
1048	63.9722
1032	63.6619
1016	63.8251
1000	63.847
984	 63.9932
968	 63.7156
952	 63.6263
936	 63.5788
920	 63.7774
904	 63.7864
888	 64.0283
872	 63.6161
856	 63.6619
840	 63.7072
824	 63.9411
808	 63.6463
792	 63.7167
776	 63.59
760	 63.7138
744	 63.3647
728	 63.5539
712	 63.3562
696	 63.3606
680	 63.4912
664	 63.2594
648	 63.6539
632	 63.0044
616	 63.3491
600	 62.6875
584	 63.6163
568	 63.2921
552	 63.2017
536	 63.0094
520	 63.5732
504	 64.0512
488	 63.4495
472	 63.705
456	 62.7375
440	 62.1708
424	 64.72
408	 63.1718
392	 73.4595
376	 56.9575
370	 37.7458

File: BZ1503107-1_t58.asc
PE IR       SPECTRUM    SPECTRUM    ASCII       PEDS        1.60
  -1
BZ2963~1.ASC
17/04/07
17:59:44.00
17/04/07
18:00:10.00
tln
$BZ1503107-1_t0058$<tbV0>[7.8,0.0,8.0,0.0,27,1,0]
27.028
64

2002,4.07
MIRTGS : RIGHTBACK : INTERNAL 2
MIR : ON : INTERNAL 2
OPTKBR

0.200000
8
8.000000
FILLER
RATIO
SPECTRUM
UNLOCKED 256

DOUBLE
64
COMBINED
1
0
0

0.002000
RATIO

1
0
TRUE
51149
0
LEFT NOT FITTED RIGHT NOT FITTED 0
NONE
NONE
15600
12
4.427000
51148
TRUE
1 0 8 72 0 0 0 0

15798

#HDR
-1
-1
#GR
µM
%T
2.38419e-05
0.0
2.000000
0.002000
12515
8
82.9054
49.0161
#DATA
2.000000	 65.79
2.084000	 64.6565
2.168000	 65.1403
2.252000	 74.4314
2.336000	 65.2023
2.420000	 64.8145
2.504000	 65.0792
2.588000	 65.1149
2.672000	 65.0721
2.756000	 64.9401
2.840000	 65.1584
2.924000	 65.0976
3.008000	 64.9977
3.092000	 65.1929
3.176000	 65.0727
3.260000	 65.0212
3.344000	 65.0559
3.428000	 64.875
3.512000	 65.0457
3.596000	 64.8908
3.680000	 64.8824
3.764000	 64.8179
3.848000	 64.8254
3.932000	 64.7833
4.016000	 64.9529
4.100000	 64.8161
4.184000	 64.8469
4.268000	 64.7804
4.352000	 64.8508
4.436000	 64.729
4.520000	 64.7849
4.604000	 64.5961
4.688000	 64.6849
4.772000	 64.713
4.856000	 64.6527
4.940000	 64.4692
5.024000	 64.5991
5.108000	 64.5484
5.192000	 64.5552
5.276000	 64.4698
5.359999	 64.5273
5.444000	 64.4555
5.528000	 64.4694
5.612000	 64.387
5.696000	 64.3493
5.780000	 64.2279
5.864000	 64.1699
5.948000	 64.1977
6.032000	 64.2304
6.116000	 64.1554
6.200000	 64.2358
6.284000	 64.1442
6.368000	 64.108
6.452000	 64.1384
6.536000	 64.1502
6.620000	 64.1475
6.704000	 64.1974
6.788000	 64.1589
6.872000	 64.1144
6.956000	 64.0272
7.040000	 64.1345
7.124000	 64.0677
7.208000	 63.9934
7.292000	 64.1369
7.376000	 63.9549
7.460000	 64.0143
7.544000	 63.9961
7.628000	 63.9382
7.712000	 64.0812
7.796000	 63.9587
7.880000	 63.8275
7.964000	 63.8565
8.048000	 63.872
8.132000	 63.818
8.216000	 63.8617
8.300000	 63.8441
8.384000	 63.7317
8.468000	 63.8109
8.552000	 63.6985
8.635999	 63.6878
8.719999	 63.7304
8.804000	 63.5569
8.888000	 63.7775
8.972000	 63.696
9.056000	 63.8014
9.140000	 63.8088
9.224000	 63.7065
9.308000	 63.6642
9.391999	 63.6531
9.475999	 63.6274
9.560000	 63.7133
9.644000	 63.766
9.728000	 63.7111
9.812000	 63.7305
9.896000	 63.7094
9.980000	 63.6864
10.064	63.7107
10.148	63.7745
10.232	63.6809
10.316	63.7157
10.4	63.5677
10.484	63.5402
10.568	63.5962
10.652	63.7009
10.736	63.6267
10.82	63.6234
10.904	63.5149
10.988	63.6111
11.072	63.6576
11.156	63.4941
11.24	63.5348
11.324	63.6606
11.408	63.6917
11.492	63.6375
11.576	63.6363
11.66	63.6286
11.744	63.5891
11.828	63.7246
11.912	63.7818
11.996	63.7934
12.08	63.7287
12.164	63.5869
12.248	63.4858
12.332	63.4641
12.416	63.4568
12.5	63.3898
12.584	63.4576
12.668	63.5713
12.752	63.5665
12.836	63.5024
12.92	63.4081
13.004	63.3706
13.088	63.3694
13.172	63.2692
13.256	63.1618
13.34	63.1735
13.424	63.2728
13.508	63.3334
13.592	63.24
13.676	63.0718
13.76	63.0519
13.844	63.2145
13.928	63.317
14.012	63.3099
14.096	63.201
14.18	63.0276
14.264	63.0057
14.348	63.1381
14.432	63.2888
14.516	63.4494
14.6	63.4599
14.684	63.4278
14.768	63.4558
14.852	63.2651
14.936	63.0776
15.02	63.2075
15.104	63.4018
15.188	63.4834
15.272	63.4759
15.356	63.3901
15.44	63.2836
15.524	63.1721
15.608	63.1543
15.692	63.2681
15.776	63.2291
15.86	63.0284
15.944	63.1062
16.028	63.561
16.112	63.9312
16.196	63.7733
16.28	63.1741
16.364	62.6945
16.448	62.6827
16.532	62.8823
16.616	62.975
16.7	63.0248
16.784	63.1407
16.868	63.2199
16.952	63.1897
17.036	63.1602
17.12	63.2154
17.204	63.2361
17.288	63.0876
17.372	62.9234
17.456	63.036
17.54	63.3994
17.624	63.6588
17.708	63.6471
17.792	63.5551
17.876	63.5375
17.96	63.5169
18.044	63.4515
18.128	63.4154
18.212	63.3683
18.296	63.1158
18.38	62.5979
18.464	62.0438
18.548	61.7398
18.632	61.7353
18.716	61.8587
18.8	61.964
18.884	62.086
18.968	62.3354
19.052	62.7215
19.136	63.0896
19.22	63.2514
19.304	63.1671
19.388	62.9829
19.472	62.9163
19.556	63.1124
19.64	63.5579
19.724	64.0629
19.808	64.3285
19.892	64.1171
19.976	63.4797
20.06	62.7927
20.144	62.4529
20.228	62.5164
20.312	62.7021
20.396	62.7361
20.48	62.624
20.564	62.5575
20.648	62.629
20.732	62.7162
20.816	62.648
20.9	62.4344
20.984	62.275
21.068	62.35
21.152	62.6385
21.236	62.9459
21.32	63.0994
21.404	63.093
21.488	63.0431
21.572	63.0444
21.656	63.0971
21.74	63.1483
21.824	63.1655
21.908	63.1732
21.992	63.2205
22.076	63.3348
22.16	63.5081
22.244	63.7018
22.328	63.8714
22.412	63.9722
22.496	63.9527
22.58	63.7878
22.664	63.4899
22.748	63.1127
22.832	62.7364
22.916	62.433
23	62.2759
23.084	62.3182
23.168	62.5821
23.252	63.047
23.336	63.65
23.42	64.306
23.504	64.9378
23.588	65.4843
23.672	65.8847
23.756	66.0529
23.84	65.8802
23.924	65.2549
24.008	64.1321
24.092	62.5868
24.176	60.8014
24.26	58.9926
24.344	57.3526
24.428	55.9791
24.512	54.8769
24.596	54.0414
24.68	53.5047
24.764	53.3256
24.848	53.5836
24.932	54.3037
25.016	55.3835
25.1	56.6085
25.184	57.6648
25.268	58.2654
25.352	58.2694
25.436	57.6558
25.52	56.5117
25.604	54.9793
25.688	53.2831
25.772	51.6619
25.856	50.3093
25.94	49.3801
26.024	49.0172
26.108	49.3508
26.192	50.5756
26.276	52.9036
26.36	56.4595
26.444	61.1099
26.528	66.4186
26.612	71.6913
26.696	76.209
26.78	79.4469
26.864	81.3239
26.948	82.2349
27.028	82.9054

File: BZ1503107-1_t58_cm-1.asc
PE IR       SPECTRUM    SPECTRUM    ASCII       PEDS        1.60
  -1
BZ60B3~1.ASC
17/04/07
17:59:44.00
17/04/07
17:59:44.00
tln
$BZ1503107-1_t0058$<tbV0>[7.8,0.0,8.0,0.0,27,1,0]
370
64

2002,4.07
MIRTGS : RIGHTBACK : INTERNAL 2
MIR : ON : INTERNAL 2
OPTKBR

0.200000
8
8.000000
FILLER
RATIO
SPECTRUM
UNLOCKED 256

DOUBLE
64
COMBINED
1
0
0

1.000000
RATIO

1
0
TRUE
51149
0
LEFT NOT FITTED RIGHT NOT FITTED 0
NONE
NONE
15600
12
4.427000
51148
TRUE
1 0 8 72 0 0 0 0

15798

#HDR
-1
-1
#GR
CM-1
%T
2.38419e-05
0.0
5000
-1.000000
4631
8
82.9054
49.0258
#DATA
5000	65.79
4984	65.9927
4968	65.4088
4952	64.1325
4936	66.8293
4920	65.8243
4904	64.5994
4888	64.143
4872	64.967
4856	64.4588
4840	64.9497
4824	64.534
4808	64.9838
4792	64.7888
4776	64.9013
4760	64.9038
4744	64.8383
4728	64.9836
4712	64.7497
4696	64.7394
4680	64.9878
4664	64.6004
4648	65.0381
4632	64.9556
4616	65.0794
4600	64.9163
4584	64.7566
4568	64.8956
4552	65.5391
4536	64.8416
4520	65.4018
4504	65.1481
4488	64.5473
4472	64.1778
4456	64.9842
4440	74.3438
4424	60.0621
4408	64.6495
4392	65.0004
4376	65.1313
4360	65.5882
4344	65.1851
4328	65.2947
4312	64.9853
4296	65.0304
4280	65.2392
4264	65.2431
4248	65.4857
4232	65.3759
4216	65.0469
4200	65.0089
4184	65.0094
4168	65.217
4152	64.9522
4136	64.823
4120	65.0647
4104	65.1337
4088	65.1024
4072	64.6785
4056	65.2424
4040	64.8649
4024	64.925
4008	65.0604
3992	65.0581
3976	65.4079
3960	65.1853
3944	65.4421
3928	65.0393
3912	65.4148
3896	65.1079
3880	65.3323
3864	65.1146
3848	65.1865
3832	65.0936
3816	65.1859
3800	65.2231
3784	65.2792
3768	65.1727
3752	64.9286
3736	65.0408
3720	65.1307
3704	65.2973
3688	65.1269
3672	65.0762
3656	65.1046
3640	65.124
3624	65.0032
3608	65.2242
3592	64.9926
3576	65.1148
3560	65.0831
3544	65.0386
3528	65.1083
3512	65.1371
3496	65.2009
3480	65.2806
3464	64.8751
3448	65.161
3432	65.007
3416	65.0083
3400	64.9684
3384	65.0805
3368	65.1794
3352	64.8721
3336	65.0639
3320	64.9647
3304	65.1481
3288	64.9174
3272	64.9178
3256	65.1777
3240	65.1464
3224	65.0808
3208	65.1013
3192	65.0337
3176	65.0656
3160	65.0161
3144	64.9886
3128	64.8941
3112	65.0596
3096	65.2228
3080	64.977
3064	65.0611
3048	64.8421
3032	65.0549
3016	64.986
3000	65.045
2984	65.0765
2968	64.8014
2952	64.9238
2936	64.9381
2920	64.8913
2904	64.9542
2888	65.0154
2872	64.9258
2856	64.9021
2840	64.9392
2824	64.9685
2808	64.9376
2792	64.9092
2776	64.9676
2760	64.9653
2744	64.9351
2728	64.9042
2712	64.8849
2696	64.9124
2680	64.9112
2664	64.8854
2648	64.9331
2632	64.8321
2616	64.85
2600	64.816
2584	64.8802
2568	64.7952
2552	64.855
2536	64.7377
2520	64.979
2504	64.9162
2488	64.962
2472	64.7069
2456	64.8643
2440	64.8134
2424	64.9254
2408	64.8178
2392	64.8379
2376	64.8893
2360	64.7605
2344	64.7982
2328	64.6861
2312	64.8301
2296	64.8249
2280	64.7409
2264	64.7927
2248	64.6715
2232	64.7322
2216	64.8494
2200	64.7046
2184	64.6316
2168	64.5806
2152	64.6881
2136	64.7183
2120	64.8065
2104	64.6438
2088	64.6343
2072	64.5553
2056	64.6374
2040	64.669
2024	64.469
2008	64.7192
1992	64.5794
1976	64.56
1960	64.5962
1944	64.5595
1928	64.5367
1912	64.5985
1896	64.4793
1880	64.4995
1864	64.5121
1848	64.467
1832	64.4565
1816	64.4604
1800	64.3257
1784	64.3927
1768	64.4236
1752	64.3987
1736	64.2254
1720	64.1959
1704	64.1778
1688	64.1584
1672	64.2196
1656	64.253
1640	64.2586
1624	64.226
1608	64.1757
1592	64.1523
1576	64.03
1560	64.1341
1544	64.1192
1528	64.1486
1512	64.1488
1496	64.1979
1480	64.1588
1464	64.1172
1448	64.0418
1432	64.0535
1416	64.1126
1400	64.0165
1384	63.9919
1368	64.1334
1352	63.9332
1336	63.9864
1320	63.9921
1304	63.9438
1288	63.9231
1272	63.8721
1256	63.8561
1240	63.8436
1224	63.8021
1208	63.8706
1192	63.727
1176	63.7568
1160	63.6564
1144	63.6493
1128	63.7309
1112	63.7734
1096	63.8421
1080	63.7692
1064	63.6632
1048	63.6908
1032	63.6827
1016	63.6946
1000	63.7029
984	 63.76
968	 63.6814
952	 63.5453
936	 63.706
920	 63.5931
904	 63.673
888	 63.563
872	 63.6536
856	 63.6078
840	 63.7828
824	 63.632
808	 63.4698
792	 63.5244
776	 63.448
760	 63.2912
744	 63.2932
728	 63.0323
712	 63.2817
696	 63.1722
680	 63.4397
664	 63.3126
648	 63.2939
632	 63.1109
616	 63.5303
600	 62.9981
584	 63.2181
568	 63.6265
552	 63.4178
536	 61.7679
520	 63.2531
504	 64.3077
488	 62.6077
472	 62.7754
456	 63.18
440	 63.2085
424	 65.4665
408	 54.9024
392	 56.6677
376	 70.7155
370	 82.9054