Folder: Masteroppgave/Bakgrunnsmateriale/MATLAB/FTIR/ftir_data/subAa/Mapping_121 (part 15)

File: BZ1503107-1_t29.asc
PE IR       SPECTRUM    SPECTRUM    ASCII       PEDS        1.60
  -1
BZ2D69~1.ASC
17/04/07
15:37:34.00
17/04/07
15:38:00.00
tln
$BZ1503107-1_t0029$<tbV0>[-2.6,-7.8,8.0,0.0,27,1,0]
27.028
64

2002,4.07
MIRTGS : RIGHTBACK : INTERNAL 2
MIR : ON : INTERNAL 2
OPTKBR

0.200000
8
8.000000
FILLER
RATIO
SPECTRUM
UNLOCKED 256

DOUBLE
64
COMBINED
1
0
0

0.002000
RATIO

1
0
TRUE
51149
0
LEFT NOT FITTED RIGHT NOT FITTED 0
NONE
NONE
15600
12
4.427000
51148
TRUE
1 0 8 72 0 0 0 0

15798

#HDR
-1
-1
#GR
µM
%T
2.38419e-05
0.0
2.000000
0.002000
12515
8
77.1468
49.761
#DATA
2.000000	 65.9522
2.084000	 64.5441
2.168000	 65.0746
2.252000	 66.1059
2.336000	 64.9496
2.420000	 65.162
2.504000	 65.0794
2.588000	 65.1525
2.672000	 65.0975
2.756000	 65.1678
2.840000	 65.0665
2.924000	 65.1344
3.008000	 65.1419
3.092000	 65.0252
3.176000	 65.1571
3.260000	 65.1027
3.344000	 65.022
3.428000	 64.9795
3.512000	 64.9458
3.596000	 65.0652
3.680000	 65.011
3.764000	 65.1438
3.848000	 64.9807
3.932000	 64.9556
4.016000	 64.8613
4.100000	 64.9891
4.184000	 65.0683
4.268000	 65.0283
4.352000	 64.9045
4.436000	 64.8854
4.520000	 64.8133
4.604000	 64.828
4.688000	 64.8192
4.772000	 64.7616
4.856000	 64.7468
4.940000	 64.7714
5.024000	 64.608
5.108000	 64.7559
5.192000	 64.7115
5.276000	 64.7298
5.359999	 64.6519
5.444000	 64.6913
5.528000	 64.6981
5.612000	 64.5547
5.696000	 64.4276
5.780000	 63.9847
5.864000	 64.4981
5.948000	 64.4172
6.032000	 64.5011
6.116000	 64.4667
6.200000	 64.3293
6.284000	 64.3856
6.368000	 64.3818
6.452000	 64.2084
6.536000	 64.3253
6.620000	 64.5216
6.704000	 64.3778
6.788000	 64.3258
6.872000	 64.2615
6.956000	 64.5137
7.040000	 64.3254
7.124000	 64.3737
7.208000	 64.0449
7.292000	 64.3142
7.376000	 64.1969
7.460000	 64.2703
7.544000	 64.1513
7.628000	 64.1285
7.712000	 64.2228
7.796000	 64.1448
7.880000	 64.1575
7.964000	 63.9814
8.048000	 64.0841
8.132000	 63.8948
8.216000	 64.045
8.300000	 63.9981
8.384000	 63.9931
8.468000	 64.0011
8.552000	 63.7798
8.635999	 63.8508
8.719999	 63.898
8.804000	 63.9847
8.888000	 63.8551
8.972000	 63.951
9.056000	 64.0747
9.140000	 63.9224
9.224000	 64.0373
9.308000	 64.0316
9.391999	 63.8938
9.475999	 64.0259
9.560000	 64.0495
9.644000	 63.9528
9.728000	 64.0227
9.812000	 64.2463
9.896000	 64.1023
9.980000	 63.9278
10.064	64.0807
10.148	64.0887
10.232	64.0459
10.316	63.8725
10.4	64.0036
10.484	64.0605
10.568	64.0511
10.652	63.9389
10.736	64.0491
10.82	64.2404
10.904	64.0803
10.988	64.1215
11.072	64.1018
11.156	64.0234
11.24	63.9922
11.324	63.9457
11.408	64.1556
11.492	64.171
11.576	64.0972
11.66	63.9885
11.744	64.0965
11.828	63.9731
11.912	63.9618
11.996	63.8425
12.08	63.9642
12.164	64.1014
12.248	63.9896
12.332	64.0971
12.416	63.9763
12.5	64.0685
12.584	64.31
12.668	64.1584
12.752	63.9443
12.836	63.8856
12.92	63.9387
13.004	63.901
13.088	63.9075
13.172	63.8033
13.256	63.6099
13.34	63.6181
13.424	63.6439
13.508	63.6951
13.592	63.7613
13.676	63.8026
13.76	63.9355
13.844	63.8386
13.928	63.4796
14.012	63.189
14.096	63.172
14.18	63.5885
14.264	63.9348
14.348	64.031
14.432	64.2056
14.516	63.7061
14.6	62.8323
14.684	62.9398
14.768	63.5284
14.852	63.7009
14.936	63.6309
15.02	63.5728
15.104	63.4787
15.188	63.4838
15.272	63.6175
15.356	63.6787
15.44	63.7375
15.524	63.79
15.608	63.5877
15.692	63.3069
15.776	63.2967
15.86	63.4671
15.944	63.5821
16.028	63.5769
16.112	63.4537
16.196	63.193
16.28	62.9146
16.364	62.9552
16.448	63.3854
16.532	63.813
16.616	64.0155
16.7	64.1257
16.784	64.1324
16.868	63.9329
16.952	63.6322
17.036	63.4301
17.12	63.4245
17.204	63.587
17.288	63.8068
17.372	63.9666
17.456	64.0124
17.54	63.9502
17.624	63.8305
17.708	63.723
17.792	63.6713
17.876	63.6949
17.96	63.814
18.044	64.0105
18.128	64.162
18.212	64.119
18.296	63.8464
18.38	63.454
18.464	63.1119
18.548	62.9336
18.632	62.9067
18.716	62.9547
18.8	63.0589
18.884	63.2721
18.968	63.6149
19.052	64.0047
19.136	64.3073
19.22	64.4273
19.304	64.3459
19.388	64.1121
19.472	63.8277
19.556	63.5953
19.64	63.4676
19.724	63.4431
19.808	63.4906
19.892	63.5573
19.976	63.5742
20.06	63.5012
20.144	63.3634
20.228	63.2288
20.312	63.1337
20.396	63.0506
20.48	62.9566
20.564	62.8999
20.648	62.9682
20.732	63.1769
20.816	63.4116
20.9	63.5031
20.984	63.3652
21.068	63.0721
21.152	62.7965
21.236	62.6844
21.32	62.7722
21.404	62.9859
21.488	63.1991
21.572	63.2953
21.656	63.2118
21.74	62.9556
21.824	62.5913
21.908	62.2107
21.992	61.9032
22.076	61.7389
22.16	61.7567
22.244	61.9607
22.328	62.3085
22.412	62.7148
22.496	63.059
22.58	63.2301
22.664	63.1698
22.748	62.9032
22.832	62.5207
22.916	62.1472
23	61.8959
23.084	61.8194
23.168	61.8875
23.252	62.0086
23.336	62.0695
23.42	61.9867
23.504	61.742
23.588	61.3811
23.672	60.9712
23.756	60.5694
23.84	60.2133
23.924	59.937
24.008	59.784
24.092	59.8062
24.176	60.0408
24.26	60.465
24.344	60.9558
24.428	61.3325
24.512	61.4274
24.596	61.1886
24.68	60.718
24.764	60.242
24.848	60.0272
24.932	60.2727
25.016	60.9909
25.1	62.025
25.184	63.0413
25.268	63.6809
25.352	63.7203
25.436	63.2002
25.52	62.4361
25.604	61.8527
25.688	61.8148
25.772	62.4345
25.856	63.5194
25.94	64.631
26.024	65.2347
26.108	64.9391
26.192	63.7328
26.276	61.9748
26.36	60.2371
26.444	59.1239
26.528	59.0783
26.612	60.2485
26.696	62.5491
26.78	65.7136
26.864	69.4689
26.948	73.5114
27.028	77.1468

File: BZ1503107-1_t29_cm-1.asc
PE IR       SPECTRUM    SPECTRUM    ASCII       PEDS        1.60
  -1
BZ6133~1.ASC
17/04/07
15:37:34.00
17/04/07
15:37:34.00
tln
$BZ1503107-1_t0029$<tbV0>[-2.6,-7.8,8.0,0.0,27,1,0]
370
64

2002,4.07
MIRTGS : RIGHTBACK : INTERNAL 2
MIR : ON : INTERNAL 2
OPTKBR

0.200000
8
8.000000
FILLER
RATIO
SPECTRUM
UNLOCKED 256

DOUBLE
64
COMBINED
1
0
0

1.000000
RATIO

1
0
TRUE
51149
0
LEFT NOT FITTED RIGHT NOT FITTED 0
NONE
NONE
15600
12
4.427000
51148
TRUE
1 0 8 72 0 0 0 0

15798

#HDR
-1
-1
#GR
CM-1
%T
2.38419e-05
0.0
5000
-1.000000
4631
8
77.1468
49.0199
#DATA
5000	65.9522
4984	64.5982
4968	64.5597
4952	64.7003
4936	64.9945
4920	65.3204
4904	64.546
4888	64.8585
4872	64.7633
4856	65.0065
4840	65.0154
4824	65.1747
4808	64.385
4792	64.714
4776	65.13
4760	65.0716
4744	64.673
4728	64.7876
4712	65.1335
4696	64.7565
4680	64.8533
4664	64.6771
4648	64.9331
4632	64.6389
4616	65.0701
4600	64.9256
4584	64.5732
4568	64.9363
4552	65.0864
4536	65.0971
4520	64.8482
4504	65.334
4488	65.3738
4472	64.4013
4456	65.3211
4440	66.2816
4424	58.9927
4408	68.9883
4392	65.3894
4376	65.2938
4360	64.9508
4344	64.6076
4328	64.6255
4312	65.0846
4296	65.151
4280	64.9261
4264	64.9813
4248	64.7856
4232	65.0749
4216	65.0757
4200	65.0938
4184	64.9389
4168	65.2314
4152	64.972
4136	65.2074
4120	64.9741
4104	64.9093
4088	64.8638
4072	64.8991
4056	65.0851
4040	64.9899
4024	65.0319
4008	64.9691
3992	65.1099
3976	65.0303
3960	64.9193
3944	65.0614
3928	65.211
3912	65.4192
3896	65.1271
3880	65.1416
3864	65.1525
3848	65.279
3832	65.0885
3816	65.0827
3800	65.4724
3784	64.9367
3768	65.3453
3752	65.068
3736	65.145
3720	65.3416
3704	65.3027
3688	65.0667
3672	65.1876
3656	65.3052
3640	65.2076
3624	65.2144
3608	65.3294
3592	65.1961
3576	64.9342
3560	65.1106
3544	65.0527
3528	64.919
3512	65.1981
3496	65.1283
3480	65.0821
3464	65.0905
3448	65.013
3432	65.1181
3416	65.042
3400	65.2367
3384	65.3414
3368	64.9604
3352	65.3876
3336	65.0849
3320	65.1513
3304	64.9718
3288	64.9648
3272	65.1749
3256	64.9546
3240	65.0244
3224	65.0796
3208	65.0789
3192	64.9399
3176	65.1107
3160	64.9989
3144	65.0792
3128	65.0361
3112	65.0429
3096	65.056
3080	65.1256
3064	65.1541
3048	65.0534
3032	65.1016
3016	65.0133
3000	64.9619
2984	64.9966
2968	64.7155
2952	64.953
2936	64.8719
2920	65.0026
2904	64.9292
2888	64.9271
2872	64.96
2856	65.0132
2840	64.9531
2824	65.0072
2808	65.0581
2792	65.1595
2776	65.0947
2760	65.1044
2744	65.1138
2728	64.9927
2712	64.9823
2696	65.1104
2680	64.9353
2664	65.0022
2648	64.9094
2632	64.956
2616	64.9262
2600	64.9629
2584	64.9217
2568	64.9636
2552	64.8786
2536	64.9703
2520	65.0752
2504	64.9885
2488	64.8582
2472	64.9543
2456	64.8462
2440	64.9743
2424	64.9028
2408	64.9883
2392	65.0449
2376	64.861
2360	64.7625
2344	65.0301
2328	64.993
2312	64.9788
2296	64.8798
2280	64.8582
2264	64.8217
2248	64.8614
2232	64.8936
2216	64.8386
2200	64.8872
2184	64.7879
2168	64.7509
2152	64.8502
2136	64.7839
2120	64.7405
2104	64.7203
2088	64.7985
2072	64.8573
2056	64.7602
2040	64.7533
2024	64.7697
2008	64.7625
1992	64.5818
1976	64.7681
1960	64.753
1944	64.749
1928	64.7422
1912	64.6693
1896	64.7316
1880	64.719
1864	64.6113
1848	64.725
1832	64.607
1816	64.6336
1800	64.7904
1784	64.5592
1768	64.5658
1752	64.4533
1736	63.9006
1720	64.2545
1704	64.5263
1688	64.5754
1672	64.6019
1656	64.4817
1640	64.415
1624	64.3555
1608	64.4052
1592	64.3694
1576	64.3077
1560	64.5276
1544	64.269
1528	64.3336
1512	64.5141
1496	64.3379
1480	64.3195
1464	64.2478
1448	64.2609
1432	64.4009
1416	64.287
1400	64.3532
1384	64.097
1368	64.2388
1352	64.1389
1336	64.1909
1320	64.1292
1304	64.1904
1288	64.155
1272	64.1668
1256	63.9875
1240	64.0644
1224	63.9315
1208	64.03
1192	63.9925
1176	63.924
1160	63.8611
1144	63.9735
1128	63.8766
1112	63.9536
1096	63.9167
1080	64.0104
1064	63.8819
1048	64.0799
1032	63.9561
1016	64.2635
1000	63.97
984	 64.0965
968	 63.8732
952	 64.0712
936	 63.9668
920	 64.1488
904	 64.1141
888	 63.9326
872	 64.1464
856	 64.0355
840	 63.9644
824	 64.1166
808	 64.0496
792	 64.274
776	 63.924
760	 63.8363
744	 63.6461
728	 63.9029
712	 63.134
696	 64.0759
680	 63.0999
664	 63.5295
648	 63.7287
632	 63.3879
616	 63.0519
600	 64.0873
584	 63.4281
568	 63.8579
552	 64.1495
536	 62.9157
520	 64.4278
504	 63.5188
488	 62.9446
472	 62.7256
456	 62.1204
440	 62.9842
424	 61.3956
408	 61.4292
392	 62.5215
376	 59.9287
370	 77.1468

File: BZ1503107-1_t30.asc
PE IR       SPECTRUM    SPECTRUM    ASCII       PEDS        1.60
  -1
BZ2947~1.ASC
17/04/07
15:42:11.00
17/04/07
15:42:37.00
tln
$BZ1503107-1_t0030$<tbV0>[-5.2,-7.8,8.0,0.0,27,1,0]
27.028
64

2002,4.07
MIRTGS : RIGHTBACK : INTERNAL 2
MIR : ON : INTERNAL 2
OPTKBR

0.200000
8
8.000000
FILLER
RATIO
SPECTRUM
UNLOCKED 256

DOUBLE
64
COMBINED
1
0
0

0.002000
RATIO

1
0
TRUE
51149
0
LEFT NOT FITTED RIGHT NOT FITTED 0
NONE
NONE
15600
12
4.427000
51148
TRUE
1 0 8 72 0 0 0 0

15798

#HDR
-1
-1
#GR
µM
%T
2.38419e-05
0.0
2.000000
0.002000
12515
8
76.241
43.9576
#DATA
2.000000	 64.9832
2.084000	 64.5599
2.168000	 64.5061
2.252000	 65.8875
2.336000	 64.4847
2.420000	 64.7148
2.504000	 65.1749
2.588000	 64.7692
2.672000	 64.9689
2.756000	 64.7801
2.840000	 64.7674
2.924000	 65.0404
3.008000	 64.8439
3.092000	 64.8214
3.176000	 64.8026
3.260000	 64.921
3.344000	 64.7515
3.428000	 64.743
3.512000	 64.79
3.596000	 64.7679
3.680000	 64.8715
3.764000	 64.785
3.848000	 64.7386
3.932000	 64.7123
4.016000	 64.5839
4.100000	 64.7308
4.184000	 64.8372
4.268000	 64.7883
4.352000	 64.6201
4.436000	 64.6982
4.520000	 64.6079
4.604000	 64.7067
4.688000	 64.602
4.772000	 64.5988
4.856000	 64.6441
4.940000	 64.709
5.024000	 64.6311
5.108000	 64.6384
5.192000	 64.5575
5.276000	 64.462
5.359999	 64.5442
5.444000	 64.53
5.528000	 64.4418
5.612000	 64.5137
5.696000	 64.3414
5.780000	 63.8638
5.864000	 64.2955
5.948000	 64.3378
6.032000	 64.3062
6.116000	 64.2607
6.200000	 64.2112
6.284000	 64.2441
6.368000	 64.2025
6.452000	 64.2007
6.536000	 64.2989
6.620000	 64.3534
6.704000	 64.2983
6.788000	 64.0957
6.872000	 64.17
6.956000	 64.2671
7.040000	 64.3217
7.124000	 64.1264
7.208000	 64.1257
7.292000	 64.1836
7.376000	 64.0856
7.460000	 64.1024
7.544000	 64.1676
7.628000	 64.0977
7.712000	 64.0664
7.796000	 64.0148
7.880000	 64.0368
7.964000	 63.9735
8.048000	 64.045
8.132000	 64.0837
8.216000	 64.0661
8.300000	 63.8384
8.384000	 63.8069
8.468000	 63.8783
8.552000	 63.7719
8.635999	 63.7136
8.719999	 63.8524
8.804000	 63.9536
8.888000	 63.889
8.972000	 63.9476
9.056000	 63.7234
9.140000	 63.8008
9.224000	 64.0296
9.308000	 63.8351
9.391999	 63.9559
9.475999	 63.9564
9.560000	 63.8922
9.644000	 63.8096
9.728000	 64.0215
9.812000	 64.1079
9.896000	 64.0568
9.980000	 63.9734
10.064	63.9883
10.148	63.7805
10.232	63.9713
10.316	63.8208
10.4	63.9815
10.484	64.1311
10.568	64.0448
10.652	63.935
10.736	63.9722
10.82	63.9767
10.904	64.0952
10.988	63.9864
11.072	63.9552
11.156	63.9224
11.24	63.8363
11.324	63.9632
11.408	63.9935
11.492	64.0018
11.576	64.0721
11.66	63.9373
11.744	63.9375
11.828	63.8847
11.912	63.9735
11.996	64.0302
12.08	63.6778
12.164	63.5849
12.248	63.7912
12.332	63.8646
12.416	63.7567
12.5	63.6879
12.584	63.8221
12.668	63.8648
12.752	63.8482
12.836	63.8239
12.92	63.7793
13.004	63.871
13.088	64.0147
13.172	63.9986
13.256	63.8352
13.34	63.7113
13.424	63.4482
13.508	63.5829
13.592	64.0749
13.676	64.4086
13.76	64.3902
13.844	64.0164
13.928	63.4529
14.012	63.1584
14.096	63.3774
14.18	63.742
14.264	63.7816
14.348	63.7599
14.432	63.9529
14.516	63.8093
14.6	63.3692
14.684	63.3984
14.768	63.5833
14.852	63.3353
14.936	63.2634
15.02	63.6825
15.104	63.8334
15.188	63.6181
15.272	63.5094
15.356	63.3349
15.44	62.9693
15.524	62.9589
15.608	63.469
15.692	63.9191
15.776	64.0227
15.86	64.0145
15.944	64.0093
16.028	63.8679
16.112	63.5448
16.196	63.2568
16.28	63.2824
16.364	63.6162
16.448	63.9435
16.532	64.0735
16.616	64.0977
16.7	64.0728
16.784	63.9303
16.868	63.6875
16.952	63.4512
17.036	63.3083
17.12	63.3142
17.204	63.4425
17.288	63.579
17.372	63.638
17.456	63.6216
17.54	63.5743
17.624	63.5529
17.708	63.6167
17.792	63.7597
17.876	63.8915
17.96	63.9547
18.044	63.9891
18.128	64.0111
18.212	63.9459
18.296	63.7445
18.38	63.4922
18.464	63.3528
18.548	63.4006
18.632	63.5313
18.716	63.602
18.8	63.6078
18.884	63.6379
18.968	63.7227
19.052	63.8061
19.136	63.8244
19.22	63.758
19.304	63.6329
19.388	63.4944
19.472	63.3839
19.556	63.321
19.64	63.3058
19.724	63.3337
19.808	63.4075
19.892	63.527
19.976	63.6621
20.06	63.7559
20.144	63.7621
20.228	63.6822
20.312	63.5545
20.396	63.4275
20.48	63.3562
20.564	63.401
20.648	63.598
20.732	63.9093
20.816	64.2163
20.9	64.3818
20.984	64.3373
21.068	64.1137
21.152	63.7916
21.236	63.4413
21.32	63.1143
21.404	62.8612
21.488	62.7318
21.572	62.7393
21.656	62.8315
21.74	62.9129
21.824	62.9003
21.908	62.7763
21.992	62.5884
22.076	62.4031
22.16	62.2677
22.244	62.1977
22.328	62.1854
22.412	62.2012
22.496	62.1968
22.58	62.1256
22.664	61.9643
22.748	61.7378
22.832	61.5138
22.916	61.3753
23	61.3954
23.084	61.5955
23.168	61.944
23.252	62.3724
23.336	62.7837
23.42	63.1052
23.504	63.2933
23.588	63.3579
23.672	63.3549
23.756	63.3592
23.84	63.4166
23.924	63.5366
24.008	63.6754
24.092	63.7412
24.176	63.6499
24.26	63.3378
24.344	62.7819
24.428	62.0012
24.512	61.0152
24.596	59.859
24.68	58.585
24.764	57.2631
24.848	55.942
24.932	54.6824
25.016	53.5483
25.1	52.5402
25.184	51.6801
25.268	51.0421
25.352	50.7411
25.436	50.9461
25.52	51.8276
25.604	53.4892
25.688	55.8605
25.772	58.65
25.856	61.4452
25.94	63.9453
26.024	66.0526
26.108	67.863
26.192	69.5873
26.276	71.3482
26.36	73.0548
26.444	74.3687
26.528	74.7637
26.612	73.7706
26.696	70.9748
26.78	66.1623
26.864	59.4965
26.948	51.6108
27.028	43.9576

File: BZ1503107-1_t30_cm-1.asc
PE IR       SPECTRUM    SPECTRUM    ASCII       PEDS        1.60
  -1
BZ68A4~1.ASC
17/04/07
15:42:11.00
17/04/07
15:42:11.00
tln
$BZ1503107-1_t0030$<tbV0>[-5.2,-7.8,8.0,0.0,27,1,0]
370
64

2002,4.07
MIRTGS : RIGHTBACK : INTERNAL 2
MIR : ON : INTERNAL 2
OPTKBR

0.200000
8
8.000000
FILLER
RATIO
SPECTRUM
UNLOCKED 256

DOUBLE
64
COMBINED
1
0
0

1.000000
RATIO

1
0
TRUE
51149
0
LEFT NOT FITTED RIGHT NOT FITTED 0
NONE
NONE
15600
12
4.427000
51148
TRUE
1 0 8 72 0 0 0 0

15798

#HDR
-1
-1
#GR
CM-1
%T
2.38419e-05
0.0
5000
-1.000000
4631
8
76.5669
43.9576
#DATA
5000	64.9832
4984	64.9768
4968	64.111
4952	64.1131
4936	64.228
4920	64.2686
4904	64.3044
4888	64.0831
4872	64.7419
4856	64.5002
4840	64.3266
4824	64.7849
4808	64.4843
4792	64.4701
4776	64.886
4760	64.7578
4744	64.4584
4728	64.4436
4712	65.4303
4696	64.9576
4680	64.3166
4664	64.5965
4648	64.7103
4632	64.5649
4616	64.6069
4600	64.6682
4584	64.2765
4568	64.4128
4552	64.2331
4536	64.4932
4520	64.1957
4504	64.0807
4488	63.6777
4472	63.5431
4456	64.7662
4440	66.1046
4424	76.5669
4408	62.1247
4392	64.0717
4376	65.0966
4360	64.2331
4344	64.1015
4328	64.2527
4312	64.3872
4296	64.8573
4280	64.4537
4264	64.4601
4248	64.3581
4232	64.8184
4216	64.585
4200	65.1109
4184	64.726
4168	65.0444
4152	64.8244
4136	64.8914
4120	64.611
4104	64.8004
4088	64.9666
4072	64.7624
4056	64.7598
4040	64.6412
4024	64.585
4008	64.9062
3992	65.2128
3976	64.7402
3960	64.6032
3944	64.5886
3928	64.9145
3912	64.8659
3896	64.8896
3880	64.6509
3864	64.7698
3848	64.7885
3832	64.7152
3816	64.8898
3800	64.9248
3784	64.7916
3768	64.9214
3752	64.8417
3736	64.9171
3720	65.0833
3704	64.968
3688	65.0178
3672	65.0742
3656	64.9676
3640	64.8919
3624	64.9122
3608	65.1719
3592	65.0187
3576	64.6933
3560	64.8683
3544	64.8239
3528	64.6648
3512	65.1051
3496	65.0495
3480	64.8689
3464	64.7665
3448	64.8365
3432	64.6219
3416	65.0052
3400	64.911
3384	65.0384
3368	64.9211
3352	64.962
3336	64.9354
3320	64.8177
3304	64.8003
3288	64.8107
3272	64.8427
3256	64.7684
3240	64.8775
3224	64.6355
3208	64.9377
3192	64.6271
3176	64.7887
3160	64.8845
3144	64.7103
3128	64.9036
3112	64.6307
3096	64.8354
3080	65.0173
3064	64.9536
3048	64.8564
3032	64.8882
3016	64.8152
3000	64.9227
2984	64.7396
2968	64.5959
2952	64.8375
2936	64.7267
2920	64.7044
2904	64.7836
2888	64.8246
2872	64.6875
2856	64.9258
2840	64.6918
2824	64.7756
2808	64.9166
2792	64.9423
2776	64.8496
2760	64.9115
2744	64.8875
2728	64.8504
2712	64.8737
2696	64.8361
2680	64.8332
2664	64.6888
2648	64.8622
2632	64.8904
2616	64.7154
2600	64.7481
2584	64.6739
2568	64.7249
2552	64.7309
2536	64.8797
2520	64.7152
2504	64.8441
2488	64.6313
2472	64.8442
2456	64.624
2440	64.7386
2424	64.7418
2408	64.828
2392	64.8542
2376	64.5965
2360	64.6955
2344	64.7796
2328	64.7183
2312	64.7547
2296	64.6016
2280	64.7677
2264	64.7246
2248	64.638
2232	64.7373
2216	64.5916
2200	64.7017
2184	64.6872
2168	64.7042
2152	64.5802
2136	64.5812
2120	64.7031
2104	64.5589
2088	64.6707
2072	64.6777
2056	64.6226
2040	64.5613
2024	64.7091
2008	64.631
1992	64.6456
1976	64.6251
1960	64.6479
1944	64.5819
1928	64.5679
1912	64.5211
1896	64.4657
1880	64.4851
1864	64.5184
1848	64.5109
1832	64.4773
1816	64.505
1800	64.4718
1784	64.5091
1768	64.3599
1752	64.2482
1736	63.8035
1720	64.0657
1704	64.3187
1688	64.374
1672	64.3883
1656	64.2761
1640	64.2274
1624	64.2918
1608	64.2927
1592	64.2565
1576	64.1139
1560	64.3529
1544	64.2591
1528	64.2563
1512	64.3184
1496	64.29
1480	64.2407
1464	64.0672
1448	64.1192
1432	64.2915
1416	64.2611
1400	64.1352
1384	64.0768
1368	64.1187
1352	64.0759
1336	64.0353
1320	64.1473
1304	64.0812
1288	64.0291
1272	64.0796
1256	63.9703
1240	64.047
1224	64.0106
1208	63.9167
1192	63.8093
1176	63.8729
1160	63.7948
1144	63.9102
1128	63.8948
1112	63.8949
1096	63.7686
1080	63.9214
1064	63.9561
1048	63.9415
1032	63.8707
1016	64.0954
1000	63.981
984	 63.7831
968	 63.8149
952	 64.1348
936	 64.006
920	 64.099
904	 63.9565
888	 63.8352
872	 63.9596
856	 63.9419
840	 63.9598
824	 63.5643
808	 63.8054
792	 63.8794
776	 63.7781
760	 64.0232
744	 63.427
728	 64.4319
712	 63.19
696	 63.7964
680	 63.4698
664	 63.8253
648	 62.9984
632	 64.0162
616	 63.22
600	 64.0927
584	 63.3174
568	 63.5519
552	 64.0111
536	 63.5621
520	 63.7444
504	 63.4502
488	 63.3543
472	 63.6481
456	 62.7309
440	 61.7964
424	 63.357
408	 61.0432
392	 51.6847
376	 74.0966
370	 43.9576

File: BZ1503107-1_t31.asc
PE IR       SPECTRUM    SPECTRUM    ASCII       PEDS        1.60
  -1
BZ2D47~1.ASC
17/04/07
15:46:48.00
17/04/07
15:47:14.00
tln
$BZ1503107-1_t0031$<tbV0>[-7.8,-7.8,8.0,0.0,27,1,0]
27.028
64

2002,4.07
MIRTGS : RIGHTBACK : INTERNAL 2
MIR : ON : INTERNAL 2
OPTKBR

0.200000
8
8.000000
FILLER
RATIO
SPECTRUM
UNLOCKED 256

DOUBLE
64
COMBINED
1
0
0

0.002000
RATIO

1
0
TRUE
51149
0
LEFT NOT FITTED RIGHT NOT FITTED 0
NONE
NONE
15600
12
4.427000
51148
TRUE
1 0 8 72 0 0 0 0

15798

#HDR
-1
-1
#GR
µM
%T
2.38419e-05
0.0
2.000000
0.002000
12515
8
87.6863
44.0556
#DATA
2.000000	 64.7804
2.084000	 64.9897
2.168000	 65.195
2.252000	 65.4074
2.336000	 64.9933
2.420000	 65.0733
2.504000	 65.1521
2.588000	 65.0917
2.672000	 65.0634
2.756000	 65.2098
2.840000	 64.9094
2.924000	 65.107
3.008000	 65.0708
3.092000	 65.074
3.176000	 65.0198
3.260000	 65.0081
3.344000	 65.2236
3.428000	 65.0375
3.512000	 64.9704
3.596000	 65.022
3.680000	 65.091
3.764000	 64.971
3.848000	 65.0814
3.932000	 64.9787
4.016000	 64.8969
4.100000	 65.0188
4.184000	 65.0205
4.268000	 64.9415
4.352000	 64.8602
4.436000	 64.8979
4.520000	 64.8465
4.604000	 64.8661
4.688000	 64.8214
4.772000	 64.8937
4.856000	 64.728
4.940000	 64.8645
5.024000	 64.7161
5.108000	 64.6085
5.192000	 64.6882
5.276000	 64.6722
5.359999	 64.6184
5.444000	 64.6802
5.528000	 64.5462
5.612000	 64.6133
5.696000	 64.5286
5.780000	 64.3045
5.864000	 64.4681
5.948000	 64.495
6.032000	 64.4583
6.116000	 64.5105
6.200000	 64.4231
6.284000	 64.4216
6.368000	 64.5186
6.452000	 64.4132
6.536000	 64.3053
6.620000	 64.4402
6.704000	 64.3982
6.788000	 64.4045
6.872000	 64.2442
6.956000	 64.4184
7.040000	 64.37
7.124000	 64.2696
7.208000	 64.1892
7.292000	 64.3412
7.376000	 64.1694
7.460000	 64.3613
7.544000	 64.2506
7.628000	 64.2925
7.712000	 64.1362
7.796000	 64.1136
7.880000	 64.2221
7.964000	 64.1679
8.048000	 64.2385
8.132000	 64.1352
8.216000	 64.2296
8.300000	 64.0767
8.384000	 64.1923
8.468000	 64.0225
8.552000	 64.0913
8.635999	 64.0968
8.719999	 64.0163
8.804000	 63.9604
8.888000	 64.0556
8.972000	 64.1896
9.056000	 64.1173
9.140000	 64.0742
9.224000	 64.1466
9.308000	 64.0914
9.391999	 64.0935
9.475999	 64.0396
9.560000	 64.212
9.644000	 63.9565
9.728000	 64.0697
9.812000	 64.0246
9.896000	 64.0494
9.980000	 63.9678
10.064	64.1107
10.148	63.9406
10.232	64.019
10.316	64.0433
10.4	64.0199
10.484	64.1525
10.568	64.1513
10.652	63.9742
10.736	64.0283
10.82	64.1035
10.904	64.3619
10.988	64.0558
11.072	63.8672
11.156	63.9911
11.24	63.9621
11.324	63.9831
11.408	64.1411
11.492	64.0836
11.576	64.1211
11.66	64.0952
11.744	64.1004
11.828	63.9917
11.912	63.9384
11.996	64.0446
12.08	63.9834
12.164	63.9126
12.248	63.9434
12.332	64.0686
12.416	64.1791
12.5	64.1587
12.584	64.1612
12.668	64.2796
12.752	64.3227
12.836	64.3644
12.92	64.228
13.004	64.0064
13.088	63.9244
13.172	63.7405
13.256	63.6451
13.34	63.7619
13.424	63.9553
13.508	63.9285
13.592	63.7532
13.676	63.8779
13.76	64.1962
13.844	64.2163
13.928	64.1161
14.012	63.6268
14.096	62.7532
14.18	62.6499
14.264	63.3206
14.348	63.7871
14.432	63.618
14.516	63.6287
14.6	64.0635
14.684	64.079
14.768	63.9101
14.852	64.0603
14.936	64.3152
15.02	64.1237
15.104	63.3315
15.188	62.7531
15.272	62.7835
15.356	62.9678
15.44	63.152
15.524	63.4127
15.608	63.6403
15.692	63.8073
15.776	63.9872
15.86	64.1369
15.944	64.1893
16.028	64.1269
16.112	63.9801
16.196	63.8755
16.28	63.9247
16.364	63.9973
16.448	63.8483
16.532	63.6155
16.616	63.7123
16.7	64.1047
16.784	64.2889
16.868	64.0535
16.952	63.6946
17.036	63.5276
17.12	63.5913
17.204	63.7756
17.288	63.9988
17.372	64.1979
17.456	64.278
17.54	64.1894
17.624	64.0209
17.708	63.9022
17.792	63.8572
17.876	63.855
17.96	63.9104
18.044	64.0217
18.128	64.0911
18.212	64.0404
18.296	63.9275
18.38	63.8606
18.464	63.8648
18.548	63.8959
18.632	63.9214
18.716	63.9473
18.8	63.9879
18.884	64.036
18.968	64.0751
19.052	64.0944
19.136	64.0702
19.22	63.966
19.304	63.784
19.388	63.6021
19.472	63.5312
19.556	63.6246
19.64	63.8393
19.724	64.0806
19.808	64.2604
19.892	64.3151
19.976	64.2151
20.06	63.9949
20.144	63.7533
20.228	63.5922
20.312	63.5475
20.396	63.5772
20.48	63.6258
20.564	63.685
20.648	63.7901
20.732	63.9572
20.816	64.1382
20.9	64.2437
20.984	64.2087
21.068	64.0469
21.152	63.839
21.236	63.6679
21.32	63.5582
21.404	63.4678
21.488	63.3366
21.572	63.1455
21.656	62.9291
21.74	62.744
21.824	62.6233
21.908	62.555
21.992	62.5184
22.076	62.5286
22.16	62.6308
22.244	62.842
22.328	63.1179
22.412	63.3618
22.496	63.4772
22.58	63.4223
22.664	63.2235
22.748	62.9722
22.832	62.7761
22.916	62.7194
23	62.8212
23.084	63.0147
23.168	63.1677
23.252	63.1647
23.336	62.9628
23.42	62.6581
23.504	62.4509
23.588	62.5331
23.672	62.9744
23.756	63.6799
23.84	64.4501
23.924	65.0885
24.008	65.4923
24.092	65.6678
24.176	65.6853
24.26	65.6265
24.344	65.5017
24.428	65.2253
24.512	64.6866
24.596	63.8115
24.68	62.5998
24.764	61.1517
24.848	59.6853
24.932	58.4906
25.016	57.8252
25.1	57.8781
25.184	58.6549
25.268	59.9624
25.352	61.5085
25.436	63.0473
25.52	64.4749
25.604	65.7969
25.688	67.0103
25.772	67.9704
25.856	68.3502
25.94	67.7016
26.024	65.6093
26.108	61.9455
26.192	57.05
26.276	51.7405
26.36	47.1478
26.444	44.4217
26.528	44.4162
26.612	47.4204
26.696	53.2278
26.78	61.2023
26.864	70.4153
26.948	79.7747
27.028	87.6863