Folder: Masteroppgave/Bakgrunnsmateriale/MATLAB/FTIR/ftir_data/subAa/Mapping_121 (part 41)

File: BZ1503107-1_t94.asc
PE IR       SPECTRUM    SPECTRUM    ASCII       PEDS        1.60
  -1
BZ395B~1.ASC
17/04/07
20:59:51.00
17/04/07
21:00:18.00
tln
$BZ1503107-1_t0094$<tbV0>[0.0,7.8,8.0,0.0,27,1,0]
27.028
64

2002,4.07
MIRTGS : RIGHTBACK : INTERNAL 2
MIR : ON : INTERNAL 2
OPTKBR

0.200000
8
8.000000
FILLER
RATIO
SPECTRUM
UNLOCKED 256

DOUBLE
64
COMBINED
1
0
0

0.002000
RATIO

1
0
TRUE
51149
0
LEFT NOT FITTED RIGHT NOT FITTED 0
NONE
NONE
15600
12
4.427000
51148
TRUE
1 0 8 72 0 0 0 0

15798

#HDR
-1
-1
#GR
µM
%T
2.38419e-05
0.0
2.000000
0.002000
12515
8
88.1355
53.5799
#DATA
2.000000	 63.8155
2.084000	 65.1164
2.168000	 64.6476
2.252000	 88.1355
2.336000	 64.6702
2.420000	 65.0517
2.504000	 64.9307
2.588000	 64.7081
2.672000	 64.9694
2.756000	 64.9618
2.840000	 64.841
2.924000	 64.9936
3.008000	 64.6593
3.092000	 64.8456
3.176000	 64.7918
3.260000	 64.7613
3.344000	 64.7405
3.428000	 64.8527
3.512000	 64.6409
3.596000	 64.8303
3.680000	 64.8573
3.764000	 64.6275
3.848000	 64.5112
3.932000	 64.5917
4.016000	 64.5477
4.100000	 64.4855
4.184000	 64.4041
4.268000	 64.4641
4.352000	 64.4907
4.436000	 64.5239
4.520000	 64.3447
4.604000	 64.3379
4.688000	 64.2848
4.772000	 64.3604
4.856000	 64.3399
4.940000	 64.1921
5.024000	 64.2218
5.108000	 64.1787
5.192000	 64.0601
5.276000	 64.1342
5.359999	 64.0961
5.444000	 64.0438
5.528000	 64.1292
5.612000	 63.8858
5.696000	 63.7799
5.780000	 63.5526
5.864000	 63.7787
5.948000	 63.6416
6.032000	 63.7279
6.116000	 63.7345
6.200000	 63.793
6.284000	 63.7688
6.368000	 63.6874
6.452000	 63.6089
6.536000	 63.6751
6.620000	 63.6114
6.704000	 63.7952
6.788000	 63.735
6.872000	 63.4295
6.956000	 63.6144
7.040000	 63.5628
7.124000	 63.5046
7.208000	 63.4767
7.292000	 63.3842
7.376000	 63.4123
7.460000	 63.3806
7.544000	 63.3552
7.628000	 63.4607
7.712000	 63.3205
7.796000	 63.2701
7.880000	 63.1729
7.964000	 63.2622
8.048000	 63.2599
8.132000	 63.0608
8.216000	 63.2568
8.300000	 63.2646
8.384000	 63.2313
8.468000	 63.0191
8.552000	 62.9921
8.635999	 63.0087
8.719999	 63.077
8.804000	 63.2294
8.888000	 63.1179
8.972000	 63.1473
9.056000	 63.0039
9.140000	 63.0638
9.224000	 62.9786
9.308000	 62.7473
9.391999	 62.9998
9.475999	 62.9866
9.560000	 62.9922
9.644000	 63.0097
9.728000	 62.9622
9.812000	 62.9064
9.896000	 62.8047
9.980000	 62.8261
10.064	62.8902
10.148	63.0754
10.232	63.0059
10.316	63.0461
10.4	63.0127
10.484	62.9808
10.568	62.8679
10.652	62.9908
10.736	62.9025
10.82	62.8647
10.904	62.7905
10.988	62.7485
11.072	62.8748
11.156	63.0014
11.24	62.9117
11.324	62.9436
11.408	62.8209
11.492	63.059
11.576	62.9813
11.66	62.9184
11.744	62.85
11.828	62.6863
11.912	62.6384
11.996	62.8008
12.08	62.8623
12.164	62.9103
12.248	63.0266
12.332	63.0273
12.416	62.8864
12.5	62.7744
12.584	62.9486
12.668	62.95
12.752	62.9412
12.836	62.7646
12.92	62.6553
13.004	62.6829
13.088	62.6323
13.172	62.6237
13.256	62.7398
13.34	62.8549
13.424	62.8051
13.508	62.7185
13.592	62.718
13.676	62.7766
13.76	62.6852
13.844	62.448
13.928	62.4041
14.012	62.4003
14.096	62.3217
14.18	62.2967
14.264	62.3273
14.348	62.3742
14.432	62.4196
14.516	62.5332
14.6	62.5131
14.684	62.3001
14.768	62.3348
14.852	62.5874
14.936	62.6379
15.02	62.481
15.104	62.403
15.188	62.4192
15.272	62.4044
15.356	62.4054
15.44	62.4654
15.524	62.5155
15.608	62.4909
15.692	62.3882
15.776	62.2809
15.86	62.2173
15.944	62.1924
16.028	62.2023
16.112	62.1593
16.196	61.9673
16.28	61.7688
16.364	61.7839
16.448	61.9522
16.532	62.0643
16.616	62.0982
16.7	62.1575
16.784	62.2571
16.868	62.2994
16.952	62.1525
17.036	61.8441
17.12	61.6686
17.204	61.8394
17.288	62.1219
17.372	62.1641
17.456	62.0197
17.54	61.998
17.624	62.1117
17.708	62.0663
17.792	61.7718
17.876	61.5577
17.96	61.7811
18.044	62.3933
18.128	62.9638
18.212	63.1103
18.296	62.7966
18.38	62.2755
18.464	61.8387
18.548	61.6246
18.632	61.5657
18.716	61.512
18.8	61.4137
18.884	61.3939
18.968	61.5878
19.052	61.9594
19.136	62.31
19.22	62.4785
19.304	62.4776
19.388	62.4349
19.472	62.4357
19.556	62.4471
19.64	62.3641
19.724	62.0753
19.808	61.5303
19.892	60.7996
19.976	60.1085
20.06	59.7697
20.144	60.0229
20.228	60.8693
20.312	61.9899
20.396	62.8843
20.48	63.1861
20.564	62.8916
20.648	62.3058
20.732	61.8023
20.816	61.6098
20.9	61.7359
20.984	62.0021
21.068	62.1451
21.152	61.9615
21.236	61.4409
21.32	60.7941
21.404	60.3426
21.488	60.2945
21.572	60.6067
21.656	61.0484
21.74	61.3681
21.824	61.4573
21.908	61.3722
21.992	61.2057
22.076	60.9903
22.16	60.6929
22.244	60.2875
22.328	59.8491
22.412	59.5226
22.496	59.4406
22.58	59.644
22.664	60.072
22.748	60.5815
22.832	61.0153
22.916	61.2332
23	61.1461
23.084	60.7349
23.168	60.066
23.252	59.2865
23.336	58.6153
23.42	58.2789
23.504	58.4517
23.588	59.1774
23.672	60.3428
23.756	61.677
23.84	62.8487
23.924	63.5575
24.008	63.6381
24.092	63.1099
24.176	62.1629
24.26	61.065
24.344	60.077
24.428	59.3491
24.512	58.9321
24.596	58.7817
24.68	58.8314
24.764	59.0485
24.848	59.4365
24.932	59.9918
25.016	60.6571
25.1	61.3265
25.184	61.8123
25.268	61.938
25.352	61.652
25.436	61.0327
25.52	60.2801
25.604	59.6413
25.688	59.3522
25.772	59.5452
25.856	60.1969
25.94	61.0857
26.024	61.852
26.108	62.1404
26.192	61.7589
26.276	60.7135
26.36	59.1683
26.444	57.4053
26.528	55.7589
26.612	54.4358
26.696	53.6713
26.78	53.7494
26.864	55.0057
26.948	57.7183
27.028	61.6897

File: BZ1503107-1_t94_cm-1.asc
PE IR       SPECTRUM    SPECTRUM    ASCII       PEDS        1.60
  -1
BZ6CA5~1.ASC
17/04/07
20:59:51.00
17/04/07
20:59:51.00
tln
$BZ1503107-1_t0094$<tbV0>[0.0,7.8,8.0,0.0,27,1,0]
370
64

2002,4.07
MIRTGS : RIGHTBACK : INTERNAL 2
MIR : ON : INTERNAL 2
OPTKBR

0.200000
8
8.000000
FILLER
RATIO
SPECTRUM
UNLOCKED 256

DOUBLE
64
COMBINED
1
0
0

1.000000
RATIO

1
0
TRUE
51149
0
LEFT NOT FITTED RIGHT NOT FITTED 0
NONE
NONE
15600
12
4.427000
51148
TRUE
1 0 8 72 0 0 0 0

15798

#HDR
-1
-1
#GR
CM-1
%T
2.38419e-05
0.0
5000
-1.000000
4631
8
88.2444
53.5846
#DATA
5000	63.8155
4984	63.7357
4968	64.9251
4952	65.6476
4936	64.804
4920	64.4071
4904	65.1382
4888	64.4802
4872	65.1605
4856	64.6047
4840	64.6741
4824	64.5822
4808	65.3171
4792	65.009
4776	64.8381
4760	64.6597
4744	64.7471
4728	64.5381
4712	64.55
4696	64.5946
4680	64.9469
4664	64.82
4648	65.0432
4632	64.7525
4616	64.8095
4600	64.5038
4584	64.5963
4568	64.3682
4552	64.2479
4536	64.2048
4520	64.3782
4504	64.211
4488	63.9359
4472	63.6195
4456	65.1556
4440	88.2444
4424	65.6057
4408	64.1572
4392	63.9855
4376	64.0063
4360	64.7408
4344	64.4858
4328	64.766
4312	64.5971
4296	64.6228
4280	64.6456
4264	64.5113
4248	64.9741
4232	64.7158
4216	64.5034
4200	64.8983
4184	65.0704
4168	65.1834
4152	65.0084
4136	64.9241
4120	64.961
4104	65.0158
4088	64.8883
4072	65.0409
4056	64.9682
4040	64.7106
4024	65.0374
4008	64.8481
3992	64.9461
3976	64.9136
3960	64.9699
3944	64.5381
3928	64.8736
3912	64.7885
3896	65.0791
3880	64.8021
3864	64.7078
3848	64.9036
3832	64.8523
3816	65.02
3800	64.8876
3784	65.113
3768	65.0995
3752	64.8681
3736	65.0592
3720	65.0455
3704	65.0608
3688	65.1353
3672	64.9835
3656	65.033
3640	65.2278
3624	64.9111
3608	64.9256
3592	65.0579
3576	64.8879
3560	64.9137
3544	64.9159
3528	65.0278
3512	64.9206
3496	65.0711
3480	64.949
3464	64.9434
3448	65.0012
3432	64.8828
3416	64.8893
3400	64.8774
3384	64.9059
3368	64.8063
3352	64.7527
3336	64.8488
3320	64.7329
3304	64.9374
3288	65.0067
3272	64.8769
3256	64.9387
3240	64.8418
3224	64.8273
3208	64.8066
3192	65.05
3176	64.9089
3160	64.9497
3144	64.808
3128	64.6909
3112	64.822
3096	64.7104
3080	64.7264
3064	64.8303
3048	64.8689
3032	64.8036
3016	64.8444
3000	64.7752
2984	64.718
2968	64.501
2952	64.5348
2936	64.6345
2920	64.8739
2904	64.7403
2888	64.7598
2872	64.612
2856	64.6048
2840	64.7686
2824	64.8324
2808	64.7632
2792	64.7662
2776	64.776
2760	64.795
2744	64.7307
2728	64.9198
2712	64.8652
2696	64.7207
2680	64.6309
2664	64.6726
2648	64.6968
2632	64.7484
2616	64.6081
2600	64.5052
2584	64.6985
2568	64.6196
2552	64.5279
2536	64.5761
2520	64.5846
2504	64.5887
2488	64.5944
2472	64.7012
2456	64.6373
2440	64.4755
2424	64.6522
2408	64.5178
2392	64.447
2376	64.5119
2360	64.5252
2344	64.456
2328	64.5557
2312	64.4796
2296	64.4867
2280	64.3884
2264	64.4546
2248	64.4141
2232	64.3052
2216	64.3761
2200	64.2611
2184	64.2748
2168	64.3806
2152	64.2732
2136	64.2585
2120	64.3388
2104	64.3102
2088	64.364
2072	64.119
2056	64.3857
2040	64.265
2024	64.191
2008	64.2456
1992	64.2137
1976	64.2208
1960	64.1773
1944	64.0894
1928	64.0452
1912	64.1547
1896	64.1336
1880	64.0831
1864	64.0899
1848	63.9984
1832	64.0423
1816	64.1318
1800	64.0794
1784	63.8851
1768	63.9219
1752	63.6984
1736	63.4652
1720	63.7608
1704	63.747
1688	63.7746
1672	63.5367
1656	63.7348
1640	63.7487
1624	63.7746
1608	63.7929
1592	63.7678
1576	63.6596
1560	63.5861
1544	63.6203
1528	63.673
1512	63.596
1496	63.7789
1480	63.7229
1464	63.6115
1448	63.4766
1432	63.5555
1416	63.5647
1400	63.4691
1384	63.4624
1368	63.4659
1352	63.3645
1336	63.3056
1320	63.3963
1304	63.3935
1288	63.1788
1272	63.2251
1256	63.2617
1240	63.2026
1224	63.2356
1208	63.2071
1192	63.2183
1176	63.0435
1160	63.0143
1144	63.102
1128	63.1217
1112	63.107
1096	63.0367
1080	62.8643
1064	62.9967
1048	62.9795
1032	62.9613
1016	62.8386
1000	62.8492
984	 63.0723
968	 63.0446
952	 62.9225
936	 62.9374
920	 62.8193
904	 62.8467
888	 62.9416
872	 63.0148
856	 62.9038
840	 62.6334
824	 62.8726
808	 62.9756
792	 62.964
776	 62.6724
760	 62.615
744	 62.7831
728	 62.7386
712	 62.3701
696	 62.383
680	 62.272
664	 62.4238
648	 62.4588
632	 62.2404
616	 61.8622
600	 62.1269
584	 61.6687
568	 62.0896
552	 62.9024
536	 61.5549
520	 62.4858
504	 61.2539
488	 63.1768
472	 61.7808
456	 61.3338
440	 60.457
424	 59.1421
408	 58.9394
392	 60.3654
376	 54.6538
370	 61.6897

File: BZ1503107-1_t95.asc
PE IR       SPECTRUM    SPECTRUM    ASCII       PEDS        1.60
  -1
BZ3D5B~1.ASC
17/04/07
21:04:28.00
17/04/07
21:04:55.00
tln
$BZ1503107-1_t0095$<tbV0>[-2.6,7.8,8.0,0.0,27,1,0]
27.028
64

2002,4.07
MIRTGS : RIGHTBACK : INTERNAL 2
MIR : ON : INTERNAL 2
OPTKBR

0.200000
8
8.000000
FILLER
RATIO
SPECTRUM
UNLOCKED 256

DOUBLE
64
COMBINED
1
0
0

0.002000
RATIO

1
0
TRUE
51149
0
LEFT NOT FITTED RIGHT NOT FITTED 0
NONE
NONE
15600
12
4.427000
51148
TRUE
1 0 8 72 0 0 0 0

15798

#HDR
-1
-1
#GR
µM
%T
2.38419e-05
0.0
2.000000
0.002000
12515
8
73.8738
50.1984
#DATA
2.000000	 63.7491
2.084000	 64.8915
2.168000	 64.8606
2.252000	 64.3944
2.336000	 64.9577
2.420000	 65.0276
2.504000	 64.9038
2.588000	 65.1441
2.672000	 65.0087
2.756000	 65.1265
2.840000	 65.0269
2.924000	 65.0916
3.008000	 64.8796
3.092000	 64.9762
3.176000	 64.8107
3.260000	 64.9762
3.344000	 64.7363
3.428000	 64.6118
3.512000	 64.6782
3.596000	 64.8298
3.680000	 64.7575
3.764000	 64.6069
3.848000	 64.6992
3.932000	 64.5586
4.016000	 64.6945
4.100000	 64.4863
4.184000	 64.557
4.268000	 64.518
4.352000	 64.5295
4.436000	 64.4817
4.520000	 64.4077
4.604000	 64.3934
4.688000	 64.3474
4.772000	 64.2096
4.856000	 64.3875
4.940000	 64.2452
5.024000	 64.3356
5.108000	 64.2359
5.192000	 63.9955
5.276000	 64.087
5.359999	 63.9998
5.444000	 64.1106
5.528000	 64.0898
5.612000	 63.9437
5.696000	 63.8465
5.780000	 63.4402
5.864000	 63.7303
5.948000	 63.7723
6.032000	 63.8338
6.116000	 63.727
6.200000	 63.8529
6.284000	 63.8306
6.368000	 63.6885
6.452000	 63.6722
6.536000	 63.7126
6.620000	 63.647
6.704000	 63.6896
6.788000	 63.5702
6.872000	 63.393
6.956000	 63.5943
7.040000	 63.4411
7.124000	 63.5509
7.208000	 63.4489
7.292000	 63.3799
7.376000	 63.4195
7.460000	 63.3397
7.544000	 63.5298
7.628000	 63.4436
7.712000	 63.407
7.796000	 63.0838
7.880000	 63.0829
7.964000	 63.1125
8.048000	 63.266
8.132000	 63.214
8.216000	 63.2067
8.300000	 63.0592
8.384000	 63.1527
8.468000	 63.0565
8.552000	 62.8284
8.635999	 63.0081
8.719999	 63.1411
8.804000	 63.1216
8.888000	 63.0495
8.972000	 63.0275
9.056000	 63.0373
9.140000	 63.0434
9.224000	 62.9057
9.308000	 62.9721
9.391999	 63.0437
9.475999	 63.0062
9.560000	 62.9355
9.644000	 62.9726
9.728000	 63.0626
9.812000	 63.0929
9.896000	 62.9444
9.980000	 62.9282
10.064	62.9244
10.148	63.0317
10.232	62.8971
10.316	62.9333
10.4	63.098
10.484	63.1605
10.568	63.0203
10.652	63.0223
10.736	62.9928
10.82	63.0851
10.904	63.1282
10.988	62.9884
11.072	62.7293
11.156	62.8583
11.24	62.7808
11.324	62.7865
11.408	62.8863
11.492	62.9172
11.576	62.9098
11.66	62.7963
11.744	62.6567
11.828	62.6978
11.912	62.7044
11.996	62.7335
12.08	62.7115
12.164	62.8535
12.248	62.9169
12.332	62.9734
12.416	62.9763
12.5	62.769
12.584	62.7492
12.668	62.7853
12.752	62.8136
12.836	62.6765
12.92	62.5244
13.004	62.5935
13.088	62.6798
13.172	62.6079
13.256	62.4912
13.34	62.5344
13.424	62.6436
13.508	62.6634
13.592	62.7356
13.676	62.8378
13.76	62.5953
13.844	62.294
13.928	62.3384
14.012	62.4832
14.096	62.5314
14.18	62.5148
14.264	62.5303
14.348	62.4725
14.432	62.4135
14.516	62.4848
14.6	62.5271
14.684	62.3878
14.768	62.2517
14.852	62.3603
14.936	62.4409
15.02	62.2876
15.104	62.1945
15.188	62.2313
15.272	62.1994
15.356	62.106
15.44	62.1064
15.524	62.2368
15.608	62.3298
15.692	62.3343
15.776	62.3664
15.86	62.3756
15.944	62.3129
16.028	62.2796
16.112	62.2314
16.196	62.0729
16.28	62.023
16.364	62.3076
16.448	62.6251
16.532	62.5457
16.616	62.2586
16.7	62.2151
16.784	62.3371
16.868	62.292
16.952	62.0848
17.036	61.9432
17.12	61.9505
17.204	62.0386
17.288	62.1643
17.372	62.3537
17.456	62.5358
17.54	62.4953
17.624	62.1996
17.708	61.935
17.792	61.9191
17.876	62.0456
17.96	62.1437
18.044	62.2039
18.128	62.2203
18.212	62.1159
18.296	61.885
18.38	61.6074
18.464	61.4108
18.548	61.4327
18.632	61.6659
18.716	61.8468
18.8	61.6635
18.884	61.1588
18.968	60.7591
19.052	60.8644
19.136	61.494
19.22	62.3534
19.304	63.1059
19.388	63.5628
19.472	63.6899
19.556	63.538
19.64	63.1616
19.724	62.5521
19.808	61.7155
19.892	60.8024
19.976	60.086
20.06	59.7576
20.144	59.8108
20.228	60.1333
20.312	60.6271
20.396	61.195
20.48	61.6732
20.564	61.874
20.648	61.7677
20.732	61.5583
20.816	61.5199
20.9	61.7559
20.984	62.1415
21.068	62.4669
21.152	62.5935
21.236	62.524
21.32	62.3537
21.404	62.1955
21.488	62.1149
21.572	62.124
21.656	62.2064
21.74	62.3304
21.824	62.4596
21.908	62.5441
21.992	62.5131
22.076	62.3043
22.16	61.9132
22.244	61.4413
22.328	61.0712
22.412	60.9705
22.496	61.1832
22.58	61.6181
22.664	62.1149
22.748	62.5298
22.832	62.8107
22.916	62.9623
23	62.9956
23.084	62.8936
23.168	62.6086
23.252	62.1268
23.336	61.5371
23.42	61.0336
23.504	60.8488
23.588	61.1267
23.672	61.8382
23.756	62.7611
23.84	63.5578
23.924	63.9107
24.008	63.642
24.092	62.7553
24.176	61.4153
24.26	59.8664
24.344	58.3667
24.428	57.1274
24.512	56.3847
24.596	56.3106
24.68	56.9681
24.764	58.26
24.848	59.9331
24.932	61.6106
25.016	62.9433
25.1	63.7757
25.184	64.1552
25.268	64.3151
25.352	64.5819
25.436	65.2499
25.52	66.4463
25.604	68.1033
25.688	70.0118
25.772	71.855
25.856	73.2628
25.94	73.8693
26.024	73.3331
26.108	71.4295
26.192	68.1793
26.276	63.8998
26.36	59.1703
26.444	54.7867
26.528	51.5995
26.612	50.2212
26.696	51.0292
26.78	54.079
26.864	59.1243
26.948	65.651
27.028	72.5197

File: BZ1503107-1_t95_cm-1.asc
PE IR       SPECTRUM    SPECTRUM    ASCII       PEDS        1.60
  -1
BZ6DA5~1.ASC
17/04/07
21:04:28.00
17/04/07
21:04:28.00
tln
$BZ1503107-1_t0095$<tbV0>[-2.6,7.8,8.0,0.0,27,1,0]
370
64

2002,4.07
MIRTGS : RIGHTBACK : INTERNAL 2
MIR : ON : INTERNAL 2
OPTKBR

0.200000
8
8.000000
FILLER
RATIO
SPECTRUM
UNLOCKED 256

DOUBLE
64
COMBINED
1
0
0

1.000000
RATIO

1
0
TRUE
51149
0
LEFT NOT FITTED RIGHT NOT FITTED 0
NONE
NONE
15600
12
4.427000
51148
TRUE
1 0 8 72 0 0 0 0

15798

#HDR
-1
-1
#GR
CM-1
%T
2.38419e-05
0.0
5000
-1.000000
4631
8
73.8072
50.32
#DATA
5000	63.7491
4984	64.8184
4968	65.2979
4952	67.7059
4936	66.0257
4920	64.0949
4904	65.4723
4888	64.9669
4872	65.0022
4856	65.0723
4840	65.0228
4824	64.5956
4808	64.7989
4792	65.1796
4776	65.0298
4760	64.6626
4744	65.1561
4728	65.0056
4712	64.7366
4696	65.1315
4680	65.0383
4664	65.2302
4648	65.0769
4632	65.0458
4616	64.9564
4600	64.7858
4584	65.024
4568	64.9234
4552	64.9316
4536	65.0565
4520	64.7864
4504	65.0959
4488	64.2218
4472	64.7807
4456	65.4768
4440	64.1659
4424	65.9792
4408	65.396
4392	65.0824
4376	64.4995
4360	65.1145
4344	65.2126
4328	65.0062
4312	64.9704
4296	64.791
4280	64.9494
4264	64.6122
4248	65.3192
4232	64.9477
4216	64.8713
4200	64.8018
4184	64.8624
4168	65.093
4152	64.8063
4136	65.0218
4120	64.91
4104	64.9548
4088	65.0586
4072	65.1516
4056	65.121
4040	65.1766
4024	65.1133
4008	65.0218
3992	64.9581
3976	64.9735
3960	65.0715
3944	64.7626
3928	65.1745
3912	64.7886
3896	64.972
3880	65.1086
3864	65.1438
3848	65.1551
3832	64.9858
3816	64.9916
3800	65.0255
3784	64.9039
3768	64.9375
3752	65.1405
3736	65.0653
3720	65.1457
3704	65.1177
3688	65.0658
3672	65.0284
3656	64.8879
3640	65.1315
3624	65.0685
3608	65.0473
3592	65.1596
3576	65.1187
3560	65.1446
3544	64.9819
3528	65.0943
3512	65.0819
3496	64.9651
3480	65.1128
3464	65.0643
3448	65.0573
3432	64.9851
3416	65.1057
3400	64.8799
3384	64.9095
3368	64.8997
3352	64.9561
3336	65.0835
3320	64.9875
3304	64.9017
3288	64.9884
3272	64.9338
3256	64.9954
3240	65.0046
3224	64.7881
3208	64.8199
3192	64.9575
3176	65.0212
3160	64.8093
3144	64.8734
3128	64.7135
3112	64.8741
3096	64.8593
3080	64.7699
3064	65.0318
3048	64.9541
3032	65.0496
3016	64.9266
3000	64.8628
2984	64.6939
2968	64.6788
2952	64.5444
2936	64.7336
2920	64.6631
2904	64.7712
2888	64.6579
2872	64.7523
2856	64.6096
2840	64.7998
2824	64.829
2808	64.7389
2792	64.8024
2776	64.8138
2760	64.7807
2744	64.7512
2728	64.9562
2712	64.8076
2696	64.7379
2680	64.7816
2664	64.6472
2648	64.6778
2632	64.6919
2616	64.6843
2600	64.6825
2584	64.5478
2568	64.7151
2552	64.6481
2536	64.5986
2520	64.6188
2504	64.5342
2488	64.6761
2472	64.7208
2456	64.7031
2440	64.4896
2424	64.6906
2408	64.4175
2392	64.5725
2376	64.6082
2360	64.4919
2344	64.4977
2328	64.5607
2312	64.4778
2296	64.5641
2280	64.4869
2264	64.4611
2248	64.457
2232	64.5848
2216	64.4365
2200	64.3615
2184	64.3364
2168	64.3902
2152	64.2627
2136	64.3376
2120	64.3428
2104	64.2886
2088	64.2223
2072	64.2267
2056	64.3703
2040	64.2767
2024	64.2447
2008	64.1901
1992	64.3397
1976	64.213
1960	64.2275
1944	64.0526
1928	64.0307
1912	64.1085
1896	64.0922
1880	64.0112
1864	63.9946
1848	64.0377
1832	64.0778
1816	64.1564
1800	64.054
1784	63.9376
1768	63.9386
1752	63.7728
1736	63.4386
1720	63.7533
1704	63.7423
1688	63.8337
1672	63.7095
1656	63.7983
1640	63.786
1624	63.7503
1608	63.7338
1592	63.8398
1576	63.6097
1560	63.5992
1544	63.6724
1528	63.7394
1512	63.6236
1496	63.7098
1480	63.5872
1464	63.4661
1448	63.4345
1432	63.5272
1416	63.4373
1400	63.4563
1384	63.4978
1368	63.4095
1352	63.3907
1336	63.3537
1320	63.5459
1304	63.3711
1288	63.2236
1272	63.1223
1256	63.1046
1240	63.2376
1224	63.243
1208	63.0939
1192	63.1632
1176	63.0136
1160	62.9306
1144	63.1491
1128	63.0236
1112	62.9956
1096	63.0365
1080	62.8949
1064	63.0386
1048	62.9508
1032	62.9899
1016	63.0481
1000	62.9466
984	 63.0271
968	 62.9684
952	 63.1377
936	 63.0135
920	 63.0879
904	 62.7362
888	 62.7732
872	 62.9347
856	 62.7376
840	 62.7042
824	 62.7904
808	 63.0174
792	 62.7574
776	 62.5693
760	 62.6278
744	 62.6537
728	 62.6992
712	 62.5169
696	 62.4499
680	 62.3369
664	 62.2184
648	 62.0994
632	 62.3826
616	 62.0152
600	 62.1943
584	 61.9529
568	 62.274
552	 62.2239
536	 61.7415
520	 62.4613
504	 61.3482
488	 61.7213
472	 62.5842
456	 62.5502
440	 62.4393
424	 61.1083
408	 56.3959
392	 66.2809
376	 50.32
370	 72.5197

File: BZ1503107-1_t96.asc
PE IR       SPECTRUM    SPECTRUM    ASCII       PEDS        1.60
  -1
BZ316B~1.ASC
17/04/07
21:09:06.00
17/04/07
21:09:32.00
tln
$BZ1503107-1_t0096$<tbV0>[-5.2,7.8,8.0,0.0,27,1,0]
27.028
64

2002,4.07
MIRTGS : RIGHTBACK : INTERNAL 2
MIR : ON : INTERNAL 2
OPTKBR

0.200000
8
8.000000
FILLER
RATIO
SPECTRUM
UNLOCKED 256

DOUBLE
64
COMBINED
1
0
0

0.002000
RATIO

1
0
TRUE
51149
0
LEFT NOT FITTED RIGHT NOT FITTED 0
NONE
NONE
15600
12
4.427000
51148
TRUE
1 0 8 72 0 0 0 0

15798

#HDR
-1
-1
#GR
µM
%T
2.38419e-05
0.0
2.000000
0.002000
12515
8
80.316
42.7022
#DATA
2.000000	 64.4557
2.084000	 65.3183
2.168000	 64.7594
2.252000	 74.3864
2.336000	 64.7948
2.420000	 65.0158
2.504000	 65.0319
2.588000	 64.9513
2.672000	 64.9309
2.756000	 65.0426
2.840000	 64.9313
2.924000	 64.9027
3.008000	 64.7444
3.092000	 64.7917
3.176000	 64.8381
3.260000	 64.7534
3.344000	 64.7082
3.428000	 64.705
3.512000	 64.6505
3.596000	 64.7696
3.680000	 64.6551
3.764000	 64.7507
3.848000	 64.5953
3.932000	 64.6589
4.016000	 64.6378
4.100000	 64.4516
4.184000	 64.4966
4.268000	 64.4495
4.352000	 64.4632
4.436000	 64.3575
4.520000	 64.3594
4.604000	 64.1946
4.688000	 64.2832
4.772000	 64.3128
4.856000	 64.2596
4.940000	 64.1703
5.024000	 64.2754
5.108000	 64.1755
5.192000	 64.017
5.276000	 64.1331
5.359999	 64.1044
5.444000	 64.1021
5.528000	 63.9965
5.612000	 63.8945
5.696000	 63.8155
5.780000	 63.509
5.864000	 63.7566
5.948000	 63.6917
6.032000	 63.8925
6.116000	 63.6055
6.200000	 63.7271
6.284000	 63.8487
6.368000	 63.7045
6.452000	 63.6919
6.536000	 63.6463
6.620000	 63.6607
6.704000	 63.6164
6.788000	 63.6406
6.872000	 63.4611
6.956000	 63.4168
7.040000	 63.5441
7.124000	 63.6045
7.208000	 63.33
7.292000	 63.3366
7.376000	 63.3953
7.460000	 63.2973
7.544000	 63.3143
7.628000	 63.4423
7.712000	 63.2929
7.796000	 63.1096
7.880000	 63.1261
7.964000	 63.1798
8.048000	 63.1015
8.132000	 63.1613
8.216000	 63.1314
8.300000	 63.121
8.384000	 63.1582
8.468000	 63.0026
8.552000	 63.0195
8.635999	 63.0922
8.719999	 63.0097
8.804000	 63.0436
8.888000	 62.9272
8.972000	 62.9616
9.056000	 63.0577
9.140000	 63.0332
9.224000	 62.8435
9.308000	 63.0523
9.391999	 62.8683
9.475999	 62.9006
9.560000	 62.9993
9.644000	 63.0049
9.728000	 62.8947
9.812000	 62.735
9.896000	 62.8022
9.980000	 62.8595
10.064	62.7859
10.148	63.0182
10.232	62.9224
10.316	62.9726
10.4	63.0136
10.484	62.9977
10.568	62.8466
10.652	62.9419
10.736	63.0181
10.82	63.1364
10.904	62.897
10.988	62.858
11.072	62.9463
11.156	62.6799
11.24	62.6812
11.324	62.8153
11.408	62.8139
11.492	62.7329
11.576	62.9034
11.66	62.7932
11.744	62.6365
11.828	62.8309
11.912	62.8904
11.996	62.8501
12.08	62.8849
12.164	63.0849
12.248	63.1963
12.332	63.0687
12.416	62.856
12.5	62.5886
12.584	62.7249
12.668	62.8842
12.752	62.8605
12.836	62.6263
12.92	62.5886
13.004	62.6318
13.088	62.6037
13.172	62.6745
13.256	62.576
13.34	62.4762
13.424	62.5373
13.508	62.6093
13.592	62.6859
13.676	62.747
13.76	62.7039
13.844	62.6155
13.928	62.6053
14.012	62.5433
14.096	62.4481
14.18	62.3746
14.264	62.3925
14.348	62.5731
14.432	62.6198
14.516	62.5183
14.6	62.3875
14.684	62.17
14.768	62.0743
14.852	62.2364
14.936	62.4439
15.02	62.501
15.104	62.4159
15.188	62.2467
15.272	62.1458
15.356	62.1963
15.44	62.258
15.524	62.281
15.608	62.2983
15.692	62.2464
15.776	62.1436
15.86	62.1248
15.944	62.2062
16.028	62.2983
16.112	62.3349
16.196	62.2693
16.28	62.1617
16.364	62.1575
16.448	62.1824
16.532	62.0154
16.616	61.7713
16.7	61.7643
16.784	61.9451
16.868	62.0538
16.952	62.0796
17.036	62.2051
17.12	62.4767
17.204	62.7298
17.288	62.8462
17.372	62.9023
17.456	62.9757
17.54	62.9496
17.624	62.6514
17.708	62.1839
17.792	61.8888
17.876	61.915
17.96	62.0446
18.044	62.0036
18.128	61.7443
18.212	61.3965
18.296	61.0856
18.38	60.8623
18.464	60.7907
18.548	61.0078
18.632	61.6232
18.716	62.5125
18.8	63.2616
18.884	63.4073
18.968	62.8225
19.052	61.8755
19.136	61.1353
19.22	60.9455
19.304	61.2444
19.388	61.7123
19.472	61.9958
19.556	61.8905
19.64	61.429
19.724	60.8331
19.808	60.3686
19.892	60.1899
19.976	60.2793
20.06	60.5089
20.144	60.7618
20.228	61.0047
20.312	61.2324
20.396	61.3882
20.48	61.3412
20.564	60.9886
20.648	60.3998
20.732	59.8259
20.816	59.5614
20.9	59.7424
20.984	60.2656
21.068	60.8707
21.152	61.2976
21.236	61.4326
21.32	61.3486
21.404	61.2352
21.488	61.2605
21.572	61.4624
21.656	61.7325
21.74	61.8891
21.824	61.7887
21.908	61.4119
21.992	60.8557
22.076	60.2733
22.16	59.8155
22.244	59.5744
22.328	59.586
22.412	59.8246
22.496	60.2027
22.58	60.6124
22.664	60.9545
22.748	61.1662
22.832	61.2398
22.916	61.1926
23	61.0494
23.084	60.8257
23.168	60.536
23.252	60.2252
23.336	60.0003
23.42	60.0031
23.504	60.3686
23.588	61.146
23.672	62.2506
23.756	63.4528
23.84	64.4743
23.924	65.0513
24.008	65.0502
24.092	64.516
24.176	63.6022
24.26	62.4936
24.344	61.3554
24.428	60.295
24.512	59.3984
24.596	58.7683
24.68	58.5444
24.764	58.8584
24.848	59.769
24.932	61.1849
25.016	62.8462
25.1	64.4305
25.184	65.5788
25.268	66.0056
25.352	65.5587
25.436	64.1739
25.52	61.8748
25.604	58.7617
25.688	55.0366
25.772	51.0629
25.856	47.3523
25.94	44.4636
26.024	42.8941
26.108	42.9115
26.192	44.4411
26.276	47.1186
26.36	50.3572
26.444	53.5612
26.528	56.3323
26.612	58.5301
26.696	60.338
26.78	62.1675
26.864	64.4174
26.948	67.2387
27.028	70.243