Folder: Masteroppgave/Bakgrunnsmateriale/MATLAB/FTIR/ftir_data/subAa/Mapping_121 (part 39)

File: BZ1503107-1_t89.asc
PE IR       SPECTRUM    SPECTRUM    ASCII       PEDS        1.60
  -1
BZ2D65~1.ASC
17/04/07
20:36:45.00
17/04/07
20:37:11.00
tln
$BZ1503107-1_t0089$<tbV0>[13.0,7.8,8.0,0.0,27,1,0]
27.028
64

2002,4.07
MIRTGS : RIGHTBACK : INTERNAL 2
MIR : ON : INTERNAL 2
OPTKBR

0.200000
8
8.000000
FILLER
RATIO
SPECTRUM
UNLOCKED 256

DOUBLE
64
COMBINED
1
0
0

0.002000
RATIO

1
0
TRUE
51149
0
LEFT NOT FITTED RIGHT NOT FITTED 0
NONE
NONE
15600
12
4.427000
51148
TRUE
1 0 8 72 0 0 0 0

15798

#HDR
-1
-1
#GR
µM
%T
2.38419e-05
0.0
2.000000
0.002000
12515
8
82.3045
42.5834
#DATA
2.000000	 64.1441
2.084000	 63.7079
2.168000	 64.693
2.252000	 50.0276
2.336000	 64.7258
2.420000	 64.3484
2.504000	 64.4197
2.588000	 64.4829
2.672000	 64.5701
2.756000	 64.3925
2.840000	 64.646
2.924000	 64.5456
3.008000	 64.3502
3.092000	 64.4302
3.176000	 64.4519
3.260000	 64.481
3.344000	 64.3778
3.428000	 64.4966
3.512000	 64.3663
3.596000	 64.4854
3.680000	 64.4332
3.764000	 64.4263
3.848000	 64.4132
3.932000	 64.3468
4.016000	 64.4128
4.100000	 64.3836
4.184000	 64.2602
4.268000	 64.306
4.352000	 64.2857
4.436000	 64.3039
4.520000	 64.3029
4.604000	 64.2125
4.688000	 64.3442
4.772000	 64.1678
4.856000	 64.2328
4.940000	 64.1761
5.024000	 64.141
5.108000	 64.1442
5.192000	 63.933
5.276000	 64.1205
5.359999	 64.1079
5.444000	 64.0887
5.528000	 64.0192
5.612000	 63.9315
5.696000	 63.8829
5.780000	 63.765
5.864000	 63.8584
5.948000	 63.8459
6.032000	 63.8676
6.116000	 63.8679
6.200000	 63.7614
6.284000	 63.9406
6.368000	 63.8631
6.452000	 63.7755
6.536000	 63.7307
6.620000	 63.7221
6.704000	 63.8107
6.788000	 63.7738
6.872000	 63.7373
6.956000	 63.4119
7.040000	 63.6126
7.124000	 63.5921
7.208000	 63.4774
7.292000	 63.5835
7.376000	 63.5718
7.460000	 63.4749
7.544000	 63.481
7.628000	 63.566
7.712000	 63.5062
7.796000	 63.3675
7.880000	 63.4878
7.964000	 63.4091
8.048000	 63.4273
8.132000	 63.4213
8.216000	 63.5403
8.300000	 63.4096
8.384000	 63.4537
8.468000	 63.3025
8.552000	 63.3369
8.635999	 63.3008
8.719999	 63.2937
8.804000	 63.4454
8.888000	 63.2628
8.972000	 63.1168
9.056000	 63.0758
9.140000	 63.2725
9.224000	 63.11
9.308000	 63.1736
9.391999	 63.1549
9.475999	 63.1186
9.560000	 63.235
9.644000	 63.2492
9.728000	 63.1212
9.812000	 63.111
9.896000	 63.0582
9.980000	 63.0857
10.064	63.2256
10.148	63.329
10.232	63.2759
10.316	63.1233
10.4	63.137
10.484	63.0165
10.568	63.0817
10.652	63.312
10.736	63.2143
10.82	63.2882
10.904	63.0322
10.988	63.1072
11.072	63.1338
11.156	63.0902
11.24	63.0491
11.324	63.0772
11.408	63.1134
11.492	63.1995
11.576	63.2158
11.66	63.0976
11.744	63.055
11.828	63.1929
11.912	63.1334
11.996	63.0992
12.08	63.1147
12.164	63.1595
12.248	63.266
12.332	63.2047
12.416	62.9793
12.5	62.8044
12.584	63.0617
12.668	63.2709
12.752	63.2827
12.836	63.1326
12.92	63.0641
13.004	63.0213
13.088	62.9972
13.172	62.9519
13.256	62.7772
13.34	62.8439
13.424	63.08
13.508	63.0626
13.592	63.0279
13.676	63.0746
13.76	62.9859
13.844	62.7813
13.928	62.7202
14.012	62.7285
14.096	62.8015
14.18	62.8428
14.264	62.7715
14.348	62.6646
14.432	62.7153
14.516	62.8931
14.6	62.8629
14.684	62.6491
14.768	62.5444
14.852	62.5767
14.936	62.6486
15.02	62.744
15.104	62.8267
15.188	62.7713
15.272	62.5622
15.356	62.4135
15.44	62.4756
15.524	62.6042
15.608	62.6679
15.692	62.7443
15.776	62.8855
15.86	62.9904
15.944	62.8981
16.028	62.5951
16.112	62.2657
16.196	62.0016
16.28	61.7772
16.364	61.7148
16.448	61.8993
16.532	62.1565
16.616	62.3427
16.7	62.483
16.784	62.5759
16.868	62.6302
16.952	62.7182
17.036	62.81
17.12	62.7799
17.204	62.6038
17.288	62.392
17.372	62.2635
17.456	62.2926
17.54	62.4726
17.624	62.6712
17.708	62.7494
17.792	62.748
17.876	62.8201
17.96	62.988
18.044	63.1219
18.128	63.144
18.212	63.0975
18.296	62.989
18.38	62.7167
18.464	62.2481
18.548	61.774
18.632	61.5566
18.716	61.6514
18.8	61.8567
18.884	61.9685
18.968	61.995
19.052	62.0985
19.136	62.2944
19.22	62.3752
19.304	62.1814
19.388	61.8629
19.472	61.7254
19.556	61.8723
19.64	62.0469
19.724	61.8458
19.808	61.0955
19.892	60.0203
19.976	59.0931
20.06	58.7255
20.144	59.0523
20.228	59.9354
20.312	61.0811
20.396	62.1623
20.48	62.8984
20.564	63.1383
20.648	62.9223
20.732	62.4788
20.816	62.0863
20.9	61.8967
20.984	61.8566
21.068	61.7902
21.152	61.5875
21.236	61.317
21.32	61.1621
21.404	61.2715
21.488	61.6401
21.572	62.1302
21.656	62.5895
21.74	62.9385
21.824	63.1821
21.908	63.3426
21.992	63.3905
22.076	63.245
22.16	62.83
22.244	62.1656
22.328	61.3974
22.412	60.7636
22.496	60.4871
22.58	60.6594
22.664	61.2081
22.748	61.9073
22.832	62.5105
22.916	62.8561
23	62.9496
23.084	62.9266
23.168	62.9405
23.252	63.0297
23.336	63.1085
23.42	63.0392
23.504	62.7306
23.588	62.1806
23.672	61.4449
23.756	60.5891
23.84	59.6482
23.924	58.644
24.008	57.622
24.092	56.685
24.176	55.9879
24.26	55.6775
24.344	55.8588
24.428	56.5493
24.512	57.6627
24.596	59.0429
24.68	60.4881
24.764	61.786
24.848	62.783
24.932	63.3777
25.016	63.5525
25.1	63.3957
25.184	63.08
25.268	62.7813
25.352	62.5971
25.436	62.5667
25.52	62.6245
25.604	62.6129
25.688	62.4332
25.772	62.1493
25.856	61.9826
25.94	62.1681
26.024	62.8732
26.108	64.1258
26.192	65.7851
26.276	67.6162
26.36	69.3853
26.444	70.9259
26.528	72.2053
26.612	73.2798
26.696	74.3541
26.78	75.7422
26.864	77.6991
26.948	80.1341
27.028	82.3045

File: BZ1503107-1_t89_cm-1.asc
PE IR       SPECTRUM    SPECTRUM    ASCII       PEDS        1.60
  -1
BZ6136~1.ASC
17/04/07
20:36:45.00
17/04/07
20:36:45.00
tln
$BZ1503107-1_t0089$<tbV0>[13.0,7.8,8.0,0.0,27,1,0]
370
64

2002,4.07
MIRTGS : RIGHTBACK : INTERNAL 2
MIR : ON : INTERNAL 2
OPTKBR

0.200000
8
8.000000
FILLER
RATIO
SPECTRUM
UNLOCKED 256

DOUBLE
64
COMBINED
1
0
0

1.000000
RATIO

1
0
TRUE
51149
0
LEFT NOT FITTED RIGHT NOT FITTED 0
NONE
NONE
15600
12
4.427000
51148
TRUE
1 0 8 72 0 0 0 0

15798

#HDR
-1
-1
#GR
CM-1
%T
2.38419e-05
0.0
5000
-1.000000
4631
8
82.3045
42.2561
#DATA
5000	64.1441
4984	64.029
4968	63.9503
4952	66.6242
4936	65.2844
4920	63.7962
4904	65.5834
4888	64.7393
4872	64.7718
4856	63.6942
4840	63.9031
4824	64.2639
4808	63.862
4792	63.9756
4776	64.1705
4760	63.5366
4744	64.0064
4728	63.7778
4712	64.132
4696	64.0988
4680	64.4427
4664	64.5381
4648	64.2215
4632	64.825
4616	64.6746
4600	64.552
4584	64.4084
4568	64.9739
4552	64.6704
4536	65.1893
4520	65.314
4504	65.3368
4488	64.4112
4472	65.9415
4456	63.8855
4440	51.2293
4424	66.3702
4408	65.348
4392	64.6515
4376	64.6874
4360	65.1515
4344	64.7897
4328	65.0493
4312	64.8368
4296	64.5406
4280	64.6958
4264	64.1769
4248	64.4307
4232	64.1372
4216	64.0381
4200	64.4844
4184	64.4538
4168	64.5864
4152	64.366
4136	64.2411
4120	64.13
4104	64.3924
4088	64.305
4072	64.4553
4056	64.2494
4040	64.6255
4024	64.6243
4008	64.3178
3992	64.4395
3976	64.4744
3960	64.5465
3944	64.3569
3928	64.8169
3912	64.3949
3896	64.5277
3880	64.4576
3864	64.4828
3848	64.5463
3832	64.7742
3816	64.3622
3800	64.424
3784	64.6055
3768	64.3955
3752	64.5619
3736	64.4969
3720	64.6426
3704	64.6392
3688	64.6109
3672	64.4369
3656	64.5285
3640	64.6404
3624	64.2589
3608	64.5855
3592	64.7579
3576	64.5717
3560	64.4982
3544	64.5065
3528	64.7354
3512	64.5715
3496	64.7167
3480	64.6664
3464	64.6595
3448	64.5208
3432	64.5715
3416	64.6647
3400	64.4492
3384	64.5781
3368	64.4256
3352	64.5736
3336	64.4206
3320	64.3904
3304	64.5129
3288	64.5561
3272	64.4867
3256	64.4902
3240	64.4469
3224	64.4977
3208	64.4382
3192	64.5667
3176	64.5068
3160	64.6262
3144	64.4955
3128	64.418
3112	64.5424
3096	64.5219
3080	64.4307
3064	64.5053
3048	64.6504
3032	64.5889
3016	64.6221
3000	64.6177
2984	64.4126
2968	64.3227
2952	64.349
2936	64.4851
2920	64.4573
2904	64.3281
2888	64.4194
2872	64.368
2856	64.42
2840	64.3667
2824	64.417
2808	64.4005
2792	64.4397
2776	64.4932
2760	64.5003
2744	64.4806
2728	64.4795
2712	64.5152
2696	64.4838
2680	64.51
2664	64.4778
2648	64.471
2632	64.5036
2616	64.5018
2600	64.3975
2584	64.4653
2568	64.5254
2552	64.322
2536	64.371
2520	64.4196
2504	64.251
2488	64.4095
2472	64.3893
2456	64.5221
2440	64.396
2424	64.3094
2408	64.2805
2392	64.2895
2376	64.385
2360	64.3093
2344	64.2946
2328	64.2449
2312	64.223
2296	64.3159
2280	64.2182
2264	64.3035
2248	64.3262
2232	64.2822
2216	64.2793
2200	64.0994
2184	64.2266
2168	64.2316
2152	64.2144
2136	64.3724
2120	64.225
2104	64.2808
2088	64.1983
2072	63.9996
2056	64.2743
2040	64.1244
2024	64.176
2008	64.0433
1992	64.136
1976	64.0656
1960	64.149
1944	64.0394
1928	63.9521
1912	64.1445
1896	64.1291
1880	64.0356
1864	64.1044
1848	64.0587
1832	64.0737
1816	63.9621
1800	64.0465
1784	63.922
1768	64.0054
1752	63.8125
1736	63.7181
1720	63.7831
1704	63.8631
1688	63.8487
1672	63.7775
1656	63.8668
1640	63.8626
1624	63.7105
1608	63.8098
1592	63.9451
1576	63.7933
1560	63.9135
1544	63.7715
1528	63.6923
1512	63.6924
1496	63.867
1480	63.6481
1464	63.7629
1448	63.6525
1432	63.5222
1416	63.6713
1400	63.4274
1384	63.5723
1368	63.5837
1352	63.5668
1336	63.415
1320	63.5836
1304	63.5076
1288	63.4002
1272	63.4392
1256	63.4087
1240	63.4451
1224	63.51
1208	63.4207
1192	63.4458
1176	63.3159
1160	63.2962
1144	63.3303
1128	63.274
1112	63.0619
1096	63.2924
1080	63.1321
1064	63.1499
1048	63.2358
1032	63.1953
1016	63.1206
1000	63.1125
984	 63.3325
968	 63.1071
952	 62.978
936	 63.2523
920	 63.0964
904	 63.1322
888	 63.0744
872	 63.1987
856	 63.0605
840	 63.1451
824	 63.1184
808	 63.1185
792	 63.1858
776	 63.0818
760	 62.9702
744	 63.0963
728	 63.0344
712	 62.7499
696	 62.6559
680	 62.6045
664	 62.7923
648	 62.4633
632	 62.9595
616	 61.893
600	 62.4312
584	 62.7753
568	 62.6354
552	 63.1465
536	 61.5571
520	 62.366
504	 60.6841
488	 62.9634
472	 61.4749
456	 63.3682
440	 61.7351
424	 62.2044
408	 57.6297
392	 62.6195
376	 73.08
370	 82.3045

File: BZ1503107-1_t90.asc
PE IR       SPECTRUM    SPECTRUM    ASCII       PEDS        1.60
  -1
BZ394B~1.ASC
17/04/07
20:41:23.00
17/04/07
20:41:49.00
tln
$BZ1503107-1_t0090$<tbV0>[10.4,7.8,8.0,0.0,27,1,0]
27.028
64

2002,4.07
MIRTGS : RIGHTBACK : INTERNAL 2
MIR : ON : INTERNAL 2
OPTKBR

0.200000
8
8.000000
FILLER
RATIO
SPECTRUM
UNLOCKED 256

DOUBLE
64
COMBINED
1
0
0

0.002000
RATIO

1
0
TRUE
51149
0
LEFT NOT FITTED RIGHT NOT FITTED 0
NONE
NONE
15600
12
4.427000
51148
TRUE
1 0 8 72 0 0 0 0

15798

#HDR
-1
-1
#GR
µM
%T
2.38419e-05
0.0
2.000000
0.002000
12515
8
75.7704
52.6259
#DATA
2.000000	 59.0833
2.084000	 59.1116
2.168000	 59.0392
2.252000	 62.4452
2.336000	 59.3715
2.420000	 59.5864
2.504000	 59.86
2.588000	 59.9058
2.672000	 60.011
2.756000	 59.9562
2.840000	 60.1781
2.924000	 60.1532
3.008000	 60.2412
3.092000	 60.2821
3.176000	 60.3472
3.260000	 60.3355
3.344000	 60.4183
3.428000	 60.5134
3.512000	 60.3605
3.596000	 60.6335
3.680000	 60.7165
3.764000	 60.6977
3.848000	 60.759
3.932000	 60.7963
4.016000	 60.9725
4.100000	 60.9677
4.184000	 61.0663
4.268000	 60.9882
4.352000	 61.132
4.436000	 61.1265
4.520000	 61.0912
4.604000	 61.1745
4.688000	 61.2168
4.772000	 61.1784
4.856000	 61.2451
4.940000	 61.2385
5.024000	 61.2339
5.108000	 61.3011
5.192000	 61.2706
5.276000	 61.4515
5.359999	 61.3784
5.444000	 61.4938
5.528000	 61.3613
5.612000	 61.4057
5.696000	 61.2984
5.780000	 61.0287
5.864000	 61.3544
5.948000	 61.3885
6.032000	 61.4111
6.116000	 61.4843
6.200000	 61.4776
6.284000	 61.4906
6.368000	 61.4842
6.452000	 61.452
6.536000	 61.4714
6.620000	 61.474
6.704000	 61.5821
6.788000	 61.5273
6.872000	 61.4169
6.956000	 61.6553
7.040000	 61.5694
7.124000	 61.7442
7.208000	 61.6126
7.292000	 61.6593
7.376000	 61.5562
7.460000	 61.512
7.544000	 61.7401
7.628000	 61.7302
7.712000	 61.6882
7.796000	 61.5702
7.880000	 61.5906
7.964000	 61.7392
8.048000	 61.7076
8.132000	 61.6692
8.216000	 61.5868
8.300000	 61.7649
8.384000	 61.7766
8.468000	 61.7458
8.552000	 61.5426
8.635999	 61.7092
8.719999	 61.6883
8.804000	 61.788
8.888000	 61.7543
8.972000	 61.7573
9.056000	 61.8631
9.140000	 61.9323
9.224000	 61.65
9.308000	 61.6984
9.391999	 61.9612
9.475999	 61.8282
9.560000	 61.8583
9.644000	 61.8993
9.728000	 61.7417
9.812000	 61.7593
9.896000	 61.7292
9.980000	 61.7746
10.064	61.9365
10.148	62.098
10.232	62.0687
10.316	61.9914
10.4	61.8283
10.484	61.882
10.568	61.9075
10.652	62.007
10.736	62.0133
10.82	62.1307
10.904	62.1746
10.988	62.1568
11.072	61.9672
11.156	62.1317
11.24	62.1937
11.324	62.1098
11.408	61.9941
11.492	62.1462
11.576	62.0548
11.66	62.1179
11.744	62.0662
11.828	62.1942
11.912	62.2279
11.996	62.0077
12.08	61.9842
12.164	62.2561
12.248	62.2565
12.332	62.134
12.416	62.0501
12.5	62.0044
12.584	62.1141
12.668	62.2748
12.752	62.2315
12.836	61.9732
12.92	61.948
13.004	62.1589
13.088	62.2885
13.172	62.1656
13.256	62.1425
13.34	62.1633
13.424	62.1111
13.508	62.2317
13.592	62.3967
13.676	62.3494
13.76	62.0876
13.844	61.9531
13.928	62.016
14.012	62.1073
14.096	62.1413
14.18	62.0697
14.264	62.0093
14.348	62.0255
14.432	62.112
14.516	62.172
14.6	62.0406
14.684	61.8812
14.768	61.955
14.852	62.1449
14.936	62.1698
15.02	62.0486
15.104	62.0838
15.188	62.2096
15.272	62.1324
15.356	61.9738
15.44	61.9108
15.524	61.8777
15.608	61.8773
15.692	61.9263
15.776	61.9866
15.86	62.0519
15.944	62.0338
16.028	61.878
16.112	61.7574
16.196	61.7696
16.28	61.7801
16.364	61.7393
16.448	61.7426
16.532	61.8569
16.616	62.065
16.7	62.2394
16.784	62.2724
16.868	62.2509
16.952	62.2605
17.036	62.2346
17.12	62.1724
17.204	62.1678
17.288	62.1686
17.372	62.0623
17.456	61.9506
17.54	62.0319
17.624	62.2576
17.708	62.3571
17.792	62.1923
17.876	61.9409
17.96	61.8988
18.044	62.1507
18.128	62.4703
18.212	62.5505
18.296	62.3162
18.38	61.9953
18.464	61.8845
18.548	62.0784
18.632	62.428
18.716	62.6683
18.8	62.5977
18.884	62.2516
18.968	61.9391
19.052	62.0211
19.136	62.5508
19.22	63.1726
19.304	63.4233
19.388	63.1395
19.472	62.531
19.556	61.9341
19.64	61.563
19.724	61.4717
19.808	61.6183
19.892	61.8825
19.976	62.0781
20.06	62.0767
20.144	61.9379
20.228	61.8823
20.312	62.0571
20.396	62.3665
20.48	62.555
20.564	62.4592
20.648	62.1517
20.732	61.8548
20.816	61.7293
20.9	61.7535
20.984	61.7484
21.068	61.5132
21.152	60.9474
21.236	60.1173
21.32	59.2527
21.404	58.6622
21.488	58.5841
21.572	59.0553
21.656	59.8849
21.74	60.7546
21.824	61.389
21.908	61.6871
21.992	61.7097
22.076	61.5833
22.16	61.4185
22.244	61.2815
22.328	61.2216
22.412	61.2736
22.496	61.4408
22.58	61.6912
22.664	61.9738
22.748	62.24
22.832	62.4658
22.916	62.654
23	62.7885
23.084	62.8465
23.168	62.8008
23.252	62.6445
23.336	62.4199
23.42	62.2146
23.504	62.1212
23.588	62.1904
23.672	62.4054
23.756	62.6761
23.84	62.8865
23.924	62.9265
24.008	62.742
24.092	62.369
24.176	61.9339
24.26	61.644
24.344	61.7451
24.428	62.4171
24.512	63.7473
24.596	65.655
24.68	67.8739
24.764	70.0061
24.848	71.6668
24.932	72.5943
25.016	72.7588
25.1	72.3219
25.184	71.5383
25.268	70.6326
25.352	69.7413
25.436	68.8792
25.52	68.0184
25.604	67.1868
25.688	66.4246
25.772	65.7724
25.856	65.2439
25.94	64.7068
26.024	63.9607
26.108	62.8772
26.192	61.4735
26.276	59.9253
26.36	58.5188
26.444	57.5503
26.528	57.1713
26.612	57.2624
26.696	57.4644
26.78	57.299
26.864	56.3654
26.948	54.6089
27.028	52.6259

File: BZ1503107-1_t90_cm-1.asc
PE IR       SPECTRUM    SPECTRUM    ASCII       PEDS        1.60
  -1
BZ68A5~1.ASC
17/04/07
20:41:23.00
17/04/07
20:41:23.00
tln
$BZ1503107-1_t0090$<tbV0>[10.4,7.8,8.0,0.0,27,1,0]
370
64

2002,4.07
MIRTGS : RIGHTBACK : INTERNAL 2
MIR : ON : INTERNAL 2
OPTKBR

0.200000
8
8.000000
FILLER
RATIO
SPECTRUM
UNLOCKED 256

DOUBLE
64
COMBINED
1
0
0

1.000000
RATIO

1
0
TRUE
51149
0
LEFT NOT FITTED RIGHT NOT FITTED 0
NONE
NONE
15600
12
4.427000
51148
TRUE
1 0 8 72 0 0 0 0

15798

#HDR
-1
-1
#GR
CM-1
%T
2.38419e-05
0.0
5000
-1.000000
4631
8
76.3023
52.6259
#DATA
5000	59.0833
4984	59.6649
4968	59.2379
4952	60.3852
4936	60.7582
4920	58.5257
4904	59.4529
4888	59.1859
4872	58.4244
4856	58.96
4840	59.0597
4824	59.3958
4808	58.8528
4792	59.0995
4776	59.3843
4760	59.6866
4744	58.8099
4728	59.3008
4712	59.0951
4696	59.1862
4680	59.5955
4664	59.5673
4648	59.5521
4632	59.4212
4616	59.1585
4600	59.3013
4584	59.3259
4568	59.2555
4552	59.0373
4536	59.0858
4520	58.9861
4504	58.9173
4488	58.3619
4472	59.2596
4456	56.8747
4440	60.638
4424	58.7008
4408	59.3993
4392	59.4375
4376	58.6262
4360	59.108
4344	59.1796
4328	59.3704
4312	59.2438
4296	59.3762
4280	59.3513
4264	58.737
4248	59.3467
4232	59.3998
4216	59.3505
4200	59.5975
4184	59.7109
4168	59.509
4152	59.902
4136	59.3883
4120	59.7584
4104	59.725
4088	59.6663
4072	59.6214
4056	59.7047
4040	60.0497
4024	59.6022
4008	59.7508
3992	59.8104
3976	59.5681
3960	59.9684
3944	59.3788
3928	59.7375
3912	59.5415
3896	59.8103
3880	59.6374
3864	59.9056
3848	59.7914
3832	59.9745
3816	59.7653
3800	59.929
3784	59.8049
3768	60.0047
3752	60.0245
3736	60.1212
3720	60.1011
3704	60.0152
3688	60.0761
3672	59.9044
3656	59.9192
3640	60.237
3624	59.9587
3608	60.2116
3592	60.325
3576	59.9274
3560	60.1097
3544	59.9063
3528	60.3108
3512	60.0028
3496	60.166
3480	60.0403
3464	60.1836
3448	59.9335
3432	60.0659
3416	60.16
3400	60.0784
3384	60.2207
3368	60.2324
3352	60.2813
3336	60.3262
3320	60.2704
3304	60.2005
3288	60.2391
3272	60.2656
3256	60.3772
3240	60.1812
3224	60.206
3208	60.355
3192	60.3732
3176	60.3989
3160	60.2435
3144	60.4321
3128	60.288
3112	60.5249
3096	60.4761
3080	60.2906
3064	60.4058
3048	60.5708
3032	60.3859
3016	60.5073
3000	60.4642
2984	60.3363
2968	60.3261
2952	60.2746
2936	60.317
2920	60.5229
2904	60.6157
2888	60.4542
2872	60.5143
2856	60.4401
2840	60.3971
2824	60.6879
2808	60.5917
2792	60.6821
2776	60.6652
2760	60.7503
2744	60.6937
2728	60.7775
2712	60.774
2696	60.6019
2680	60.5872
2664	60.7165
2648	60.867
2632	60.7271
2616	60.7479
2600	60.7532
2584	60.8915
2568	60.9214
2552	60.8163
2536	60.8581
2520	60.7896
2504	60.8098
2488	60.9565
2472	60.9756
2456	60.9805
2440	60.9479
2424	60.9699
2408	60.9668
2392	61.0322
2376	61.0058
2360	61.1267
2344	61.0072
2328	61.1135
2312	61.0973
2296	61.1467
2280	61.0504
2264	61.1292
2248	61.0832
2232	61.104
2216	61.0489
2200	61.0454
2184	61.0256
2168	61.2042
2152	61.165
2136	61.2528
2120	61.2802
2104	61.304
2088	61.2014
2072	61.1991
2056	61.2601
2040	61.2079
2024	61.2366
2008	61.2281
1992	61.2117
1976	61.2118
1960	61.2839
1944	61.2604
1928	61.2996
1912	61.3077
1896	61.4462
1880	61.4228
1864	61.383
1848	61.465
1832	61.4479
1816	61.4243
1800	61.5085
1784	61.4159
1768	61.465
1752	61.2499
1736	60.9624
1720	61.2458
1704	61.364
1688	61.3754
1672	61.3618
1656	61.4153
1640	61.4367
1624	61.3978
1608	61.5274
1592	61.4797
1576	61.3498
1560	61.4757
1544	61.4757
1528	61.4757
1512	61.4601
1496	61.507
1480	61.5624
1464	61.4498
1448	61.549
1432	61.6587
1416	61.5869
1400	61.6752
1384	61.5961
1368	61.6589
1352	61.5861
1336	61.4713
1320	61.8107
1304	61.6234
1288	61.6169
1272	61.5768
1256	61.743
1240	61.7154
1224	61.6606
1208	61.7423
1192	61.7743
1176	61.7017
1160	61.6325
1144	61.7329
1128	61.7099
1112	61.7372
1096	61.9549
1080	61.6322
1064	61.9567
1048	61.867
1032	61.7933
1016	61.703
1000	61.7679
984	 62.0938
968	 61.9664
952	 61.8829
936	 62.0291
920	 62.1732
904	 61.981
888	 62.2094
872	 62.1484
856	 62.1096
840	 62.2425
824	 62.1602
808	 62.0955
792	 62.1984
776	 61.9162
760	 62.1912
744	 62.1201
728	 62.1638
712	 62.1328
696	 62.0404
680	 61.8755
664	 62.0356
648	 61.9142
632	 62.0253
616	 61.7828
600	 62.1848
584	 62.1708
568	 62.209
552	 62.4335
536	 62.5222
520	 63.2328
504	 61.7193
488	 62.5599
472	 60.6287
456	 61.7149
440	 62.178
424	 62.185
408	 63.7047
392	 68.1178
376	 57.2249
370	 52.6259

File: BZ1503107-1_t91.asc
PE IR       SPECTRUM    SPECTRUM    ASCII       PEDS        1.60
  -1
BZ3D4B~1.ASC
17/04/07
20:46:00.00
17/04/07
20:46:26.00
tln
$BZ1503107-1_t0091$<tbV0>[7.8,7.8,8.0,0.0,27,1,0]
27.028
64

2002,4.07
MIRTGS : RIGHTBACK : INTERNAL 2
MIR : ON : INTERNAL 2
OPTKBR

0.200000
8
8.000000
FILLER
RATIO
SPECTRUM
UNLOCKED 256

DOUBLE
64
COMBINED
1
0
0

0.002000
RATIO

1
0
TRUE
51149
0
LEFT NOT FITTED RIGHT NOT FITTED 0
NONE
NONE
15600
12
4.427000
51148
TRUE
1 0 8 72 0 0 0 0

15798

#HDR
-1
-1
#GR
µM
%T
2.38419e-05
0.0
2.000000
0.002000
12515
8
80.4322
51.448
#DATA
2.000000	 64.25
2.084000	 65.165
2.168000	 64.9931
2.252000	 80.4322
2.336000	 64.6724
2.420000	 65.1346
2.504000	 65.0688
2.588000	 65.0761
2.672000	 65.1873
2.756000	 65.0482
2.840000	 65.0308
2.924000	 65.0272
3.008000	 64.9041
3.092000	 65.0449
3.176000	 64.8231
3.260000	 64.8255
3.344000	 64.7873
3.428000	 64.7579
3.512000	 64.7148
3.596000	 64.9015
3.680000	 64.7377
3.764000	 64.7985
3.848000	 64.741
3.932000	 64.617
4.016000	 64.7747
4.100000	 64.5957
4.184000	 64.62
4.268000	 64.5892
4.352000	 64.5649
4.436000	 64.51
4.520000	 64.4675
4.604000	 64.3495
4.688000	 64.4109
4.772000	 64.3555
4.856000	 64.4569
4.940000	 64.2682
5.024000	 64.3793
5.108000	 64.2495
5.192000	 64.2176
5.276000	 64.2786
5.359999	 64.1744
5.444000	 64.193
5.528000	 64.2117
5.612000	 63.987
5.696000	 64.0455
5.780000	 63.7779
5.864000	 63.865
5.948000	 63.947
6.032000	 64.0482
6.116000	 63.9515
6.200000	 63.914
6.284000	 63.8075
6.368000	 63.8374
6.452000	 63.7342
6.536000	 63.7586
6.620000	 63.6532
6.704000	 63.8538
6.788000	 63.7805
6.872000	 63.6314
6.956000	 63.6356
7.040000	 63.6495
7.124000	 63.7278
7.208000	 63.6536
7.292000	 63.6232
7.376000	 63.4509
7.460000	 63.5365
7.544000	 63.471
7.628000	 63.552
7.712000	 63.4846
7.796000	 63.3564
7.880000	 63.3402
7.964000	 63.339
8.048000	 63.3543
8.132000	 63.2961
8.216000	 63.4005
8.300000	 63.3956
8.384000	 63.2749
8.468000	 63.2096
8.552000	 63.0968
8.635999	 63.191
8.719999	 63.2026
8.804000	 63.2988
8.888000	 63.2257
8.972000	 63.2476
9.056000	 63.2806
9.140000	 63.2619
9.224000	 63.0475
9.308000	 63.0632
9.391999	 63.1321
9.475999	 63.1511
9.560000	 63.1531
9.644000	 63.1727
9.728000	 63.1249
9.812000	 63.0369
9.896000	 62.9415
9.980000	 62.9973
10.064	63.0976
10.148	63.2367
10.232	63.3375
10.316	63.1247
10.4	62.9927
10.484	63.0124
10.568	63.1364
10.652	63.2013
10.736	63.1286
10.82	63.2827
10.904	62.9529
10.988	63.1101
11.072	63.0767
11.156	63.018
11.24	63.128
11.324	62.9585
11.408	62.9666
11.492	63.1291
11.576	63.1088
11.66	63.0657
11.744	63.0661
11.828	62.8625
11.912	62.8761
11.996	62.8781
12.08	62.8386
12.164	62.8539
12.248	62.9973
12.332	63.1142
12.416	62.9939
12.5	62.8701
12.584	62.9334
12.668	62.9009
12.752	62.8208
12.836	62.8097
12.92	62.8962
13.004	62.8777
13.088	62.7425
13.172	62.6839
13.256	62.7821
13.34	62.9173
13.424	62.9074
13.508	62.9095
13.592	63.013
13.676	63.0931
13.76	63.0571
13.844	62.9818
13.928	62.9864
14.012	62.7966
14.096	62.4848
14.18	62.3196
14.264	62.2919
14.348	62.2838
14.432	62.3182
14.516	62.4263
14.6	62.4548
14.684	62.359
14.768	62.3623
14.852	62.5023
14.936	62.6384
15.02	62.7401
15.104	62.7678
15.188	62.6648
15.272	62.546
15.356	62.4464
15.44	62.2738
15.524	62.143
15.608	62.1727
15.692	62.2625
15.776	62.3149
15.86	62.2976
15.944	62.2087
16.028	62.0985
16.112	62.0333
16.196	62.0224
16.28	62.0576
16.364	62.2007
16.448	62.4187
16.532	62.5036
16.616	62.422
16.7	62.386
16.784	62.4398
16.868	62.4128
16.952	62.216
17.036	61.9299
17.12	61.7286
17.204	61.7915
17.288	62.1481
17.372	62.6117
17.456	62.9566
17.54	63.0893
17.624	62.9845
17.708	62.6338
17.792	62.1711
17.876	61.8821
17.96	61.9551
18.044	62.2707
18.128	62.5151
18.212	62.4724
18.296	62.1686
18.38	61.7819
18.464	61.4723
18.548	61.3331
18.632	61.4265
18.716	61.7175
18.8	61.9814
18.884	61.9739
18.968	61.7436
19.052	61.6672
19.136	61.9756
19.22	62.4143
19.304	62.5233
19.388	62.2219
19.472	61.9095
19.556	62.0242
19.64	62.5594
19.724	63.0452
19.808	62.9712
19.892	62.2102
19.976	61.0936
20.06	60.1626
20.144	59.8558
20.228	60.327
20.312	61.4073
20.396	62.6869
20.48	63.6992
20.564	64.126
20.648	63.9195
20.732	63.275
20.816	62.4856
20.9	61.8054
20.984	61.3793
21.068	61.238
21.152	61.3185
21.236	61.4922
21.32	61.6135
21.404	61.5918
21.488	61.427
21.572	61.1983
21.656	61.0152
21.74	60.9461
21.824	60.9872
21.908	61.0727
21.992	61.1197
22.076	61.0801
22.16	60.9679
22.244	60.8395
22.328	60.7597
22.412	60.7697
22.496	60.8748
22.58	61.0566
22.664	61.2921
22.748	61.5565
22.832	61.8093
22.916	61.9826
23	61.994
23.084	61.8019
23.168	61.4574
23.252	61.1126
23.336	60.9846
23.42	61.2451
23.504	61.916
23.588	62.8158
23.672	63.6353
23.756	64.0544
23.84	63.9392
23.924	63.4074
24.008	62.7356
24.092	62.2134
24.176	62.0215
24.26	62.1458
24.344	62.4521
24.428	62.8103
24.512	63.1512
24.596	63.4703
24.68	63.802
24.764	64.169
24.848	64.5379
24.932	64.7587
25.016	64.6043
25.1	63.8928
25.184	62.5123
25.268	60.5111
25.352	58.1177
25.436	55.6765
25.52	53.5445
25.604	52.0137
25.688	51.4484
25.772	52.1999
25.856	54.4482
25.94	58.0691
26.024	62.5207
26.108	66.9037
26.192	70.2831
26.276	71.9591
26.36	71.6723
26.444	69.648
26.528	66.5301
26.612	63.0985
26.696	60.2687
26.78	58.9248
26.864	59.7677
26.948	63.0904
27.028	68.2785