Folder: Masteroppgave/Bakgrunnsmateriale/MATLAB/FTIR/ftir_data/subAa/Mapping_121 (part 7)

File: BZ1503107-1_t09.asc
PE IR       SPECTRUM    SPECTRUM    ASCII       PEDS        1.60
  -1
BZ1D65~1.ASC
17/04/07
13:57:25.00
17/04/07
13:57:52.00
tln
$BZ1503107-1_t0009$<tbV0>[-7.8,-13.0,8.0,0.0,27,1,0]
27.028
64

2002,4.07
MIRTGS : RIGHTBACK : INTERNAL 2
MIR : ON : INTERNAL 2
OPTKBR

0.200000
8
8.000000
FILLER
RATIO
SPECTRUM
UNLOCKED 256

DOUBLE
64
COMBINED
1
0
0

0.002000
RATIO

1
0
TRUE
51149
0
LEFT NOT FITTED RIGHT NOT FITTED 0
NONE
NONE
15600
12
4.427000
51148
TRUE
1 0 8 72 0 0 0 0

15798

#HDR
-1
-1
#GR
µM
%T
2.38419e-05
0.0
2.000000
0.002000
12515
8
91.8674
57.5744
#DATA
2.000000	 64.0221
2.084000	 65.7383
2.168000	 64.6506
2.252000	 71.1217
2.336000	 64.8651
2.420000	 64.8799
2.504000	 65.059
2.588000	 65.1695
2.672000	 65.4226
2.756000	 65.2703
2.840000	 64.9856
2.924000	 65.1616
3.008000	 65.1578
3.092000	 64.982
3.176000	 65.069
3.260000	 65.1208
3.344000	 65.0514
3.428000	 65.0364
3.512000	 65.0022
3.596000	 65.0741
3.680000	 65.0872
3.764000	 65.1104
3.848000	 64.9966
3.932000	 65.0608
4.016000	 64.8746
4.100000	 65.0136
4.184000	 64.9974
4.268000	 65.0505
4.352000	 64.9207
4.436000	 64.9894
4.520000	 64.8983
4.604000	 64.9962
4.688000	 64.9271
4.772000	 64.9251
4.856000	 64.8255
4.940000	 64.9302
5.024000	 64.8989
5.108000	 64.8655
5.192000	 64.9362
5.276000	 64.9351
5.359999	 64.8179
5.444000	 64.8514
5.528000	 64.9089
5.612000	 64.7487
5.696000	 64.8163
5.780000	 64.4978
5.864000	 64.7084
5.948000	 64.7265
6.032000	 64.8258
6.116000	 64.7402
6.200000	 64.694
6.284000	 64.5979
6.368000	 64.6322
6.452000	 64.6111
6.536000	 64.627
6.620000	 64.8213
6.704000	 64.6685
6.788000	 64.7131
6.872000	 64.8382
6.956000	 64.7909
7.040000	 64.6911
7.124000	 64.5601
7.208000	 64.4962
7.292000	 64.4183
7.376000	 64.5982
7.460000	 64.5606
7.544000	 64.3843
7.628000	 64.3585
7.712000	 64.4317
7.796000	 64.4559
7.880000	 64.4018
7.964000	 64.3286
8.048000	 64.4162
8.132000	 64.3825
8.216000	 64.4435
8.300000	 64.1734
8.384000	 64.3647
8.468000	 64.2344
8.552000	 64.3866
8.635999	 64.2139
8.719999	 64.1842
8.804000	 64.3397
8.888000	 64.3573
8.972000	 64.3157
9.056000	 64.2776
9.140000	 64.3524
9.224000	 64.4906
9.308000	 64.3013
9.391999	 64.105
9.475999	 64.2539
9.560000	 64.1487
9.644000	 64.1183
9.728000	 64.1995
9.812000	 64.3176
9.896000	 64.2034
9.980000	 64.2027
10.064	64.2078
10.148	64.1058
10.232	64.0441
10.316	64.1517
10.4	64.2764
10.484	64.27
10.568	64.3367
10.652	64.2527
10.736	64.3073
10.82	64.3239
10.904	64.4513
10.988	64.4399
11.072	64.2838
11.156	64.1486
11.24	64.0212
11.324	64.0982
11.408	64.265
11.492	64.2941
11.576	64.2296
11.66	64.3014
11.744	64.3592
11.828	64.395
11.912	64.2448
11.996	64.1
12.08	64.0288
12.164	64.0159
12.248	64.031
12.332	64.1631
12.416	64.1771
12.5	64.0505
12.584	64.0766
12.668	64.1562
12.752	64.3093
12.836	64.2852
12.92	64.1356
13.004	64.0275
13.088	64.1191
13.172	64.2646
13.256	64.079
13.34	63.9081
13.424	63.9833
13.508	64.1543
13.592	64.1343
13.676	64.1738
13.76	64.3806
13.844	64.389
13.928	64.3002
14.012	64.2785
14.096	64.1772
14.18	64.0532
14.264	64.0218
14.348	64.0373
14.432	64.0993
14.516	64.2145
14.6	64.3441
14.684	64.3915
14.768	64.2602
14.852	64.0971
14.936	64.096
15.02	64.2259
15.104	64.3821
15.188	64.3754
15.272	64.2154
15.356	64.1854
15.44	64.2529
15.524	64.1693
15.608	64.0309
15.692	64.0923
15.776	64.2827
15.86	64.3336
15.944	64.2112
16.028	64.1209
16.112	64.1246
16.196	64.1076
16.28	64.0331
16.364	63.924
16.448	63.808
16.532	63.778
16.616	63.8865
16.7	64.0134
16.784	64.0058
16.868	63.8692
16.952	63.7214
17.036	63.6462
17.12	63.6651
17.204	63.8058
17.288	64.0884
17.372	64.4504
17.456	64.7365
17.54	64.8116
17.624	64.6992
17.708	64.5294
17.792	64.3622
17.876	64.1593
17.96	63.8782
18.044	63.4993
18.128	63.0345
18.212	62.5912
18.296	62.3774
18.38	62.5292
18.464	62.9629
18.548	63.4352
18.632	63.7444
18.716	63.8198
18.8	63.6798
18.884	63.4106
18.968	63.1767
19.052	63.1661
19.136	63.4854
19.22	64.0672
19.304	64.6331
19.388	64.8754
19.472	64.7389
19.556	64.4811
19.64	64.4335
19.724	64.7077
19.808	65.1099
19.892	65.2964
19.976	65.0748
20.06	64.5872
20.144	64.1712
20.228	64.0464
20.312	64.1292
20.396	64.162
20.48	64.0038
20.564	63.7656
20.648	63.6978
20.732	63.9534
20.816	64.4896
20.9	65.1142
20.984	65.5757
21.068	65.6643
21.152	65.3174
21.236	64.669
21.32	64.0047
21.404	63.6319
21.488	63.7109
21.572	64.178
21.656	64.7758
21.74	65.1825
21.824	65.1771
21.908	64.7552
21.992	64.1112
22.076	63.5155
22.16	63.1642
22.244	63.0595
22.328	63.0529
22.412	62.9857
22.496	62.8181
22.58	62.6563
22.664	62.6633
22.748	62.9303
22.832	63.3969
22.916	63.901
23	64.2507
23.084	64.3404
23.168	64.1887
23.252	63.9066
23.336	63.6364
23.42	63.4717
23.504	63.438
23.588	63.4967
23.672	63.5815
23.756	63.6238
23.84	63.5857
23.924	63.4775
24.008	63.3631
24.092	63.362
24.176	63.6318
24.26	64.2858
24.344	65.3579
24.428	66.7686
24.512	68.2951
24.596	69.6729
24.68	70.6912
24.764	71.2746
24.848	71.4889
24.932	71.4846
25.016	71.3975
25.1	71.2627
25.184	71.0263
25.268	70.5794
25.352	69.8095
25.436	68.7278
25.52	67.5506
25.604	66.6557
25.688	66.2731
25.772	66.5734
25.856	67.726
25.94	70.2211
26.024	73.9583
26.108	77.5715
26.192	79.9983
26.276	81.1622
26.36	83.0535
26.444	86.5683
26.528	90.7722
26.612	91.3315
26.696	85.4707
26.78	74.9036
26.864	66.5359
26.948	67.394
27.028	75.4718

File: BZ1503107-1_t09_cm-1.asc
PE IR       SPECTRUM    SPECTRUM    ASCII       PEDS        1.60
  -1
BZ6132~1.ASC
17/04/07
13:57:25.00
17/04/07
13:57:25.00
tln
$BZ1503107-1_t0009$<tbV0>[-7.8,-13.0,8.0,0.0,27,1,0]
370
64

2002,4.07
MIRTGS : RIGHTBACK : INTERNAL 2
MIR : ON : INTERNAL 2
OPTKBR

0.200000
8
8.000000
FILLER
RATIO
SPECTRUM
UNLOCKED 256

DOUBLE
64
COMBINED
1
0
0

1.000000
RATIO

1
0
TRUE
51149
0
LEFT NOT FITTED RIGHT NOT FITTED 0
NONE
NONE
15600
12
4.427000
51148
TRUE
1 0 8 72 0 0 0 0

15798

#HDR
-1
-1
#GR
CM-1
%T
2.38419e-05
0.0
5000
-1.000000
4631
8
91.7465
56.4675
#DATA
5000	64.0221
4984	66.1395
4968	63.6207
4952	66.4316
4936	65.0323
4920	64.4642
4904	64.9436
4888	64.8567
4872	64.8254
4856	64.934
4840	65.085
4824	65.4849
4808	64.7353
4792	65.5532
4776	64.7738
4760	65.5705
4744	64.9026
4728	64.5369
4712	64.8386
4696	64.7425
4680	65.2759
4664	64.6305
4648	64.9989
4632	64.8252
4616	64.4748
4600	64.7424
4584	65.1151
4568	64.6448
4552	64.3889
4536	65.2136
4520	64.168
4504	64.9805
4488	68.1108
4472	65.3233
4456	62.5791
4440	73.3798
4424	65.3573
4408	64.7856
4392	65.0518
4376	64.7811
4360	64.9444
4344	64.9369
4328	64.6482
4312	64.7771
4296	64.7674
4280	64.8441
4264	64.7252
4248	64.8987
4232	65.0756
4216	64.8562
4200	64.9479
4184	65.1601
4168	65.0876
4152	65.0107
4136	65.0518
4120	65.0068
4104	65.2267
4088	65.0864
4072	65.3099
4056	65.1128
4040	65.1712
4024	65.1601
4008	65.0502
3992	65.0206
3976	65.1344
3960	64.6931
3944	65.1016
3928	64.899
3912	64.9462
3896	65.2549
3880	65.1285
3864	65.1699
3848	65.2077
3832	65.2556
3816	65.1226
3800	65.1258
3784	65.08
3768	65.2301
3752	65.4489
3736	65.2405
3720	65.2129
3704	65.3745
3688	65.316
3672	65.2917
3656	64.9843
3640	65.2224
3624	65.2606
3608	65.2119
3592	65.0823
3576	65.2823
3560	65.1195
3544	65.1897
3528	65.3821
3512	65.0539
3496	65.1383
3480	65.1156
3464	64.9115
3448	64.9934
3432	65.1071
3416	65.2481
3400	65.1297
3384	65.1477
3368	65.2037
3352	65.1419
3336	65.2174
3320	65.2583
3304	64.9915
3288	65.262
3272	65.087
3256	65.0824
3240	65.0269
3224	64.9373
3208	65.279
3192	65.029
3176	65.1418
3160	65.2021
3144	65.0793
3128	65.2228
3112	65.1106
3096	64.976
3080	65.1135
3064	65.1486
3048	65.1649
3032	65.1555
3016	65.1839
3000	65.1837
2984	65.045
2968	65.1044
2952	64.9788
2936	64.9012
2920	65.0442
2904	64.9668
2888	65.1669
2872	65.0835
2856	65.0241
2840	65.1349
2824	65.081
2808	65.142
2792	65.0581
2776	65.0425
2760	65.0269
2744	65.0336
2728	65.0962
2712	65.026
2696	65.1119
2680	65.079
2664	65.0006
2648	64.9425
2632	65.0164
2616	64.9883
2600	64.9875
2584	65.0633
2568	65.0502
2552	65.0157
2536	65.0585
2520	65.0106
2504	65.0755
2488	64.9281
2472	65.1585
2456	65.0418
2440	65.0031
2424	64.961
2408	65.0244
2392	64.9835
2376	65.0799
2360	65.0267
2344	65.0438
2328	64.9656
2312	65.0715
2296	64.9281
2280	64.9878
2264	64.9773
2248	64.9765
2232	64.876
2216	64.8992
2200	64.8405
2184	64.9318
2168	65.0671
2152	64.7696
2136	64.8918
2120	65.0184
2104	64.9212
2088	64.9912
2072	64.8981
2056	64.8752
2040	64.9191
2024	64.9289
2008	64.851
1992	64.9015
1976	64.8756
1960	64.8792
1944	64.8706
1928	64.9527
1912	64.8999
1896	64.9303
1880	64.8546
1864	64.8019
1848	64.9347
1832	64.7804
1816	64.9948
1800	64.8559
1784	64.7606
1768	64.8626
1752	64.7952
1736	64.5975
1720	64.6521
1704	64.7286
1688	64.6448
1672	64.7805
1656	64.8585
1640	64.724
1624	64.7409
1608	64.7455
1592	64.5977
1576	64.6829
1560	64.7573
1544	64.6571
1528	64.6545
1512	64.7994
1496	64.7388
1480	64.6906
1464	64.7292
1448	64.5802
1432	64.7024
1416	64.6696
1400	64.5476
1384	64.512
1368	64.459
1352	64.5905
1336	64.5218
1320	64.2482
1304	64.4031
1288	64.4176
1272	64.4567
1256	64.3244
1240	64.3442
1224	64.4786
1208	64.2292
1192	64.3696
1176	64.2104
1160	64.2617
1144	64.2277
1128	64.3529
1112	64.3342
1096	64.3314
1080	64.5188
1064	64.1007
1048	64.198
1032	64.116
1016	64.3106
1000	64.1974
984	 64.0821
968	 64.1858
952	 64.3024
936	 64.2806
920	 64.3603
904	 64.3066
888	 64.0135
872	 64.3162
856	 64.3128
840	 64.2586
824	 64.0274
808	 64.2087
792	 64.1032
776	 64.1944
760	 64.262
744	 64.0209
728	 64.3302
712	 64.253
696	 64.0468
680	 64.3742
664	 64.3075
648	 64.2508
632	 64.3392
616	 64.0795
600	 63.9731
584	 63.6681
568	 64.733
552	 63.1038
536	 63.7916
520	 64.1476
504	 65.2276
488	 63.9704
472	 65.0735
456	 64.5984
440	 62.8413
424	 63.4938
408	 68.2564
392	 67.6775
376	 91.7465
370	 75.4718

File: BZ1503107-1_t10.asc
PE IR       SPECTRUM    SPECTRUM    ASCII       PEDS        1.60
  -1
BZ294B~1.ASC
17/04/07
14:02:02.00
17/04/07
14:02:28.00
tln
$BZ1503107-1_t0010$<tbV0>[-10.4,-13.0,8.0,0.0,27,1,0]
27.028
64

2002,4.07
MIRTGS : RIGHTBACK : INTERNAL 2
MIR : ON : INTERNAL 2
OPTKBR

0.200000
8
8.000000
FILLER
RATIO
SPECTRUM
UNLOCKED 256

DOUBLE
64
COMBINED
1
0
0

0.002000
RATIO

1
0
TRUE
51149
0
LEFT NOT FITTED RIGHT NOT FITTED 0
NONE
NONE
15600
12
4.427000
51148
TRUE
1 0 8 72 0 0 0 0

15798

#HDR
-1
-1
#GR
µM
%T
2.38419e-05
0.0
2.000000
0.002000
12515
8
78.656
51.0753
#DATA
2.000000	 65.6181
2.084000	 65.8174
2.168000	 64.7645
2.252000	 70.0895
2.336000	 65.0037
2.420000	 64.9865
2.504000	 64.8252
2.588000	 64.9764
2.672000	 65.5024
2.756000	 65.3984
2.840000	 64.9602
2.924000	 65.1706
3.008000	 65.1934
3.092000	 64.9887
3.176000	 65.0819
3.260000	 65.1236
3.344000	 65.1076
3.428000	 65.1521
3.512000	 65.1494
3.596000	 65.1616
3.680000	 65.1335
3.764000	 65.0852
3.848000	 64.9744
3.932000	 65.0238
4.016000	 65.0481
4.100000	 64.9476
4.184000	 64.9827
4.268000	 65.0825
4.352000	 64.9398
4.436000	 65.0583
4.520000	 64.9751
4.604000	 64.952
4.688000	 64.9044
4.772000	 64.8597
4.856000	 64.8587
4.940000	 64.9775
5.024000	 64.8143
5.108000	 64.9025
5.192000	 64.8597
5.276000	 64.8919
5.359999	 64.8457
5.444000	 64.83
5.528000	 64.802
5.612000	 64.7496
5.696000	 64.7304
5.780000	 64.5855
5.864000	 64.8148
5.948000	 64.7976
6.032000	 64.7907
6.116000	 64.7921
6.200000	 64.6297
6.284000	 64.6829
6.368000	 64.618
6.452000	 64.6552
6.536000	 64.5633
6.620000	 64.6719
6.704000	 64.7216
6.788000	 64.6577
6.872000	 64.6694
6.956000	 64.7327
7.040000	 64.6912
7.124000	 64.5002
7.208000	 64.4836
7.292000	 64.5367
7.376000	 64.4834
7.460000	 64.5655
7.544000	 64.3929
7.628000	 64.5054
7.712000	 64.4961
7.796000	 64.3565
7.880000	 64.3541
7.964000	 64.4047
8.048000	 64.3348
8.132000	 64.3443
8.216000	 64.3858
8.300000	 64.4372
8.384000	 64.3805
8.468000	 64.1952
8.552000	 64.1956
8.635999	 64.3525
8.719999	 64.2343
8.804000	 64.4388
8.888000	 64.4797
8.972000	 64.2879
9.056000	 64.233
9.140000	 64.5332
9.224000	 64.4956
9.308000	 64.5298
9.391999	 64.1732
9.475999	 64.1685
9.560000	 64.1688
9.644000	 64.1551
9.728000	 64.2267
9.812000	 64.2792
9.896000	 64.3275
9.980000	 64.2446
10.064	64.2147
10.148	64.1555
10.232	64.2464
10.316	64.318
10.4	64.3965
10.484	64.4399
10.568	64.3424
10.652	64.319
10.736	64.2866
10.82	64.1866
10.904	64.2684
10.988	64.3133
11.072	64.311
11.156	64.3466
11.24	64.3463
11.324	64.352
11.408	64.1757
11.492	64.2694
11.576	64.1617
11.66	64.1525
11.744	64.3519
11.828	64.4599
11.912	64.372
11.996	64.2787
12.08	64.1332
12.164	64.1358
12.248	64.0675
12.332	63.9926
12.416	64.1647
12.5	64.1086
12.584	64.0729
12.668	64.0838
12.752	64.2143
12.836	64.2969
12.92	64.3114
13.004	64.127
13.088	64.0071
13.172	64.0498
13.256	64.034
13.34	63.9607
13.424	63.8241
13.508	63.8494
13.592	63.8295
13.676	63.9147
13.76	64.1619
13.844	64.1868
13.928	64.1233
14.012	64.1235
14.096	64.0758
14.18	63.9639
14.264	63.907
14.348	63.9322
14.432	63.979
14.516	63.9286
14.6	63.8103
14.684	63.827
14.768	63.9207
14.852	64.0036
14.936	64.1587
15.02	64.2886
15.104	64.2672
15.188	64.2418
15.272	64.2973
15.356	64.3029
15.44	64.238
15.524	64.1805
15.608	64.1064
15.692	64.0075
15.776	63.9721
15.86	64.0632
15.944	64.1262
16.028	63.9977
16.112	63.8698
16.196	63.9666
16.28	64.1004
16.364	64.0703
16.448	64.1111
16.532	64.4636
16.616	64.8541
16.7	64.8751
16.784	64.5983
16.868	64.3704
16.952	64.2836
17.036	64.2337
17.12	64.2314
17.204	64.3256
17.288	64.4327
17.372	64.4441
17.456	64.3628
17.54	64.2511
17.624	64.1647
17.708	64.1331
17.792	64.1287
17.876	64.066
17.96	63.8925
18.044	63.6336
18.128	63.3605
18.212	63.1575
18.296	63.1112
18.38	63.2373
18.464	63.435
18.548	63.5928
18.632	63.767
18.716	64.1135
18.8	64.6294
18.884	65.0496
18.968	65.0934
19.052	64.7688
19.136	64.4134
19.22	64.3908
19.304	64.7152
19.388	65.0247
19.472	64.9076
19.556	64.2314
19.64	63.2418
19.724	62.4268
19.808	62.2143
19.892	62.6677
19.976	63.4122
20.06	63.9055
20.144	63.8423
20.228	63.3417
20.312	62.7644
20.396	62.3989
20.48	62.3056
20.564	62.4111
20.648	62.6495
20.732	62.996
20.816	63.4114
20.9	63.7951
20.984	64.018
21.068	64.0101
21.152	63.7858
21.236	63.4299
21.32	63.0532
21.404	62.7546
21.488	62.5974
21.572	62.6052
21.656	62.781
21.74	63.1091
21.824	63.5214
21.908	63.8796
21.992	64.0368
22.076	63.9261
22.16	63.6152
22.244	63.2921
22.328	63.1436
22.412	63.2706
22.496	63.6423
22.58	64.1419
22.664	64.637
22.748	65.0201
22.832	65.2245
22.916	65.2199
23	65.0312
23.084	64.7442
23.168	64.4648
23.252	64.2531
23.336	64.111
23.42	63.9577
23.504	63.6952
23.588	63.2812
23.672	62.7552
23.756	62.2188
23.84	61.8051
23.924	61.604
24.008	61.6285
24.092	61.8203
24.176	62.0705
24.26	62.2543
24.344	62.275
24.428	62.1305
24.512	61.9324
24.596	61.902
24.68	62.3204
24.764	63.4086
24.848	65.2093
24.932	67.5277
25.016	69.9443
25.1	71.9204
25.184	72.9223
25.268	72.6194
25.352	70.9411
25.436	68.113
25.52	64.6481
25.604	61.2093
25.688	58.262
25.772	56.1406
25.856	55.1217
25.94	55.7173
26.024	57.8094
26.108	60.0307
26.192	61.4396
26.276	62.1898
26.36	64.5641
26.444	69.5117
26.528	75.8041
26.612	78.6267
26.696	74.572
26.78	64.6562
26.864	55.6546
26.948	55.0177
27.028	61.6596

File: BZ1503107-1_t10_cm-1.asc
PE IR       SPECTRUM    SPECTRUM    ASCII       PEDS        1.60
  -1
BZ68A1~1.ASC
17/04/07
14:02:02.00
17/04/07
14:02:02.00
tln
$BZ1503107-1_t0010$<tbV0>[-10.4,-13.0,8.0,0.0,27,1,0]
370
64

2002,4.07
MIRTGS : RIGHTBACK : INTERNAL 2
MIR : ON : INTERNAL 2
OPTKBR

0.200000
8
8.000000
FILLER
RATIO
SPECTRUM
UNLOCKED 256

DOUBLE
64
COMBINED
1
0
0

1.000000
RATIO

1
0
TRUE
51149
0
LEFT NOT FITTED RIGHT NOT FITTED 0
NONE
NONE
15600
12
4.427000
51148
TRUE
1 0 8 72 0 0 0 0

15798

#HDR
-1
-1
#GR
CM-1
%T
2.38419e-05
0.0
5000
-1.000000
4631
8
78.6213
50.9288
#DATA
5000	65.6181
4984	63.9537
4968	64.9447
4952	64.1806
4936	64.1444
4920	64.5442
4904	64.8258
4888	64.9443
4872	64.9127
4856	65.3017
4840	65.0474
4824	64.7544
4808	64.6954
4792	65.1007
4776	64.9195
4760	65.4218
4744	64.8869
4728	64.518
4712	64.968
4696	64.6519
4680	65.2456
4664	64.8239
4648	64.9826
4632	64.7676
4616	64.7921
4600	64.7182
4584	65.1082
4568	64.7593
4552	64.5513
4536	64.6106
4520	64.3378
4504	64.7816
4488	68.4481
4472	65.3306
4456	59.6233
4440	71.3888
4424	65.1405
4408	65.2689
4392	65.0132
4376	65.2025
4360	65.3793
4344	64.8999
4328	65.2935
4312	64.9625
4296	64.8472
4280	65.028
4264	64.7205
4248	65.0071
4232	64.9917
4216	64.8727
4200	65.123
4184	64.6634
4168	64.9467
4152	64.9142
4136	65.2477
4120	65.0448
4104	65.4808
4088	65.1874
4072	65.229
4056	65.3337
4040	65.081
4024	65.0299
4008	64.8975
3992	64.8385
3976	65.0041
3960	65.1768
3944	65.2797
3928	64.9911
3912	65.2298
3896	65.0102
3880	65.1441
3864	64.9765
3848	65.3471
3832	65.4352
3816	65.3549
3800	65.2406
3784	64.9528
3768	65.0704
3752	65.4216
3736	65.2553
3720	65.1913
3704	65.1214
3688	65.3728
3672	65.4068
3656	65.3732
3640	65.2095
3624	65.313
3608	65.3275
3592	65.0882
3576	65.1894
3560	65.1552
3544	65.3512
3528	64.9122
3512	65.0789
3496	65.1851
3480	65.1153
3464	65.0479
3448	65.119
3432	65.1947
3416	65.1586
3400	65.0292
3384	65.1048
3368	65.1988
3352	64.9695
3336	65.254
3320	65.1683
3304	65.1106
3288	65.2261
3272	65.0732
3256	65.1277
3240	64.9644
3224	65.0936
3208	65.2508
3192	65.1352
3176	65.102
3160	65.1269
3144	65.1302
3128	65.0335
3112	64.9352
3096	65.1801
3080	64.9979
3064	65.1055
3048	65.1417
3032	65.1751
3016	65.2859
3000	65.1266
2984	65.0162
2968	65.0682
2952	65.0377
2936	65.0059
2920	65.1621
2904	65.1099
2888	65.1128
2872	65.1387
2856	65.2146
2840	65.1314
2824	65.0897
2808	65.0533
2792	65.135
2776	65.1421
2760	65.106
2744	65.0341
2728	65.2588
2712	65.1008
2696	65.2177
2680	65.1349
2664	65.0673
2648	65.0231
2632	65.1132
2616	64.9844
2600	64.9569
2584	65.0546
2568	65.0141
2552	65.0062
2536	65.0838
2520	65.1217
2504	65.0659
2488	65.062
2472	65.0767
2456	65.0068
2440	64.9626
2424	64.9597
2408	65.1435
2392	64.9577
2376	65.0962
2360	65.1507
2344	65.0961
2328	64.9866
2312	65.0218
2296	64.9167
2280	65.0169
2264	65.032
2248	65.0931
2232	64.882
2216	64.9448
2200	64.9465
2184	64.8797
2168	65.0224
2152	64.7559
2136	64.8404
2120	64.9287
2104	64.8606
2088	64.9203
2072	64.856
2056	64.8323
2040	64.847
2024	64.9765
2008	64.9172
1992	64.8186
1976	64.8155
1960	64.9231
1944	64.8803
1928	64.8873
1912	64.9731
1896	64.8761
1880	64.8149
1864	64.8012
1848	64.8946
1832	64.7938
1816	64.806
1800	64.7994
1784	64.7813
1768	64.8022
1752	64.7174
1736	64.6109
1720	64.6805
1704	64.8664
1688	64.7295
1672	64.7835
1656	64.8195
1640	64.7444
1624	64.6954
1608	64.6664
1592	64.6891
1576	64.6282
1560	64.7765
1544	64.6959
1528	64.6083
1512	64.6786
1496	64.7181
1480	64.6662
1464	64.4607
1448	64.6621
1432	64.6558
1416	64.744
1400	64.5403
1384	64.4378
1368	64.5741
1352	64.4891
1336	64.5204
1320	64.4754
1304	64.4686
1288	64.4503
1272	64.3556
1256	64.404
1240	64.3767
1224	64.33
1208	64.4651
1192	64.3691
1176	64.1286
1160	64.3548
1144	64.2795
1128	64.4975
1112	64.2759
1096	64.4488
1080	64.5864
1064	64.1579
1048	64.2286
1032	64.1691
1016	64.3507
1000	64.2465
984	 64.1526
968	 64.3282
952	 64.4425
936	 64.358
920	 64.2308
904	 64.3042
888	 64.3771
872	 64.2515
856	 64.2015
840	 64.3817
824	 64.108
808	 64.0965
792	 64.0657
776	 64.3213
760	 64.0464
744	 63.8171
728	 64.1034
712	 64.1164
696	 63.9447
680	 63.8517
664	 64.2932
648	 64.2443
632	 64.0117
616	 64.0426
600	 64.9191
584	 64.2333
568	 64.1793
552	 63.3976
536	 63.8455
520	 64.4172
504	 62.3272
488	 62.3103
472	 63.6493
456	 63.9448
440	 64.9402
424	 63.2988
408	 61.9361
392	 65.0584
376	 78.6213
370	 61.6596

File: BZ1503107-1_t11.asc
PE IR       SPECTRUM    SPECTRUM    ASCII       PEDS        1.60
  -1
BZ2D4B~1.ASC
17/04/07
14:06:39.00
17/04/07
14:07:06.00
tln
$BZ1503107-1_t0011$<tbV0>[-13.0,-13.0,8.0,0.0,27,1,0]
27.028
64

2002,4.07
MIRTGS : RIGHTBACK : INTERNAL 2
MIR : ON : INTERNAL 2
OPTKBR

0.200000
8
8.000000
FILLER
RATIO
SPECTRUM
UNLOCKED 256

DOUBLE
64
COMBINED
1
0
0

0.002000
RATIO

1
0
TRUE
51149
0
LEFT NOT FITTED RIGHT NOT FITTED 0
NONE
NONE
15600
12
4.427000
51148
TRUE
1 0 8 72 0 0 0 0

15798

#HDR
-1
-1
#GR
µM
%T
2.38419e-05
0.0
2.000000
0.002000
12515
8
92.8159
61.6059
#DATA
2.000000	 65.1273
2.084000	 66.365
2.168000	 64.5792
2.252000	 81.9068
2.336000	 64.6605
2.420000	 65.4704
2.504000	 65.1242
2.588000	 64.8413
2.672000	 65.3617
2.756000	 65.4835
2.840000	 65.0831
2.924000	 65.1979
3.008000	 65.2486
3.092000	 65.0167
3.176000	 65.1244
3.260000	 65.1214
3.344000	 65.0163
3.428000	 64.8943
3.512000	 65.0996
3.596000	 65.113
3.680000	 65.1288
3.764000	 65.1865
3.848000	 65.0902
3.932000	 65.093
4.016000	 65.2508
4.100000	 65.1025
4.184000	 65.0468
4.268000	 65.0183
4.352000	 64.9531
4.436000	 64.9832
4.520000	 64.9221
4.604000	 64.9118
4.688000	 64.8532
4.772000	 64.8087
4.856000	 64.8711
4.940000	 64.99
5.024000	 64.9249
5.108000	 64.9829
5.192000	 64.8466
5.276000	 64.9131
5.359999	 64.9582
5.444000	 64.7853
5.528000	 64.7716
5.612000	 64.7837
5.696000	 64.8062
5.780000	 64.6241
5.864000	 64.7299
5.948000	 64.7992
6.032000	 64.8982
6.116000	 64.7947
6.200000	 64.6689
6.284000	 64.6541
6.368000	 64.7577
6.452000	 64.7963
6.536000	 64.7017
6.620000	 64.8467
6.704000	 64.8183
6.788000	 64.7738
6.872000	 64.676
6.956000	 64.6981
7.040000	 64.6456
7.124000	 64.5011
7.208000	 64.4944
7.292000	 64.5174
7.376000	 64.549
7.460000	 64.4779
7.544000	 64.4842
7.628000	 64.3628
7.712000	 64.3801
7.796000	 64.3672
7.880000	 64.3683
7.964000	 64.4071
8.048000	 64.2468
8.132000	 64.2314
8.216000	 64.4387
8.300000	 64.4023
8.384000	 64.4021
8.468000	 64.2496
8.552000	 64.4172
8.635999	 64.3038
8.719999	 64.3218
8.804000	 64.4951
8.888000	 64.4443
8.972000	 64.3796
9.056000	 64.2304
9.140000	 64.4612
9.224000	 64.4588
9.308000	 64.3239
9.391999	 64.2049
9.475999	 64.3384
9.560000	 64.0626
9.644000	 64.1598
9.728000	 64.4143
9.812000	 64.4109
9.896000	 64.4191
9.980000	 64.3388
10.064	64.2379
10.148	64.4039
10.232	64.5099
10.316	64.3777
10.4	64.3814
10.484	64.3279
10.568	64.4807
10.652	64.4937
10.736	64.2741
10.82	64.323
10.904	64.4505
10.988	64.4438
11.072	64.3712
11.156	64.3544
11.24	64.121
11.324	64.0696
11.408	64.1913
11.492	64.1933
11.576	64.2452
11.66	64.3321
11.744	64.5032
11.828	64.453
11.912	64.2947
11.996	64.3183
12.08	64.3007
12.164	64.3336
12.248	64.3752
12.332	64.3049
12.416	64.1672
12.5	64.1655
12.584	64.3405
12.668	64.3348
12.752	64.2565
12.836	64.3004
12.92	64.4224
13.004	64.2897
13.088	64.1632
13.172	64.1595
13.256	64.1712
13.34	64.1857
13.424	64.1556
13.508	64.1307
13.592	64.1144
13.676	64.217
13.76	64.3054
13.844	64.1495
13.928	64.0427
14.012	64.1567
14.096	64.1871
14.18	64.1192
14.264	64.1145
14.348	64.0371
14.432	63.9376
14.516	63.8867
14.6	63.9384
14.684	64.1295
14.768	64.1537
14.852	63.9972
14.936	63.9354
15.02	63.9786
15.104	64.0148
15.188	63.9403
15.272	63.7342
15.356	63.6768
15.44	63.9042
15.524	64.1295
15.608	64.2521
15.692	64.306
15.776	64.2015
15.86	64.0617
15.944	63.9975
16.028	63.917
16.112	63.8662
16.196	63.9498
16.28	64.0966
16.364	64.2076
16.448	64.2784
16.532	64.2775
16.616	64.1315
16.7	63.8625
16.784	63.6544
16.868	63.704
16.952	63.9719
17.036	64.2133
17.12	64.3127
17.204	64.3924
17.288	64.4874
17.372	64.3952
17.456	64.0235
17.54	63.6621
17.624	63.6337
17.708	63.8417
17.792	63.9871
17.876	64.1043
17.96	64.4878
18.044	65.0828
18.128	65.3547
18.212	64.9059
18.296	64.0048
18.38	63.3597
18.464	63.3948
18.548	63.9119
18.632	64.4812
18.716	64.9077
18.8	65.2177
18.884	65.4173
18.968	65.445
19.052	65.3282
19.136	65.2296
19.22	65.2967
19.304	65.5047
19.388	65.6822
19.472	65.6664
19.556	65.4214
19.64	65.0551
19.724	64.7543
19.808	64.6243
19.892	64.5776
19.976	64.4022
20.06	64.0061
20.144	63.5508
20.228	63.3172
20.312	63.443
20.396	63.8203
20.48	64.2288
20.564	64.5218
20.648	64.6641
20.732	64.6484
20.816	64.4407
20.9	64.038
20.984	63.5281
21.068	63.0715
21.152	62.7994
21.236	62.7418
21.32	62.8453
21.404	63.0423
21.488	63.2926
21.572	63.5577
21.656	63.7777
21.74	63.892
21.824	63.8943
21.908	63.8594
21.992	63.8918
22.076	64.0429
22.16	64.263
22.244	64.4363
22.328	64.4814
22.412	64.4072
22.496	64.3104
22.58	64.2741
22.664	64.3017
22.748	64.3037
22.832	64.1705
22.916	63.8614
23	63.4623
23.084	63.131
23.168	63.0176
23.252	63.1639
23.336	63.4918
23.42	63.8503
23.504	64.0905
23.588	64.1414
23.672	64.0252
23.756	63.8323
23.84	63.6808
23.924	63.6785
24.008	63.8951
24.092	64.3501
24.176	65.0011
24.26	65.7376
24.344	66.4042
24.428	66.8714
24.512	67.0645
24.596	67.0099
24.68	66.8206
24.764	66.6416
24.848	66.5971
24.932	66.6848
25.016	66.7619
25.1	66.6689
25.184	66.2804
25.268	65.5853
25.352	64.6948
25.436	63.7522
25.52	62.9045
25.604	62.2963
25.688	61.9096
25.772	61.6897
25.856	61.6349
25.94	62.2229
26.024	63.5725
26.108	64.7591
26.192	65.0224
26.276	64.4069
26.36	64.6684
26.444	66.8875
26.528	70.8269
26.612	73.3273
26.696	72.3604
26.78	69.2773
26.864	69.4735
26.948	78.2569
27.028	92.8159