Folder: Masteroppgave/Bakgrunnsmateriale/MATLAB/FTIR/ftir_data/subAa/Mapping_121 (part 31)

File: BZ1503107-1_t69.asc
PE IR       SPECTRUM    SPECTRUM    ASCII       PEDS        1.60
  -1
BZ2D61~1.ASC
17/04/07
18:57:17.00
17/04/07
18:57:43.00
tln
$BZ1503107-1_t0069$<tbV0>[7.8,2.6,8.0,0.0,27,1,0]
27.028
64

2002,4.07
MIRTGS : RIGHTBACK : INTERNAL 2
MIR : ON : INTERNAL 2
OPTKBR

0.200000
8
8.000000
FILLER
RATIO
SPECTRUM
UNLOCKED 256

DOUBLE
64
COMBINED
1
0
0

0.002000
RATIO

1
0
TRUE
51149
0
LEFT NOT FITTED RIGHT NOT FITTED 0
NONE
NONE
15600
12
4.427000
51148
TRUE
1 0 8 72 0 0 0 0

15798

#HDR
-1
-1
#GR
µM
%T
2.38419e-05
0.0
2.000000
0.002000
12515
8
66.3639
47.737
#DATA
2.000000	 65.3958
2.084000	 64.3898
2.168000	 65.2419
2.252000	 64.6552
2.336000	 65.199
2.420000	 64.7877
2.504000	 64.8939
2.588000	 65.1601
2.672000	 65.1078
2.756000	 65.0486
2.840000	 65.1514
2.924000	 65.1121
3.008000	 64.9734
3.092000	 64.9562
3.176000	 65.1115
3.260000	 65.0106
3.344000	 64.9995
3.428000	 64.8377
3.512000	 64.7686
3.596000	 64.9391
3.680000	 64.8558
3.764000	 64.7394
3.848000	 64.7019
3.932000	 64.7695
4.016000	 64.7616
4.100000	 64.7776
4.184000	 64.5773
4.268000	 64.7045
4.352000	 64.6313
4.436000	 64.6903
4.520000	 64.6103
4.604000	 64.5485
4.688000	 64.6612
4.772000	 64.5874
4.856000	 64.5107
4.940000	 64.5133
5.024000	 64.3624
5.108000	 64.4606
5.192000	 64.3911
5.276000	 64.24
5.359999	 64.3363
5.444000	 64.2501
5.528000	 64.2189
5.612000	 64.269
5.696000	 64.2447
5.780000	 64.1008
5.864000	 64.074
5.948000	 64.1433
6.032000	 64.0758
6.116000	 64.0461
6.200000	 64.0791
6.284000	 63.9948
6.368000	 63.9445
6.452000	 63.9861
6.536000	 63.9541
6.620000	 64.0337
6.704000	 63.8855
6.788000	 63.8628
6.872000	 63.8962
6.956000	 64.0234
7.040000	 64.0473
7.124000	 63.8346
7.208000	 63.9295
7.292000	 63.9143
7.376000	 63.7308
7.460000	 63.876
7.544000	 63.9299
7.628000	 63.6947
7.712000	 63.8086
7.796000	 63.7597
7.880000	 63.713
7.964000	 63.7297
8.048000	 63.716
8.132000	 63.6025
8.216000	 63.634
8.300000	 63.7033
8.384000	 63.6947
8.468000	 63.5263
8.552000	 63.5341
8.635999	 63.6629
8.719999	 63.62
8.804000	 63.676
8.888000	 63.6112
8.972000	 63.7542
9.056000	 63.7868
9.140000	 63.5598
9.224000	 63.5852
9.308000	 63.5708
9.391999	 63.6426
9.475999	 63.7806
9.560000	 63.7942
9.644000	 63.5778
9.728000	 63.5477
9.812000	 63.4553
9.896000	 63.5386
9.980000	 63.783
10.064	63.5401
10.148	63.5934
10.232	63.7412
10.316	63.5636
10.4	63.5793
10.484	63.4063
10.568	63.5444
10.652	63.5587
10.736	63.4439
10.82	63.5378
10.904	63.5078
10.988	63.6515
11.072	63.6193
11.156	63.6058
11.24	63.6556
11.324	63.7043
11.408	63.5982
11.492	63.7458
11.576	63.4706
11.66	63.4504
11.744	63.5709
11.828	63.4708
11.912	63.4159
11.996	63.5367
12.08	63.587
12.164	63.6191
12.248	63.4524
12.332	63.43
12.416	63.4658
12.5	63.4249
12.584	63.4181
12.668	63.4125
12.752	63.4134
12.836	63.5075
12.92	63.5026
13.004	63.2816
13.088	63.2501
13.172	63.2878
13.256	63.2887
13.34	63.2452
13.424	63.0799
13.508	63.0538
13.592	63.084
13.676	62.9147
13.76	62.8396
13.844	62.926
13.928	63.027
14.012	63.3213
14.096	63.3819
14.18	63.1073
14.264	62.885
14.348	62.5785
14.432	62.5175
14.516	62.959
14.6	63.2849
14.684	63.134
14.768	62.9249
14.852	63.0356
14.936	63.2331
15.02	63.1196
15.104	63.0842
15.188	63.3807
15.272	63.4528
15.356	63.2667
15.44	63.1558
15.524	62.9507
15.608	62.6271
15.692	62.515
15.776	62.7543
15.86	63.0118
15.944	62.852
16.028	62.45
16.112	62.3507
16.196	62.6397
16.28	62.9934
16.364	63.2029
16.448	63.3114
16.532	63.4448
16.616	63.5364
16.7	63.4005
16.784	63.1056
16.868	62.86
16.952	62.6941
17.036	62.5958
17.12	62.6528
17.204	62.8662
17.288	63.1158
17.372	63.3094
17.456	63.3761
17.54	63.2666
17.624	63.0874
17.708	63.0404
17.792	63.1522
17.876	63.2385
17.96	63.1887
18.044	63.0888
18.128	63.0456
18.212	63.0582
18.296	63.0959
18.38	63.1603
18.464	63.2386
18.548	63.2825
18.632	63.2487
18.716	63.1375
18.8	62.9783
18.884	62.8081
18.968	62.677
19.052	62.6379
19.136	62.6884
19.22	62.7458
19.304	62.7189
19.388	62.6131
19.472	62.5354
19.556	62.5762
19.64	62.7072
19.724	62.8217
19.808	62.8572
19.892	62.848
19.976	62.8742
20.06	62.9783
20.144	63.115
20.228	63.1821
20.312	63.1091
20.396	62.9156
20.48	62.6841
20.564	62.4894
20.648	62.3671
20.732	62.3221
20.816	62.336
20.9	62.3685
20.984	62.359
21.068	62.2574
21.152	62.065
21.236	61.8425
21.32	61.6639
21.404	61.5701
21.488	61.5542
21.572	61.5797
21.656	61.6074
21.74	61.6094
21.824	61.582
21.908	61.5568
21.992	61.5843
22.076	61.6996
22.16	61.8929
22.244	62.104
22.328	62.2735
22.412	62.3885
22.496	62.5017
22.58	62.6816
22.664	62.9465
22.748	63.2165
22.832	63.3544
22.916	63.2513
23	62.9156
23.084	62.467
23.168	62.0861
23.252	61.8956
23.336	61.9141
23.42	62.0732
23.504	62.2832
23.588	62.5034
23.672	62.7446
23.756	63.0156
23.84	63.2916
23.924	63.4905
24.008	63.5196
24.092	63.3461
24.176	63.0371
24.26	62.7394
24.344	62.5997
24.428	62.6607
24.512	62.8356
24.596	62.9469
24.68	62.8136
24.764	62.3508
24.848	61.6347
24.932	60.8348
25.016	60.1036
25.1	59.5125
25.184	58.9673
25.268	58.2769
25.352	57.3082
25.436	56.0474
25.52	54.6634
25.604	53.4488
25.688	52.7276
25.772	52.6697
25.856	53.186
25.94	53.9569
26.024	54.5449
26.108	54.5996
26.192	53.9557
26.276	52.72
26.36	51.2703
26.444	50.1006
26.528	49.6618
26.612	50.2789
26.696	52.0682
26.78	54.8787
26.864	58.3971
26.948	62.3242
27.028	66.3275

File: BZ1503107-1_t69_cm-1.asc
PE IR       SPECTRUM    SPECTRUM    ASCII       PEDS        1.60
  -1
BZ6131~1.ASC
17/04/07
18:57:17.00
17/04/07
18:57:17.00
tln
$BZ1503107-1_t0069$<tbV0>[7.8,2.6,8.0,0.0,27,1,0]
370
64

2002,4.07
MIRTGS : RIGHTBACK : INTERNAL 2
MIR : ON : INTERNAL 2
OPTKBR

0.200000
8
8.000000
FILLER
RATIO
SPECTRUM
UNLOCKED 256

DOUBLE
64
COMBINED
1
0
0

1.000000
RATIO

1
0
TRUE
51149
0
LEFT NOT FITTED RIGHT NOT FITTED 0
NONE
NONE
15600
12
4.427000
51148
TRUE
1 0 8 72 0 0 0 0

15798

#HDR
-1
-1
#GR
CM-1
%T
2.38419e-05
0.0
5000
-1.000000
4631
8
66.3816
46.2795
#DATA
5000	65.3958
4984	65.5225
4968	65.304
4952	64.8978
4936	64.9723
4920	64.7635
4904	65.2567
4888	64.8805
4872	65.3219
4856	64.6807
4840	64.7123
4824	64.9781
4808	64.4945
4792	64.3352
4776	64.4634
4760	64.8029
4744	64.8533
4728	64.7181
4712	64.8298
4696	64.6881
4680	64.49
4664	65.0096
4648	64.453
4632	64.9786
4616	65.3117
4600	64.9858
4584	64.9966
4568	65.1917
4552	65.0123
4536	65.0499
4520	65.5443
4504	65.6651
4488	65.957
4472	65.59
4456	64.2301
4440	64.5971
4424	54.8779
4408	65.8991
4392	66.0928
4376	65.8689
4360	65.7739
4344	65.4416
4328	65.7457
4312	65.2721
4296	64.9617
4280	65.2212
4264	65.3458
4248	65.1486
4232	64.9005
4216	64.8898
4200	65.0756
4184	64.7049
4168	65.1437
4152	64.9257
4136	64.5597
4120	65.0025
4104	65.1337
4088	64.948
4072	64.787
4056	65.0681
4040	65.0736
4024	64.8375
4008	65.0613
3992	64.8925
3976	65.3436
3960	64.8931
3944	65.066
3928	64.7784
3912	64.9527
3896	65.2463
3880	64.8771
3864	65.1603
3848	65.0311
3832	65.1119
3816	65.2724
3800	65.2529
3784	65.2068
3768	64.9994
3752	65.1813
3736	64.9844
3720	65.0462
3704	65.0183
3688	65.0514
3672	65.3499
3656	64.9477
3640	65.093
3624	65.021
3608	65.1181
3592	65.1316
3576	65.0354
3560	64.9861
3544	65.1554
3528	65.2197
3512	65.2338
3496	64.9959
3480	64.9265
3464	65.0604
3448	65.1452
3432	64.8772
3416	65.0608
3400	65.0321
3384	65.0635
3368	65.1052
3352	65.0501
3336	64.8746
3320	64.8733
3304	65.1172
3288	64.8641
3272	64.8636
3256	64.9566
3240	64.768
3224	65.0214
3208	64.9193
3192	65.1445
3176	64.885
3160	64.9531
3144	65.1188
3128	64.8943
3112	64.9266
3096	64.9822
3080	64.8977
3064	65.0578
3048	65.0299
3032	64.7376
3016	64.8223
3000	65.0334
2984	64.8839
2968	64.7423
2952	64.7525
2936	64.8644
2920	64.7984
2904	64.8887
2888	64.8359
2872	64.83
2856	64.7733
2840	64.782
2824	64.8555
2808	64.9673
2792	64.8424
2776	64.9156
2760	64.9732
2744	64.8665
2728	64.9814
2712	64.8527
2696	64.8441
2680	64.9002
2664	64.82
2648	64.8253
2632	64.8631
2616	64.8632
2600	64.7213
2584	64.7503
2568	64.8441
2552	64.6597
2536	64.804
2520	64.8505
2504	64.7867
2488	64.7825
2472	64.7871
2456	64.8716
2440	64.7746
2424	64.8011
2408	64.6853
2392	64.5739
2376	64.7319
2360	64.6053
2344	64.7018
2328	64.7173
2312	64.7124
2296	64.6077
2280	64.6168
2264	64.7287
2248	64.5658
2232	64.6557
2216	64.6051
2200	64.578
2184	64.6045
2168	64.5779
2152	64.6487
2136	64.6415
2120	64.5326
2104	64.533
2088	64.5047
2072	64.4732
2056	64.5189
2040	64.4781
2024	64.5158
2008	64.4522
1992	64.3717
1976	64.4533
1960	64.4502
1944	64.4373
1928	64.4088
1912	64.4173
1896	64.233
1880	64.4149
1864	64.3452
1848	64.4195
1832	64.22
1816	64.3176
1800	64.2482
1784	64.2542
1768	64.3311
1752	64.0952
1736	64.1479
1720	64.1748
1704	64.0711
1688	64.0864
1672	64.1004
1656	64.0914
1640	64.0834
1624	64.1927
1608	64.0007
1592	63.9984
1576	63.9438
1560	63.8687
1544	64.0246
1528	63.9226
1512	64.0318
1496	63.8529
1480	63.8643
1464	63.8453
1448	63.9397
1432	64.0816
1416	63.9265
1400	63.9031
1384	63.8464
1368	63.8877
1352	63.7465
1336	63.8812
1320	63.8114
1304	63.7875
1288	63.8101
1272	63.659
1256	63.7256
1240	63.6856
1224	63.8034
1208	63.6643
1192	63.6671
1176	63.4856
1160	63.6468
1144	63.6253
1128	63.585
1112	63.7909
1096	63.6117
1080	63.6117
1064	63.6382
1048	63.8254
1032	63.5559
1016	63.4763
1000	63.7432
984	 63.6698
968	 63.5798
952	 63.3954
936	 63.4824
920	 63.4803
904	 63.6211
888	 63.6766
872	 63.7354
856	 63.4893
840	 63.4064
824	 63.6337
808	 63.4598
792	 63.4202
776	 63.5422
760	 63.2856
744	 63.0545
728	 62.8351
712	 63.4064
696	 62.5191
680	 63.0627
664	 63.0525
648	 63.166
632	 62.9311
616	 62.8097
600	 63.4848
584	 62.6587
568	 63.1213
552	 63.0475
536	 63.2231
520	 62.7482
504	 62.8545
488	 62.6533
472	 61.9726
456	 61.5569
440	 63.1568
424	 62.4949
408	 62.8314
392	 54.8205
376	 50.0652
370	 66.3275

File: BZ1503107-1_t70.asc
PE IR       SPECTRUM    SPECTRUM    ASCII       PEDS        1.60
  -1
BZ294F~1.ASC
17/04/07
19:01:54.00
17/04/07
19:02:20.00
tln
$BZ1503107-1_t0070$<tbV0>[5.2,2.6,8.0,0.0,27,1,0]
27.028
64

2002,4.07
MIRTGS : RIGHTBACK : INTERNAL 2
MIR : ON : INTERNAL 2
OPTKBR

0.200000
8
8.000000
FILLER
RATIO
SPECTRUM
UNLOCKED 256

DOUBLE
64
COMBINED
1
0
0

0.002000
RATIO

1
0
TRUE
51149
0
LEFT NOT FITTED RIGHT NOT FITTED 0
NONE
NONE
15600
12
4.427000
51148
TRUE
1 0 8 72 0 0 0 0

15798

#HDR
-1
-1
#GR
µM
%T
2.38419e-05
0.0
2.000000
0.002000
12515
8
68.3839
27.5952
#DATA
2.000000	 65.3708
2.084000	 64.6817
2.168000	 65.2373
2.252000	 66.4658
2.336000	 65.5671
2.420000	 64.9252
2.504000	 64.9512
2.588000	 65.1557
2.672000	 64.8658
2.756000	 64.8256
2.840000	 65.0002
2.924000	 64.8895
3.008000	 64.9648
3.092000	 64.9354
3.176000	 65.0616
3.260000	 65.0193
3.344000	 64.9155
3.428000	 64.8034
3.512000	 64.8099
3.596000	 64.806
3.680000	 64.7032
3.764000	 64.7764
3.848000	 64.7362
3.932000	 64.8567
4.016000	 64.7894
4.100000	 64.7638
4.184000	 64.6038
4.268000	 64.6197
4.352000	 64.4873
4.436000	 64.6219
4.520000	 64.5992
4.604000	 64.5836
4.688000	 64.5653
4.772000	 64.576
4.856000	 64.4209
4.940000	 64.448
5.024000	 64.343
5.108000	 64.4553
5.192000	 64.3049
5.276000	 64.2092
5.359999	 64.32
5.444000	 64.2535
5.528000	 64.2279
5.612000	 64.2884
5.696000	 64.1941
5.780000	 63.9334
5.864000	 64.1173
5.948000	 64.0474
6.032000	 64.0081
6.116000	 63.9629
6.200000	 64.1858
6.284000	 63.9488
6.368000	 63.9543
6.452000	 64.013
6.536000	 63.9888
6.620000	 64.0099
6.704000	 63.8481
6.788000	 63.9023
6.872000	 64.0924
6.956000	 63.8264
7.040000	 63.9109
7.124000	 63.7767
7.208000	 63.7475
7.292000	 63.6524
7.376000	 63.6878
7.460000	 63.8482
7.544000	 63.8228
7.628000	 63.7197
7.712000	 63.7621
7.796000	 63.6396
7.880000	 63.6377
7.964000	 63.5674
8.048000	 63.6513
8.132000	 63.7015
8.216000	 63.5806
8.300000	 63.689
8.384000	 63.7245
8.468000	 63.5248
8.552000	 63.5092
8.635999	 63.3935
8.719999	 63.5355
8.804000	 63.5687
8.888000	 63.5234
8.972000	 63.7295
9.056000	 63.3802
9.140000	 63.2796
9.224000	 63.345
9.308000	 63.4463
9.391999	 63.5214
9.475999	 63.6413
9.560000	 63.4574
9.644000	 63.4383
9.728000	 63.5108
9.812000	 63.3742
9.896000	 63.4379
9.980000	 63.5349
10.064	63.372
10.148	63.5685
10.232	63.6196
10.316	63.4818
10.4	63.464
10.484	63.5333
10.568	63.655
10.652	63.5521
10.736	63.4539
10.82	63.5198
10.904	63.416
10.988	63.5063
11.072	63.4292
11.156	63.378
11.24	63.5957
11.324	63.7136
11.408	63.7449
11.492	63.635
11.576	63.4173
11.66	63.2219
11.744	63.2203
11.828	63.3524
11.912	63.5067
11.996	63.4115
12.08	63.4855
12.164	63.7219
12.248	63.5838
12.332	63.3261
12.416	63.1374
12.5	63.3395
12.584	63.4343
12.668	63.0972
12.752	62.8598
12.836	63.1521
12.92	63.5834
13.004	63.6293
13.088	63.4317
13.172	63.3958
13.256	63.2453
13.34	63.0898
13.424	62.991
13.508	62.8374
13.592	62.9681
13.676	63.3123
13.76	63.1548
13.844	62.9505
13.928	63.2443
14.012	63.1229
14.096	62.4252
14.18	62.1983
14.264	62.575
14.348	62.9183
14.432	63.4111
14.516	63.9672
14.6	63.9088
14.684	63.6708
14.768	63.8361
14.852	63.8363
14.936	63.2338
15.02	62.742
15.104	62.8341
15.188	62.8566
15.272	62.6334
15.356	62.6334
15.44	62.7263
15.524	62.5111
15.608	62.0811
15.692	61.8922
15.776	62.1605
15.86	62.5745
15.944	62.7381
16.028	62.7302
16.112	62.8216
16.196	63.0063
16.28	63.1626
16.364	63.2371
16.448	63.1733
16.532	63.0368
16.616	62.9807
16.7	62.9672
16.784	62.8408
16.868	62.5926
16.952	62.3656
17.036	62.3352
17.12	62.5753
17.204	62.9146
17.288	63.0564
17.372	62.9134
17.456	62.6809
17.54	62.5662
17.624	62.5797
17.708	62.647
17.792	62.7522
17.876	62.8804
17.96	62.9729
18.044	63.0038
18.128	63.013
18.212	63.0564
18.296	63.15
18.38	63.2423
18.464	63.2398
18.548	63.1053
18.632	62.9199
18.716	62.7844
18.8	62.6944
18.884	62.6088
18.968	62.5701
19.052	62.6599
19.136	62.8692
19.22	63.0838
19.304	63.1891
19.388	63.1625
19.472	63.0526
19.556	62.9073
19.64	62.7372
19.724	62.5313
19.808	62.304
19.892	62.124
19.976	62.0774
20.06	62.1981
20.144	62.4411
20.228	62.7218
20.312	62.9576
20.396	63.0885
20.48	63.0933
20.564	63.0026
20.648	62.889
20.732	62.8235
20.816	62.816
20.9	62.8072
20.984	62.7187
21.068	62.5147
21.152	62.2185
21.236	61.8888
21.32	61.5894
21.404	61.3683
21.488	61.2464
21.572	61.2106
21.656	61.2284
21.74	61.2669
21.824	61.3094
21.908	61.3573
21.992	61.4098
22.076	61.4469
22.16	61.4377
22.244	61.3628
22.328	61.2379
22.412	61.1062
22.496	61.0134
22.58	60.9753
22.664	60.9751
22.748	60.974
22.832	60.9376
22.916	60.8532
23	60.741
23.084	60.6392
23.168	60.5912
23.252	60.6285
23.336	60.7671
23.42	60.9859
23.504	61.2446
23.588	61.4849
23.672	61.6464
23.756	61.693
23.84	61.6242
23.924	61.4646
24.008	61.2687
24.092	61.1093
24.176	61.0175
24.26	60.9856
24.344	60.9388
24.428	60.777
24.512	60.4772
24.596	60.097
24.68	59.7714
24.764	59.6729
24.848	59.9444
24.932	60.6604
25.016	61.7929
25.1	63.2778
25.184	64.9306
25.268	66.4762
25.352	67.6381
25.436	68.1187
25.52	67.6976
25.604	66.2927
25.688	63.9724
25.772	60.9198
25.856	57.3393
25.94	53.4026
26.024	49.225
26.108	44.898
26.192	40.5052
26.276	36.225
26.36	32.3446
26.444	29.3227
26.528	27.7288
26.612	28.0273
26.696	30.5346
26.78	35.2304
26.864	41.8172
26.948	49.7532
27.028	57.8413

File: BZ1503107-1_t70_cm-1.asc
PE IR       SPECTRUM    SPECTRUM    ASCII       PEDS        1.60
  -1
BZ68A6~1.ASC
17/04/07
19:01:54.00
17/04/07
19:01:54.00
tln
$BZ1503107-1_t0070$<tbV0>[5.2,2.6,8.0,0.0,27,1,0]
370
64

2002,4.07
MIRTGS : RIGHTBACK : INTERNAL 2
MIR : ON : INTERNAL 2
OPTKBR

0.200000
8
8.000000
FILLER
RATIO
SPECTRUM
UNLOCKED 256

DOUBLE
64
COMBINED
1
0
0

1.000000
RATIO

1
0
TRUE
51149
0
LEFT NOT FITTED RIGHT NOT FITTED 0
NONE
NONE
15600
12
4.427000
51148
TRUE
1 0 8 72 0 0 0 0

15798

#HDR
-1
-1
#GR
CM-1
%T
2.38419e-05
0.0
5000
-1.000000
4631
8
68.9965
27.7524
#DATA
5000	65.3708
4984	65.1297
4968	65.1248
4952	64.9887
4936	64.6438
4920	64.7973
4904	65.2553
4888	65.2253
4872	64.6358
4856	64.7522
4840	64.26
4824	64.1716
4808	64.4456
4792	64.8981
4776	64.2843
4760	64.5422
4744	64.438
4728	64.351
4712	64.4827
4696	64.1608
4680	64.308
4664	64.8303
4648	64.5206
4632	64.8096
4616	65.0158
4600	64.884
4584	65.3548
4568	65.6651
4552	64.9996
4536	65.3523
4520	66.1051
4504	66.0388
4488	66.0077
4472	65.6394
4456	65.7942
4440	66.4513
4424	58.442
4408	48.0086
4392	66.1674
4376	66.3845
4360	66.1386
4344	66.0719
4328	65.7696
4312	64.9124
4296	65.8334
4280	65.5574
4264	65.3265
4248	65.243
4232	64.8594
4216	64.8145
4200	64.7288
4184	64.6322
4168	64.5957
4152	64.6487
4136	64.8607
4120	64.915
4104	64.6477
4088	64.7162
4072	64.7956
4056	64.7836
4040	64.7235
4024	64.9312
4008	65.0832
3992	64.9287
3976	64.9627
3960	64.9501
3944	65.0217
3928	64.8404
3912	65.2124
3896	65.1535
3880	64.9074
3864	65.1555
3848	64.8444
3832	65.0317
3816	65.1953
3800	65.0698
3784	65.2064
3768	64.9831
3752	64.55
3736	64.9144
3720	64.9304
3704	65.066
3688	64.9282
3672	65.2471
3656	64.8819
3640	64.8222
3624	64.9014
3608	64.9114
3592	65.003
3576	65.0178
3560	64.9731
3544	64.9485
3528	65.0554
3512	65.0251
3496	64.9758
3480	65.0137
3464	65.2088
3448	65.193
3432	64.9988
3416	64.8637
3400	64.9516
3384	65.073
3368	65.0469
3352	65.0522
3336	65.0603
3320	64.9063
3304	65.0907
3288	64.7829
3272	65.0011
3256	65.0754
3240	65.0833
3224	65.0005
3208	65.0261
3192	64.9429
3176	65.0037
3160	65.0792
3144	65.0008
3128	64.985
3112	64.966
3096	64.9076
3080	64.9943
3064	65.0698
3048	64.8295
3032	64.8946
3016	64.8715
3000	64.8452
2984	64.8134
2968	64.7884
2952	64.7845
2936	64.8388
2920	64.772
2904	64.9004
2888	64.7397
2872	64.7699
2856	64.7505
2840	64.7985
2824	64.7537
2808	64.7972
2792	64.7466
2776	64.88
2760	64.8928
2744	64.8381
2728	64.9133
2712	64.793
2696	64.815
2680	64.9288
2664	64.7867
2648	64.8571
2632	64.6981
2616	64.8197
2600	64.7393
2584	64.7762
2568	64.7982
2552	64.7936
2536	64.8473
2520	64.7891
2504	64.7088
2488	64.7848
2472	64.6878
2456	64.6975
2440	64.7685
2424	64.5498
2408	64.709
2392	64.5682
2376	64.5657
2360	64.6438
2344	64.6171
2328	64.6822
2312	64.6289
2296	64.4602
2280	64.6105
2264	64.7009
2248	64.5969
2232	64.5757
2216	64.6293
2200	64.52
2184	64.6244
2168	64.6139
2152	64.4109
2136	64.5465
2120	64.426
2104	64.6229
2088	64.4855
2072	64.497
2056	64.418
2040	64.4372
2024	64.4473
2008	64.4425
1992	64.3394
1976	64.3941
1960	64.4799
1944	64.4331
1928	64.3034
1912	64.3219
1896	64.2085
1880	64.3086
1864	64.3156
1848	64.2516
1832	64.2429
1816	64.3124
1800	64.2524
1784	64.2926
1768	64.3872
1752	64.097
1736	63.9985
1720	64.0532
1704	64.1121
1688	64.0684
1672	64.0553
1656	64.0275
1640	64.0357
1624	64.1535
1608	64.0558
1592	63.9554
1576	63.9772
1560	63.901
1544	64.0017
1528	63.9918
1512	64.0309
1496	63.7369
1480	63.9632
1464	63.8362
1448	63.9036
1432	63.8932
1416	63.7602
1400	63.8489
1384	63.7177
1368	63.6917
1352	63.7278
1336	63.8889
1320	63.8118
1304	63.7108
1288	63.6857
1272	63.6141
1256	63.5615
1240	63.6617
1224	63.6935
1208	63.6447
1192	63.7113
1176	63.4835
1160	63.3382
1144	63.5604
1128	63.4891
1112	63.6891
1096	63.2801
1080	63.3273
1064	63.5265
1048	63.4677
1032	63.4758
1016	63.4235
1000	63.4759
984	 63.6135
968	 63.49
952	 63.5669
936	 63.4958
920	 63.4497
904	 63.446
888	 63.6175
872	 63.6641
856	 63.2118
840	 63.501
824	 63.6846
808	 63.1788
792	 63.3096
776	 63.4321
760	 63.4011
744	 62.9588
728	 63.254
712	 62.8652
696	 63.0044
680	 63.6809
664	 62.7406
648	 62.7272
632	 62.4061
616	 63.0837
600	 62.9788
584	 62.5885
568	 62.5702
552	 63.0106
536	 62.8725
520	 63.1048
504	 62.2219
488	 63.0852
472	 62.0834
456	 61.371
440	 60.9765
424	 61.4772
408	 60.4864
392	 67.7976
376	 27.7977
370	 57.8413

File: BZ1503107-1_t71.asc
PE IR       SPECTRUM    SPECTRUM    ASCII       PEDS        1.60
  -1
BZ2D4F~1.ASC
17/04/07
19:06:31.00
17/04/07
19:06:58.00
tln
$BZ1503107-1_t0071$<tbV0>[2.6,2.6,8.0,0.0,27,1,0]
27.028
64

2002,4.07
MIRTGS : RIGHTBACK : INTERNAL 2
MIR : ON : INTERNAL 2
OPTKBR

0.200000
8
8.000000
FILLER
RATIO
SPECTRUM
UNLOCKED 256

DOUBLE
64
COMBINED
1
0
0

0.002000
RATIO

1
0
TRUE
51149
0
LEFT NOT FITTED RIGHT NOT FITTED 0
NONE
NONE
15600
12
4.427000
51148
TRUE
1 0 8 72 0 0 0 0

15798

#HDR
-1
-1
#GR
µM
%T
2.38419e-05
0.0
2.000000
0.002000
12515
8
71.0316
32.2752
#DATA
2.000000	 65.4047
2.084000	 64.7846
2.168000	 65.1659
2.252000	 64.1352
2.336000	 64.9626
2.420000	 64.7355
2.504000	 64.7904
2.588000	 65.0922
2.672000	 65.2408
2.756000	 65.1202
2.840000	 64.9611
2.924000	 64.9247
3.008000	 65.0425
3.092000	 65.2127
3.176000	 64.9908
3.260000	 64.9703
3.344000	 64.857
3.428000	 64.9779
3.512000	 64.7873
3.596000	 64.9477
3.680000	 64.9691
3.764000	 64.812
3.848000	 64.6802
3.932000	 64.7462
4.016000	 64.7102
4.100000	 64.6493
4.184000	 64.5638
4.268000	 64.6595
4.352000	 64.5536
4.436000	 64.6663
4.520000	 64.6259
4.604000	 64.5076
4.688000	 64.6014
4.772000	 64.5122
4.856000	 64.4703
4.940000	 64.3565
5.024000	 64.3258
5.108000	 64.4376
5.192000	 64.2956
5.276000	 64.2669
5.359999	 64.3086
5.444000	 64.2849
5.528000	 64.232
5.612000	 64.1857
5.696000	 64.1718
5.780000	 63.8195
5.864000	 64.0705
5.948000	 64.0226
6.032000	 63.9713
6.116000	 63.9738
6.200000	 64.0865
6.284000	 63.9552
6.368000	 63.9746
6.452000	 63.879
6.536000	 63.8348
6.620000	 63.9833
6.704000	 63.8567
6.788000	 63.8724
6.872000	 63.9546
6.956000	 63.9429
7.040000	 63.9225
7.124000	 63.6661
7.208000	 63.7226
7.292000	 63.618
7.376000	 63.676
7.460000	 63.7462
7.544000	 63.7518
7.628000	 63.7435
7.712000	 63.6836
7.796000	 63.63
7.880000	 63.5499
7.964000	 63.5829
8.048000	 63.5824
8.132000	 63.5847
8.216000	 63.6218
8.300000	 63.672
8.384000	 63.634
8.468000	 63.5721
8.552000	 63.4184
8.635999	 63.4717
8.719999	 63.4784
8.804000	 63.6109
8.888000	 63.4673
8.972000	 63.5372
9.056000	 63.3979
9.140000	 63.3728
9.224000	 63.5336
9.308000	 63.443
9.391999	 63.5316
9.475999	 63.5682
9.560000	 63.6377
9.644000	 63.4964
9.728000	 63.333
9.812000	 63.3481
9.896000	 63.3813
9.980000	 63.464
10.064	63.4877
10.148	63.6072
10.232	63.6449
10.316	63.436
10.4	63.505
10.484	63.4185
10.568	63.3377
10.652	63.3332
10.736	63.4863
10.82	63.6278
10.904	63.6836
10.988	63.5973
11.072	63.5211
11.156	63.5432
11.24	63.5852
11.324	63.6412
11.408	63.4772
11.492	63.5672
11.576	63.3724
11.66	63.3257
11.744	63.2906
11.828	63.393
11.912	63.4863
11.996	63.2101
12.08	63.2244
12.164	63.3363
12.248	63.2729
12.332	63.2977
12.416	63.3305
12.5	63.2765
12.584	63.0395
12.668	62.971
12.752	63.2736
12.836	63.9557
12.92	64.0981
13.004	63.5468
13.088	63.2458
13.172	63.2065
13.256	63.254
13.34	63.066
13.424	62.6364
13.508	62.5944
13.592	62.9266
13.676	63.354
13.76	63.5169
13.844	62.7914
13.928	62.1931
14.012	62.4129
14.096	62.8178
14.18	62.8126
14.264	62.8382
14.348	63.1607
14.432	63.441
14.516	63.4824
14.6	63.2317
14.684	63.1875
14.768	63.5317
14.852	63.6286
14.936	63.1749
15.02	62.7235
15.104	62.8452
15.188	63.0911
15.272	62.8387
15.356	62.4533
15.44	62.4211
15.524	62.4839
15.608	62.2857
15.692	62.0596
15.776	62.1461
15.86	62.3416
15.944	62.342
16.028	62.3117
16.112	62.5021
16.196	62.8785
16.28	63.2874
16.364	63.5613
16.448	63.5997
16.532	63.5248
16.616	63.417
16.7	63.1324
16.784	62.7061
16.868	62.4444
16.952	62.4667
17.036	62.5849
17.12	62.6633
17.204	62.7686
17.288	62.9775
17.372	63.2624
17.456	63.5356
17.54	63.6849
17.624	63.6149
17.708	63.3659
17.792	63.1196
17.876	62.9973
17.96	62.9614
18.044	62.9428
18.128	62.9416
18.212	62.9856
18.296	63.0552
18.38	63.0834
18.464	63.029
18.548	62.942
18.632	62.9268
18.716	63.0177
18.8	63.1378
18.884	63.2005
18.968	63.2043
19.052	63.1878
19.136	63.1386
19.22	63.0274
19.304	62.9095
19.388	62.8819
19.472	62.9314
19.556	62.9378
19.64	62.8333
19.724	62.6791
19.808	62.5741
19.892	62.5617
19.976	62.6232
20.06	62.7297
20.144	62.8684
20.228	63.0274
20.312	63.1815
20.396	63.3098
20.48	63.4077
20.564	63.4711
20.648	63.4704
20.732	63.3535
20.816	63.0852
20.9	62.6952
20.984	62.2809
21.068	61.9595
21.152	61.7936
21.236	61.7623
21.32	61.7992
21.404	61.8542
21.488	61.9218
21.572	62.0102
21.656	62.1008
21.74	62.1354
21.824	62.0468
21.908	61.8243
21.992	61.5482
22.076	61.3583
22.16	61.3793
22.244	61.6251
22.328	61.9927
22.412	62.3167
22.496	62.4714
22.58	62.4522
22.664	62.3498
22.748	62.2758
22.832	62.2703
22.916	62.2851
23	62.249
23.084	62.1407
23.168	62.021
23.252	61.9881
23.336	62.1135
23.42	62.4052
23.504	62.8069
23.588	63.2437
23.672	63.6692
23.756	64.0683
23.84	64.4226
23.924	64.6928
24.008	64.8062
24.092	64.6746
24.176	64.2556
24.26	63.5643
24.344	62.6822
24.428	61.7315
24.512	60.8541
24.596	60.136
24.68	59.5918
24.764	59.1742
24.848	58.7521
24.932	58.1823
25.016	57.3917
25.1	56.3828
25.184	55.2744
25.268	54.2926
25.352	53.7224
25.436	53.7925
25.52	54.5962
25.604	56.1036
25.688	58.1824
25.772	60.6394
25.856	63.2601
25.94	65.7889
26.024	67.9277
26.108	69.3756
26.192	69.8963
26.276	69.3131
26.36	67.5978
26.444	64.733
26.528	60.7305
26.612	55.7462
26.696	50.0779
26.78	44.1423
26.864	38.5992
26.948	34.3118
27.028	32.2752