Folder: Masteroppgave/Bakgrunnsmateriale/MATLAB/FTIR/ftir_data/subAa/Mapping_121 (part 29)

File: BZ1503107-1_t64.asc
PE IR       SPECTRUM    SPECTRUM    ASCII       PEDS        1.60
  -1
BZ2951~1.ASC
17/04/07
18:27:27.00
17/04/07
18:27:53.00
tln
$BZ1503107-1_t0064$<tbV0>[-7.8,0.0,8.0,0.0,27,1,0]
27.028
64

2002,4.07
MIRTGS : RIGHTBACK : INTERNAL 2
MIR : ON : INTERNAL 2
OPTKBR

0.200000
8
8.000000
FILLER
RATIO
SPECTRUM
UNLOCKED 256

DOUBLE
64
COMBINED
1
0
0

0.002000
RATIO

1
0
TRUE
51149
0
LEFT NOT FITTED RIGHT NOT FITTED 0
NONE
NONE
15600
12
4.427000
51148
TRUE
1 0 8 72 0 0 0 0

15798

#HDR
-1
-1
#GR
µM
%T
2.38419e-05
0.0
2.000000
0.002000
12515
8
70.1084
47.5368
#DATA
2.000000	 65.0026
2.084000	 64.5986
2.168000	 64.4792
2.252000	 65.2801
2.336000	 64.9951
2.420000	 64.8203
2.504000	 65.2792
2.588000	 65.1448
2.672000	 65.1318
2.756000	 65.1979
2.840000	 64.959
2.924000	 64.9754
3.008000	 65.0979
3.092000	 64.9167
3.176000	 64.8853
3.260000	 64.8506
3.344000	 65.0019
3.428000	 64.9413
3.512000	 65.0371
3.596000	 64.8182
3.680000	 64.8288
3.764000	 64.934
3.848000	 64.8368
3.932000	 64.8581
4.016000	 64.8805
4.100000	 64.839
4.184000	 64.8291
4.268000	 64.8017
4.352000	 64.7881
4.436000	 64.7027
4.520000	 64.6528
4.604000	 64.6829
4.688000	 64.6414
4.772000	 64.6248
4.856000	 64.5925
4.940000	 64.5923
5.024000	 64.5468
5.108000	 64.3909
5.192000	 64.4395
5.276000	 64.3439
5.359999	 64.4626
5.444000	 64.4029
5.528000	 64.3926
5.612000	 64.416
5.696000	 64.2273
5.780000	 64.0692
5.864000	 64.2038
5.948000	 64.0571
6.032000	 64.1006
6.116000	 64.094
6.200000	 64.1597
6.284000	 64.0583
6.368000	 64.0309
6.452000	 63.99
6.536000	 64.0054
6.620000	 64.1968
6.704000	 64.0806
6.788000	 64.1991
6.872000	 64.0553
6.956000	 64.0579
7.040000	 64.1631
7.124000	 64.0085
7.208000	 64.046
7.292000	 63.9453
7.376000	 63.9799
7.460000	 63.9023
7.544000	 63.886
7.628000	 63.8201
7.712000	 63.9568
7.796000	 63.9213
7.880000	 63.898
7.964000	 63.7951
8.048000	 63.8414
8.132000	 63.7878
8.216000	 63.7541
8.300000	 63.7574
8.384000	 63.6659
8.468000	 63.7549
8.552000	 63.6333
8.635999	 63.6123
8.719999	 63.6351
8.804000	 63.5829
8.888000	 63.5134
8.972000	 63.5299
9.056000	 63.7186
9.140000	 63.6109
9.224000	 63.4868
9.308000	 63.6157
9.391999	 63.6406
9.475999	 63.6081
9.560000	 63.7713
9.644000	 63.6927
9.728000	 63.4861
9.812000	 63.5352
9.896000	 63.514
9.980000	 63.7417
10.064	63.7798
10.148	63.6261
10.232	63.7517
10.316	63.6512
10.4	63.6081
10.484	63.6443
10.568	63.6378
10.652	63.5517
10.736	63.5548
10.82	63.6518
10.904	63.9085
10.988	63.7531
11.072	63.6723
11.156	63.5712
11.24	63.6
11.324	63.7599
11.408	63.7333
11.492	63.8212
11.576	63.8614
11.66	63.8811
11.744	63.7237
11.828	63.6965
11.912	63.7205
11.996	63.8398
12.08	63.8517
12.164	63.6323
12.248	63.502
12.332	63.48
12.416	63.4477
12.5	63.4197
12.584	63.4345
12.668	63.5024
12.752	63.5127
12.836	63.4898
12.92	63.4745
13.004	63.3349
13.088	63.156
13.172	63.124
13.256	63.1032
13.34	63.0335
13.424	62.9972
13.508	63.0798
13.592	63.0884
13.676	63.0678
13.76	63.0218
13.844	63.0411
13.928	63.1577
14.012	63.2759
14.096	63.2814
14.18	63.0398
14.264	62.9078
14.348	63.0542
14.432	63.2736
14.516	63.4788
14.6	63.3987
14.684	63.2007
14.768	63.1946
14.852	63.1099
14.936	62.8943
15.02	62.7244
15.104	62.8311
15.188	63.153
15.272	63.2838
15.356	63.5061
15.44	63.8557
15.524	63.5516
15.608	62.9691
15.692	62.9516
15.776	63.0117
15.86	62.6853
15.944	62.5122
16.028	62.9285
16.112	63.6358
16.196	63.9906
16.28	63.6452
16.364	62.9163
16.448	62.3617
16.532	62.0359
16.616	61.5504
16.7	60.9556
16.784	60.874
16.868	61.4665
16.952	62.2035
17.036	62.7146
17.12	63.0359
17.204	63.1737
17.288	63.095
17.372	62.9083
17.456	62.7573
17.54	62.7117
17.624	62.6935
17.708	62.5409
17.792	62.2874
17.876	62.2312
17.96	62.5473
18.044	63.0128
18.128	63.2822
18.212	63.2643
18.296	63.073
18.38	62.7939
18.464	62.4499
18.548	62.1114
18.632	61.919
18.716	61.9873
18.8	62.3259
18.884	62.8267
18.968	63.3169
19.052	63.6533
19.136	63.796
19.22	63.7865
19.304	63.6753
19.388	63.4747
19.472	63.1938
19.556	62.8906
19.64	62.6626
19.724	62.5807
19.808	62.6397
19.892	62.774
19.976	62.9085
20.06	62.9943
20.144	63.0007
20.228	62.913
20.312	62.7575
20.396	62.6167
20.48	62.5906
20.564	62.7188
20.648	62.9361
20.732	63.1178
20.816	63.1705
20.9	63.0943
20.984	62.9469
21.068	62.7932
21.152	62.6682
21.236	62.5865
21.32	62.5558
21.404	62.5653
21.488	62.5818
21.572	62.5603
21.656	62.482
21.74	62.3728
21.824	62.2861
21.908	62.2703
21.992	62.3599
22.076	62.5879
22.16	62.9888
22.244	63.5672
22.328	64.2554
22.412	64.912
22.496	65.3636
22.58	65.4841
22.664	65.2452
22.748	64.7359
22.832	64.1007
22.916	63.4916
23	63.0175
23.084	62.7335
23.168	62.6554
23.252	62.7745
23.336	63.0636
23.42	63.459
23.504	63.8599
23.588	64.1538
23.672	64.256
23.756	64.1436
23.84	63.894
23.924	63.6599
24.008	63.6086
24.092	63.8561
24.176	64.4004
24.26	65.1191
24.344	65.8054
24.428	66.2722
24.512	66.4082
24.596	66.2524
24.68	65.9875
24.764	65.8625
24.848	66.0534
24.932	66.5992
25.016	67.3564
25.1	68.0445
25.184	68.3203
25.268	67.9436
25.352	66.869
25.436	65.2584
25.52	63.4134
25.604	61.6369
25.688	60.1498
25.772	59.0375
25.856	58.2875
25.94	57.8224
26.024	57.6043
26.108	57.69
26.192	58.2036
26.276	59.1938
26.36	60.4952
26.444	61.7309
26.528	62.4088
26.612	62.0697
26.696	60.4485
26.78	57.5935
26.864	53.9593
26.948	50.2908
27.028	47.5368

File: BZ1503107-1_t64_cm-1.asc
PE IR       SPECTRUM    SPECTRUM    ASCII       PEDS        1.60
  -1
BZ6C21~1.ASC
17/04/07
18:27:27.00
17/04/07
18:27:27.00
tln
$BZ1503107-1_t0064$<tbV0>[-7.8,0.0,8.0,0.0,27,1,0]
370
64

2002,4.07
MIRTGS : RIGHTBACK : INTERNAL 2
MIR : ON : INTERNAL 2
OPTKBR

0.200000
8
8.000000
FILLER
RATIO
SPECTRUM
UNLOCKED 256

DOUBLE
64
COMBINED
1
0
0

1.000000
RATIO

1
0
TRUE
51149
0
LEFT NOT FITTED RIGHT NOT FITTED 0
NONE
NONE
15600
12
4.427000
51148
TRUE
1 0 8 72 0 0 0 0

15798

#HDR
-1
-1
#GR
CM-1
%T
2.38419e-05
0.0
5000
-1.000000
4631
8
70.6243
47.5368
#DATA
5000	65.0026
4984	65.2569
4968	64.6985
4952	64.2547
4936	65.4076
4920	64.5779
4904	64.777
4888	64.8117
4872	64.8279
4856	64.8128
4840	64.8334
4824	64.5316
4808	64.2788
4792	65.0097
4776	65.2796
4760	64.8074
4744	64.9043
4728	64.8214
4712	64.6701
4696	64.9969
4680	65.1449
4664	64.7845
4648	64.7615
4632	64.8336
4616	64.4591
4600	65.0016
4584	65.0743
4568	65.0304
4552	65.4032
4536	64.8441
4520	65.2209
4504	65.4112
4488	64.749
4472	65.1707
4456	64.5586
4440	65.0205
4424	69.7454
4408	65.7914
4392	64.8097
4376	65.2236
4360	65.5812
4344	64.7825
4328	65.2521
4312	64.9595
4296	64.708
4280	65.0029
4264	65.0687
4248	64.7776
4232	65.2608
4216	64.8196
4200	64.7012
4184	65.364
4168	64.5761
4152	64.8155
4136	64.8244
4120	65.0311
4104	65.069
4088	64.9121
4072	64.9069
4056	64.9775
4040	65.0184
4024	65.1983
4008	64.8275
3992	65.2784
3976	65.2799
3960	65.0499
3944	64.9108
3928	65.0068
3912	64.831
3896	65.1746
3880	65.0282
3864	65.1447
3848	65.2473
3832	65.0674
3816	65.0473
3800	64.8668
3784	65.1312
3768	65.1329
3752	65.1794
3736	65.0297
3720	65.1454
3704	65.057
3688	65.0089
3672	65.0218
3656	65.1689
3640	65.2611
3624	65.2066
3608	65.2074
3592	65.0886
3576	65.1306
3560	65.1982
3544	64.9873
3528	64.9303
3512	65.2527
3496	65.2305
3480	65.2024
3464	64.9701
3448	65.1119
3432	64.7013
3416	64.9514
3400	64.9432
3384	64.9292
3368	65.2865
3352	64.8051
3336	65.0172
3320	64.9301
3304	65.0668
3288	65.0429
3272	64.8705
3256	64.9012
3240	64.9848
3224	65.0532
3208	65.0069
3192	65.0018
3176	64.9525
3160	65.0794
3144	64.9548
3128	65.0223
3112	64.9418
3096	65.1252
3080	64.9472
3064	64.8797
3048	64.9385
3032	64.9821
3016	65.0465
3000	65.0403
2984	65.0673
2968	64.8384
2952	64.8429
2936	64.6585
2920	64.9295
2904	64.8977
2888	64.9989
2872	64.8361
2856	64.9278
2840	64.9939
2824	64.9012
2808	64.7844
2792	64.9181
2776	64.7416
2760	64.8631
2744	64.919
2728	64.8906
2712	64.9219
2696	64.9179
2680	64.8618
2664	64.985
2648	64.8399
2632	64.8864
2616	64.8734
2600	64.8334
2584	64.8615
2568	64.8261
2552	64.8336
2536	64.7932
2520	64.8321
2504	64.6781
2488	64.9233
2472	64.6418
2456	64.7743
2440	64.8289
2424	64.9757
2408	64.6843
2392	64.7885
2376	64.6635
2360	64.7116
2344	64.8058
2328	64.7222
2312	64.5845
2296	64.7674
2280	64.6073
2264	64.7437
2248	64.6609
2232	64.7122
2216	64.659
2200	64.776
2184	64.6388
2168	64.6341
2152	64.7123
2136	64.7042
2120	64.4767
2104	64.6415
2088	64.5696
2072	64.4142
2056	64.6437
2040	64.5535
2024	64.5917
2008	64.6019
1992	64.5491
1976	64.6003
1960	64.4052
1944	64.4552
1928	64.4646
1912	64.2957
1896	64.3414
1880	64.3757
1864	64.4434
1848	64.5085
1832	64.4264
1816	64.3146
1800	64.2914
1784	64.3792
1768	64.3668
1752	64.1756
1736	64.0255
1720	64.1372
1704	64.1767
1688	64.1603
1672	64.108
1656	64.1125
1640	64.1992
1624	64.1094
1608	64.1002
1592	64.0681
1576	64.0448
1560	63.9395
1544	63.9468
1528	64.0362
1512	64.2267
1496	64.0461
1480	64.1575
1464	64.0688
1448	63.9806
1432	64.0649
1416	64.0895
1400	64.0604
1384	64.0105
1368	63.9415
1352	63.8933
1336	63.8753
1320	63.9102
1304	63.8781
1288	63.9099
1272	63.8875
1256	63.7977
1240	63.8168
1224	63.7756
1208	63.7359
1192	63.6687
1176	63.7226
1160	63.558
1144	63.5816
1128	63.5911
1112	63.5935
1096	63.6716
1080	63.6109
1064	63.6608
1048	63.713
1032	63.5146
1016	63.4978
1000	63.758
984	 63.6309
968	 63.6336
952	 63.6812
936	 63.6023
920	 63.8504
904	 63.687
888	 63.6468
872	 63.8015
856	 63.8528
840	 63.7141
824	 63.7239
808	 63.4631
792	 63.4686
776	 63.4851
760	 63.1248
744	 63.0094
728	 63.0358
712	 63.3054
696	 63.1031
680	 63.1857
664	 62.7286
648	 63.8419
632	 62.8561
616	 63.9179
600	 61.1664
584	 63.0452
568	 62.7044
552	 63.2625
536	 61.9089
520	 63.7773
504	 62.6887
488	 62.5995
472	 62.6288
456	 62.2823
440	 64.8793
424	 64.1461
408	 66.4087
392	 63.6285
376	 62.2337
370	 47.5368

File: BZ1503107-1_t65.asc
PE IR       SPECTRUM    SPECTRUM    ASCII       PEDS        1.60
  -1
BZ2D51~1.ASC
17/04/07
18:32:04.00
17/04/07
18:32:30.00
tln
$BZ1503107-1_t0065$<tbV0>[-10.4,0.0,8.0,0.0,27,1,0]
27.028
64

2002,4.07
MIRTGS : RIGHTBACK : INTERNAL 2
MIR : ON : INTERNAL 2
OPTKBR

0.200000
8
8.000000
FILLER
RATIO
SPECTRUM
UNLOCKED 256

DOUBLE
64
COMBINED
1
0
0

0.002000
RATIO

1
0
TRUE
51149
0
LEFT NOT FITTED RIGHT NOT FITTED 0
NONE
NONE
15600
12
4.427000
51148
TRUE
1 0 8 72 0 0 0 0

15798

#HDR
-1
-1
#GR
µM
%T
2.38419e-05
0.0
2.000000
0.002000
12515
8
69.276
37.853
#DATA
2.000000	 64.3493
2.084000	 64.7809
2.168000	 64.742
2.252000	 63.9801
2.336000	 64.8969
2.420000	 64.907
2.504000	 65.0932
2.588000	 65.3617
2.672000	 65.12
2.756000	 65.0675
2.840000	 64.9906
2.924000	 65.0754
3.008000	 65.2469
3.092000	 65.0885
3.176000	 65.0986
3.260000	 65.0186
3.344000	 64.9618
3.428000	 64.9587
3.512000	 65.0177
3.596000	 64.9236
3.680000	 64.9131
3.764000	 64.9032
3.848000	 64.8457
3.932000	 64.7014
4.016000	 64.8792
4.100000	 64.827
4.184000	 64.798
4.268000	 64.6903
4.352000	 64.7124
4.436000	 64.7889
4.520000	 64.6896
4.604000	 64.523
4.688000	 64.7383
4.772000	 64.6337
4.856000	 64.4421
4.940000	 64.5327
5.024000	 64.5667
5.108000	 64.415
5.192000	 64.5027
5.276000	 64.4186
5.359999	 64.4682
5.444000	 64.4915
5.528000	 64.428
5.612000	 64.3941
5.696000	 64.265
5.780000	 64.1501
5.864000	 64.2573
5.948000	 64.24
6.032000	 64.1789
6.116000	 64.1772
6.200000	 64.1665
6.284000	 64.208
6.368000	 63.9671
6.452000	 64.0151
6.536000	 64.1284
6.620000	 64.1054
6.704000	 64.1806
6.788000	 64.1382
6.872000	 64.0081
6.956000	 63.9725
7.040000	 64.167
7.124000	 64.0326
7.208000	 63.9904
7.292000	 63.8694
7.376000	 64.0517
7.460000	 63.9209
7.544000	 63.889
7.628000	 63.827
7.712000	 63.893
7.796000	 63.9702
7.880000	 63.8562
7.964000	 63.8
8.048000	 63.8206
8.132000	 63.7476
8.216000	 63.8592
8.300000	 63.9025
8.384000	 63.7003
8.468000	 63.7343
8.552000	 63.5684
8.635999	 63.5396
8.719999	 63.603
8.804000	 63.6804
8.888000	 63.6099
8.972000	 63.586
9.056000	 63.5587
9.140000	 63.7723
9.224000	 63.6309
9.308000	 63.7053
9.391999	 63.6902
9.475999	 63.7311
9.560000	 63.5207
9.644000	 63.5619
9.728000	 63.673
9.812000	 63.6811
9.896000	 63.7036
9.980000	 63.7068
10.064	63.7839
10.148	63.7869
10.232	63.9435
10.316	63.7665
10.4	63.5987
10.484	63.4241
10.568	63.5087
10.652	63.4149
10.736	63.5208
10.82	63.5801
10.904	63.6377
10.988	63.5416
11.072	63.6507
11.156	63.6098
11.24	63.6323
11.324	63.782
11.408	63.8112
11.492	63.6342
11.576	63.6583
11.66	63.736
11.744	63.6945
11.828	63.7209
11.912	63.5929
11.996	63.6069
12.08	63.8036
12.164	63.5219
12.248	63.5738
12.332	63.643
12.416	63.3904
12.5	63.3645
12.584	63.4595
12.668	63.4694
12.752	63.5274
12.836	63.5914
12.92	63.5631
13.004	63.6135
13.088	63.5124
13.172	63.4943
13.256	63.529
13.34	63.4488
13.424	63.4423
13.508	63.3363
13.592	63.285
13.676	63.2761
13.76	63.3645
13.844	63.4419
13.928	63.3788
14.012	63.3663
14.096	63.3819
14.18	63.2778
14.264	63.023
14.348	62.8658
14.432	63.1283
14.516	63.6155
14.6	63.7322
14.684	63.6403
14.768	63.5754
14.852	63.4074
14.936	63.4241
15.02	63.4758
15.104	63.2672
15.188	63.3083
15.272	63.7284
15.356	64.0123
15.44	63.943
15.524	63.5247
15.608	63.0269
15.692	62.9156
15.776	63.1059
15.86	63.2556
15.944	63.6401
16.028	64.5735
16.112	65.4225
16.196	65.3483
16.28	64.5848
16.364	64.0463
16.448	64.093
16.532	64.28
16.616	64.0992
16.7	63.5751
16.784	63.0446
16.868	62.6617
16.952	62.4587
17.036	62.5741
17.12	63.0031
17.204	63.4063
17.288	63.4787
17.372	63.2786
17.456	63.0464
17.54	62.942
17.624	63.0046
17.708	63.2213
17.792	63.5384
17.876	63.8145
17.96	63.8597
18.044	63.5874
18.128	63.1228
18.212	62.7084
18.296	62.4967
18.38	62.468
18.464	62.531
18.548	62.6441
18.632	62.8321
18.716	63.1149
18.8	63.4426
18.884	63.704
18.968	63.7874
19.052	63.6598
19.136	63.4028
19.22	63.165
19.304	63.0497
19.388	63.0603
19.472	63.1343
19.556	63.2032
19.64	63.2152
19.724	63.1454
19.808	63.0116
19.892	62.8784
19.976	62.8142
20.06	62.8309
20.144	62.8783
20.228	62.9022
20.312	62.8905
20.396	62.8699
20.48	62.8747
20.564	62.9136
20.648	62.9613
20.732	62.9767
20.816	62.9445
20.9	62.8922
20.984	62.8734
21.068	62.9249
21.152	63.0358
21.236	63.1672
21.32	63.2899
21.404	63.4015
21.488	63.4861
21.572	63.4858
21.656	63.3289
21.74	62.9932
21.824	62.5338
21.908	62.0555
21.992	61.657
22.076	61.3931
22.16	61.2738
22.244	61.293
22.328	61.4422
22.412	61.7131
22.496	62.0773
22.58	62.4808
22.664	62.8516
22.748	63.1183
22.832	63.246
22.916	63.2507
23	63.2109
23.084	63.2336
23.168	63.404
23.252	63.7241
23.336	64.1036
23.42	64.3855
23.504	64.4259
23.588	64.1726
23.672	63.6803
23.756	63.0847
23.84	62.5392
23.924	62.1474
24.008	61.9184
24.092	61.7814
24.176	61.654
24.26	61.4947
24.344	61.3151
24.428	61.1618
24.512	61.0845
24.596	61.0996
24.68	61.2123
24.764	61.4432
24.848	61.8041
24.932	62.3182
25.016	62.9742
25.1	63.6516
25.184	64.0869
25.268	63.98
25.352	63.14
25.436	61.6352
25.52	59.8491
25.604	58.3382
25.688	57.6516
25.772	58.0825
25.856	59.5562
25.94	61.6458
26.024	63.748
26.108	65.3411
26.192	66.1949
26.276	66.2984
26.36	65.7235
26.444	64.507
26.528	62.5849
26.612	59.8163
26.696	56.096
26.78	51.4923
26.864	46.3919
26.948	41.491
27.028	37.853

File: BZ1503107-1_t65_cm-1.asc
PE IR       SPECTRUM    SPECTRUM    ASCII       PEDS        1.60
  -1
BZ6D21~1.ASC
17/04/07
18:32:04.00
17/04/07
18:32:04.00
tln
$BZ1503107-1_t0065$<tbV0>[-10.4,0.0,8.0,0.0,27,1,0]
370
64

2002,4.07
MIRTGS : RIGHTBACK : INTERNAL 2
MIR : ON : INTERNAL 2
OPTKBR

0.200000
8
8.000000
FILLER
RATIO
SPECTRUM
UNLOCKED 256

DOUBLE
64
COMBINED
1
0
0

1.000000
RATIO

1
0
TRUE
51149
0
LEFT NOT FITTED RIGHT NOT FITTED 0
NONE
NONE
15600
12
4.427000
51148
TRUE
1 0 8 72 0 0 0 0

15798

#HDR
-1
-1
#GR
CM-1
%T
2.38419e-05
0.0
5000
-1.000000
4631
8
69.3231
37.853
#DATA
5000	64.3493
4984	65.7962
4968	65.04
4952	64.6917
4936	64.8105
4920	64.68
4904	64.8207
4888	64.5618
4872	64.6006
4856	64.2043
4840	64.4673
4824	64.2688
4808	64.5303
4792	64.7251
4776	64.9239
4760	64.9535
4744	64.766
4728	65.1318
4712	64.807
4696	65.0912
4680	64.9168
4664	65.0745
4648	64.9313
4632	65.235
4616	64.846
4600	65.1355
4584	65.1329
4568	64.7728
4552	64.9737
4536	65.0742
4520	65.554
4504	65.0681
4488	65.3547
4472	64.9217
4456	65.7377
4440	64.066
4424	54.1733
4408	69.0069
4392	65.6243
4376	64.7146
4360	65.7194
4344	64.9383
4328	65.4635
4312	64.991
4296	64.9779
4280	64.9087
4264	65.2062
4248	64.8656
4232	65.0372
4216	65.0699
4200	65.136
4184	65.0624
4168	64.7225
4152	64.814
4136	64.9141
4120	65.0713
4104	65.0339
4088	64.8513
4072	64.9373
4056	64.8306
4040	64.8223
4024	64.8431
4008	64.8036
3992	65.1206
3976	65.0686
3960	65.0017
3944	64.9495
3928	65.3835
3912	65.1944
3896	65.0455
3880	65.2522
3864	65.3615
3848	65.2534
3832	65.1105
3816	65.1896
3800	64.9223
3784	65.3014
3768	65.0092
3752	65.2679
3736	64.9247
3720	65.081
3704	65.2124
3688	65.0114
3672	65.0484
3656	65.1231
3640	65.1461
3624	64.9791
3608	65.1219
3592	65.0403
3576	65.02
3560	65.1135
3544	64.9876
3528	64.9767
3512	65.057
3496	65.2046
3480	65.1531
3464	65.0603
3448	65.1405
3432	64.887
3416	65.0111
3400	64.8501
3384	64.9819
3368	65.1574
3352	64.957
3336	65.1267
3320	65.171
3304	65.0766
3288	65.0052
3272	64.9519
3256	65.091
3240	65.0499
3224	65.0396
3208	65.0837
3192	65.0264
3176	64.9799
3160	64.9092
3144	65.1072
3128	64.9441
3112	65.1132
3096	65.1344
3080	64.9925
3064	65.0402
3048	64.9226
3032	65.1678
3016	64.884
3000	65.0418
2984	64.9633
2968	64.6868
2952	64.8979
2936	65.0384
2920	64.9556
2904	64.8867
2888	64.9287
2872	64.8219
2856	65.004
2840	64.9281
2824	64.8399
2808	64.964
2792	64.8972
2776	64.9248
2760	64.8489
2744	64.8454
2728	64.9119
2712	64.9451
2696	64.9672
2680	64.9257
2664	65.0239
2648	64.8748
2632	64.9293
2616	64.771
2600	64.8204
2584	64.8933
2568	64.8614
2552	64.848
2536	64.736
2520	64.9948
2504	64.8582
2488	64.8586
2472	64.728
2456	64.8461
2440	64.8244
2424	64.7458
2408	64.8234
2392	64.8141
2376	64.7572
2360	64.7916
2344	64.6879
2328	64.774
2312	64.6911
2296	64.7031
2280	64.6666
2264	64.6692
2248	64.7139
2232	64.6791
2216	64.6867
2200	64.7051
2184	64.6939
2168	64.4438
2152	64.6215
2136	64.7053
2120	64.6788
2104	64.5847
2088	64.5525
2072	64.508
2056	64.3486
2040	64.6155
2024	64.5323
2008	64.5986
1992	64.5526
1976	64.5084
1960	64.4611
1944	64.4945
1928	64.5091
1912	64.5733
1896	64.4101
1880	64.4365
1864	64.4526
1848	64.4583
1832	64.5
1816	64.4102
1800	64.382
1784	64.3956
1768	64.4722
1752	64.3142
1736	64.1515
1720	64.2063
1704	64.2424
1688	64.2146
1672	64.1112
1656	64.1471
1640	64.2535
1624	64.1587
1608	64.1784
1592	64.2166
1576	63.9752
1560	64.1346
1544	64.0303
1528	64.1237
1512	64.1225
1496	64.156
1480	64.1832
1464	63.9688
1448	63.9463
1432	63.941
1416	64.1586
1400	64.0163
1384	64.0099
1368	63.9068
1352	63.9946
1336	63.9179
1320	63.925
1304	63.8999
1288	63.9341
1272	63.8153
1256	63.8013
1240	63.8142
1224	63.7782
1208	63.8647
1192	63.6956
1176	63.6157
1160	63.5317
1144	63.5947
1128	63.6012
1112	63.5624
1096	63.7218
1080	63.6892
1064	63.7083
1048	63.488
1032	63.506
1016	63.6194
1000	63.71
984	 63.8105
968	 63.7257
952	 63.4569
936	 63.4443
920	 63.6355
904	 63.6494
888	 63.6366
872	 63.6711
856	 63.7278
840	 63.6083
824	 63.6347
808	 63.5094
792	 63.4713
776	 63.5695
760	 63.4802
744	 63.4288
728	 63.3269
712	 63.3772
696	 62.8836
680	 63.629
664	 63.3892
648	 63.9651
632	 63.1925
616	 65.036
600	 63.8021
584	 63.022
568	 62.9768
552	 63.1918
536	 62.906
520	 63.1423
504	 62.9542
488	 62.8784
472	 63.0895
456	 61.941
440	 63.0649
424	 64.1866
408	 61.0854
392	 60.051
376	 60.4258
370	 37.853

File: BZ1503107-1_t66.asc
PE IR       SPECTRUM    SPECTRUM    ASCII       PEDS        1.60
  -1
BZ2161~1.ASC
17/04/07
18:36:41.00
17/04/07
18:37:07.00
tln
$BZ1503107-1_t0066$<tbV0>[-13.0,0.0,8.0,0.0,27,1,0]
27.028
64

2002,4.07
MIRTGS : RIGHTBACK : INTERNAL 2
MIR : ON : INTERNAL 2
OPTKBR

0.200000
8
8.000000
FILLER
RATIO
SPECTRUM
UNLOCKED 256

DOUBLE
64
COMBINED
1
0
0

0.002000
RATIO

1
0
TRUE
51149
0
LEFT NOT FITTED RIGHT NOT FITTED 0
NONE
NONE
15600
12
4.427000
51148
TRUE
1 0 8 72 0 0 0 0

15798

#HDR
-1
-1
#GR
µM
%T
2.38419e-05
0.0
2.000000
0.002000
12515
8
79.562
54.7749
#DATA
2.000000	 65.6723
2.084000	 65.4569
2.168000	 64.5169
2.252000	 63.8906
2.336000	 65.1935
2.420000	 65.4091
2.504000	 65.4445
2.588000	 65.4148
2.672000	 65.2045
2.756000	 65.2741
2.840000	 65.2236
2.924000	 65.2434
3.008000	 65.3
3.092000	 65.1274
3.176000	 65.1438
3.260000	 65.0915
3.344000	 65.0413
3.428000	 64.992
3.512000	 65.1209
3.596000	 65.0073
3.680000	 65.1522
3.764000	 65.1791
3.848000	 64.9612
3.932000	 64.9733
4.016000	 65.0584
4.100000	 64.9642
4.184000	 64.9041
4.268000	 64.8367
4.352000	 64.9218
4.436000	 64.8527
4.520000	 64.7763
4.604000	 64.7374
4.688000	 64.7069
4.772000	 64.7456
4.856000	 64.7372
4.940000	 64.6794
5.024000	 64.7075
5.108000	 64.4479
5.192000	 64.6655
5.276000	 64.6475
5.359999	 64.6413
5.444000	 64.596
5.528000	 64.4731
5.612000	 64.5163
5.696000	 64.2822
5.780000	 63.5397
5.864000	 64.1307
5.948000	 64.3144
6.032000	 64.2551
6.116000	 64.1812
6.200000	 64.1907
6.284000	 64.2185
6.368000	 64.2454
6.452000	 64.1779
6.536000	 64.1576
6.620000	 64.2604
6.704000	 64.3962
6.788000	 64.2026
6.872000	 64.1168
6.956000	 64.076
7.040000	 64.0843
7.124000	 64.1682
7.208000	 63.9651
7.292000	 64.0311
7.376000	 64.0071
7.460000	 64.0035
7.544000	 63.9509
7.628000	 63.7742
7.712000	 64.0308
7.796000	 63.919
7.880000	 63.8068
7.964000	 63.6723
8.048000	 63.6824
8.132000	 63.6663
8.216000	 63.6051
8.300000	 63.7408
8.384000	 63.6886
8.468000	 63.5384
8.552000	 63.4478
8.635999	 63.2952
8.719999	 63.6596
8.804000	 63.8104
8.888000	 63.7574
8.972000	 63.6358
9.056000	 63.8102
9.140000	 63.7319
9.224000	 63.7318
9.308000	 63.5387
9.391999	 63.8766
9.475999	 63.7149
9.560000	 63.7797
9.644000	 63.5104
9.728000	 63.5429
9.812000	 63.6694
9.896000	 63.7582
9.980000	 63.8793
10.064	63.8898
10.148	63.8533
10.232	63.8589
10.316	63.9044
10.4	63.7819
10.484	63.6806
10.568	63.6766
10.652	63.7702
10.736	63.7807
10.82	63.9717
10.904	63.8375
10.988	63.6552
11.072	63.7781
11.156	63.5882
11.24	63.5489
11.324	63.7964
11.408	63.7493
11.492	63.787
11.576	63.7664
11.66	63.7539
11.744	63.7616
11.828	63.7581
11.912	63.7643
11.996	63.5898
12.08	63.8214
12.164	63.6066
12.248	63.565
12.332	63.668
12.416	63.5772
12.5	63.4923
12.584	63.4223
12.668	63.4946
12.752	63.6361
12.836	63.5907
12.92	63.4322
13.004	63.385
13.088	63.4047
13.172	63.3713
13.256	63.3246
13.34	63.3031
13.424	63.3913
13.508	63.5368
13.592	63.3802
13.676	63.2752
13.76	63.4006
13.844	63.4043
13.928	63.3205
14.012	63.4999
14.096	63.559
14.18	63.387
14.264	63.5509
14.348	63.798
14.432	63.827
14.516	63.9698
14.6	64.1105
14.684	63.9354
14.768	63.7251
14.852	63.5696
14.936	63.2777
15.02	63.2156
15.104	63.6404
15.188	63.9203
15.272	63.794
15.356	63.8676
15.44	64.1505
15.524	63.9107
15.608	63.2932
15.692	63.0768
15.776	63.0362
15.86	62.6561
15.944	62.4161
16.028	62.8921
16.112	63.7105
16.196	64.0319
16.28	63.5341
16.364	62.8108
16.448	62.6707
16.532	63.1492
16.616	63.5927
16.7	63.6709
16.784	63.6772
16.868	63.8001
16.952	63.9128
17.036	63.9906
17.12	64.0868
17.204	64.088
17.288	63.9124
17.372	63.7134
17.456	63.6739
17.54	63.791
17.624	63.9019
17.708	63.8632
17.792	63.7013
17.876	63.5562
17.96	63.5015
18.044	63.5008
18.128	63.5098
18.212	63.5001
18.296	63.3946
18.38	63.1445
18.464	62.8672
18.548	62.7795
18.632	62.9708
18.716	63.3192
18.8	63.66
18.884	63.9481
18.968	64.1948
19.052	64.3386
19.136	64.2859
19.22	64.0537
19.304	63.7823
19.388	63.5919
19.472	63.4837
19.556	63.3943
19.64	63.2985
19.724	63.2256
19.808	63.2006
19.892	63.2146
19.976	63.2485
20.06	63.2961
20.144	63.3503
20.228	63.3943
20.312	63.4207
20.396	63.4546
20.48	63.5324
20.564	63.6523
20.648	63.7593
20.732	63.7964
20.816	63.7665
20.9	63.7348
20.984	63.7591
21.068	63.8203
21.152	63.8365
21.236	63.7406
21.32	63.5486
21.404	63.3498
21.488	63.2307
21.572	63.2
21.656	63.1885
21.74	63.1172
21.824	62.9693
21.908	62.8107
21.992	62.7292
22.076	62.7561
22.16	62.8315
22.244	62.837
22.328	62.693
22.412	62.4146
22.496	62.1088
22.58	61.8817
22.664	61.7669
22.748	61.7095
22.832	61.6388
22.916	61.532
23	61.4635
23.084	61.5406
23.168	61.8356
23.252	62.3258
23.336	62.9024
23.42	63.4341
23.504	63.8245
23.588	64.0525
23.672	64.152
23.756	64.169
23.84	64.1372
23.924	64.0756
24.008	63.992
24.092	63.8872
24.176	63.7576
24.26	63.5471
24.344	63.1672
24.428	62.5563
24.512	61.6919
24.596	60.6615
24.68	59.6635
24.764	58.9387
24.848	58.6327
24.932	58.7437
25.016	59.1023
25.1	59.4359
25.184	59.4513
25.268	58.9798
25.352	58.0376
25.436	56.8448
25.52	55.7259
25.604	54.9665
25.688	54.7949
25.772	55.3317
25.856	56.6047
25.94	58.6083
26.024	61.3334
26.108	64.7327
26.192	68.6431
26.276	72.6969
26.36	76.3051
26.444	78.7793
26.528	79.5514
26.612	78.3607
26.696	75.3927
26.78	71.3062
26.864	67.0746
26.948	63.6842
27.028	61.9095