Folder: Masteroppgave/Bakgrunnsmateriale/MATLAB/FTIR/ftir_data/subAa/Mapping_121 (part 43)

File: BZ1503107-1_t99.asc
PE IR       SPECTRUM    SPECTRUM    ASCII       PEDS        1.60
  -1
BZ3D6B~1.ASC
17/04/07
21:22:58.00
17/04/07
21:23:24.00
tln
$BZ1503107-1_t0099$<tbV0>[-13.0,7.8,8.0,0.0,27,1,0]
27.028
64

2002,4.07
MIRTGS : RIGHTBACK : INTERNAL 2
MIR : ON : INTERNAL 2
OPTKBR

0.200000
8
8.000000
FILLER
RATIO
SPECTRUM
UNLOCKED 256

DOUBLE
64
COMBINED
1
0
0

0.002000
RATIO

1
0
TRUE
51149
0
LEFT NOT FITTED RIGHT NOT FITTED 0
NONE
NONE
15600
12
4.427000
51148
TRUE
1 0 8 72 0 0 0 0

15798

#HDR
-1
-1
#GR
µM
%T
2.38419e-05
0.0
2.000000
0.002000
12515
8
84.6274
26.0184
#DATA
2.000000	 65.2714
2.084000	 64.8806
2.168000	 64.5557
2.252000	 77.7235
2.336000	 64.5791
2.420000	 64.8568
2.504000	 64.987
2.588000	 65.1885
2.672000	 64.8126
2.756000	 65.0783
2.840000	 64.8489
2.924000	 64.8324
3.008000	 64.7906
3.092000	 65.008
3.176000	 64.7698
3.260000	 64.7524
3.344000	 64.6694
3.428000	 64.6148
3.512000	 64.5858
3.596000	 64.7659
3.680000	 64.6223
3.764000	 64.697
3.848000	 64.5811
3.932000	 64.5009
4.016000	 64.7531
4.100000	 64.4821
4.184000	 64.5488
4.268000	 64.5095
4.352000	 64.3573
4.436000	 64.5701
4.520000	 64.3833
4.604000	 64.3294
4.688000	 64.3244
4.772000	 64.2518
4.856000	 64.33
4.940000	 64.1833
5.024000	 64.2301
5.108000	 64.2347
5.192000	 64.1398
5.276000	 64.0755
5.359999	 64.1888
5.444000	 64.0416
5.528000	 64.1023
5.612000	 63.8846
5.696000	 63.7669
5.780000	 63.6531
5.864000	 63.8222
5.948000	 63.8271
6.032000	 63.9131
6.116000	 63.7859
6.200000	 63.8313
6.284000	 63.7564
6.368000	 63.7705
6.452000	 63.7674
6.536000	 63.6893
6.620000	 63.7387
6.704000	 63.7937
6.788000	 63.6818
6.872000	 63.5709
6.956000	 63.7133
7.040000	 63.6293
7.124000	 63.5654
7.208000	 63.4211
7.292000	 63.4809
7.376000	 63.4719
7.460000	 63.5079
7.544000	 63.5313
7.628000	 63.5115
7.712000	 63.4528
7.796000	 63.3696
7.880000	 63.3106
7.964000	 63.3291
8.048000	 63.3793
8.132000	 63.2038
8.216000	 63.4099
8.300000	 63.3119
8.384000	 63.3094
8.468000	 63.208
8.552000	 63.1481
8.635999	 63.1758
8.719999	 63.2062
8.804000	 63.1337
8.888000	 63.1748
8.972000	 63.2092
9.056000	 63.0786
9.140000	 63.2045
9.224000	 62.9845
9.308000	 62.9042
9.391999	 62.99
9.475999	 63.0106
9.560000	 63.0527
9.644000	 63.0492
9.728000	 63.1091
9.812000	 62.8996
9.896000	 62.8977
9.980000	 63.0413
10.064	63.15
10.148	63.312
10.232	63.3455
10.316	63.144
10.4	63.0536
10.484	63.1802
10.568	63.0408
10.652	63.0671
10.736	63.1936
10.82	63.0868
10.904	62.8422
10.988	62.9841
11.072	62.8496
11.156	62.9563
11.24	62.9997
11.324	62.8787
11.408	62.7587
11.492	62.8609
11.576	63.057
11.66	62.8709
11.744	62.7635
11.828	62.7416
11.912	62.873
11.996	62.8808
12.08	62.8786
12.164	63.1092
12.248	63.125
12.332	62.9727
12.416	62.8887
12.5	62.8166
12.584	62.961
12.668	63.0459
12.752	63.0408
12.836	63.092
12.92	62.9191
13.004	62.6892
13.088	62.6953
13.172	62.8326
13.256	62.9633
13.34	63.0142
13.424	63.0014
13.508	63.0781
13.592	63.1459
13.676	63.0641
13.76	62.8518
13.844	62.7561
13.928	62.7627
14.012	62.6384
14.096	62.5784
14.18	62.6181
14.264	62.5823
14.348	62.5055
14.432	62.399
14.516	62.3602
14.6	62.3764
14.684	62.2853
14.768	62.2304
14.852	62.3483
14.936	62.5026
15.02	62.5414
15.104	62.4883
15.188	62.4139
15.272	62.3619
15.356	62.3666
15.44	62.4023
15.524	62.5004
15.608	62.6157
15.692	62.5847
15.776	62.4962
15.86	62.5214
15.944	62.55
16.028	62.437
16.112	62.2424
16.196	62.0658
16.28	62.0545
16.364	62.3854
16.448	62.8454
16.532	62.9443
16.616	62.6621
16.7	62.4344
16.784	62.4601
16.868	62.5819
16.952	62.5461
17.036	62.2348
17.12	61.8452
17.204	61.6977
17.288	61.8522
17.372	62.0972
17.456	62.2705
17.54	62.3806
17.624	62.4539
17.708	62.4859
17.792	62.5172
17.876	62.5948
17.96	62.6685
18.044	62.6657
18.128	62.6228
18.212	62.597
18.296	62.5264
18.38	62.3316
18.464	62.1127
18.548	62.0638
18.632	62.1767
18.716	62.2229
18.8	62.0353
18.884	61.7182
18.968	61.5344
19.052	61.6777
19.136	62.0888
19.22	62.4957
19.304	62.652
19.388	62.5909
19.472	62.5906
19.556	62.8405
19.64	63.1604
19.724	63.1153
19.808	62.4532
19.892	61.3971
19.976	60.5256
20.06	60.3586
20.144	61.0034
20.228	62.1329
20.312	63.228
20.396	63.8762
20.48	63.9528
20.564	63.6127
20.648	63.1477
20.732	62.8203
20.816	62.7524
20.9	62.8939
20.984	63.0667
21.068	63.059
21.152	62.7639
21.236	62.2551
21.32	61.7399
21.404	61.4425
21.488	61.4742
21.572	61.7854
21.656	62.2138
21.74	62.5695
21.824	62.7322
21.908	62.693
21.992	62.4914
22.076	62.1467
22.16	61.6472
22.244	60.9924
22.328	60.267
22.412	59.6389
22.496	59.2904
22.58	59.3214
22.664	59.7085
22.748	60.297
22.832	60.8857
22.916	61.2981
23	61.4513
23.084	61.3639
23.168	61.1356
23.252	60.8888
23.336	60.7408
23.42	60.8012
23.504	61.1279
23.588	61.6911
23.672	62.3723
23.756	62.9709
23.84	63.2633
23.924	63.1124
24.008	62.5254
24.092	61.6503
24.176	60.7341
24.26	60.0096
24.344	59.6246
24.428	59.596
24.512	59.8679
24.596	60.3098
24.68	60.7278
24.764	60.9002
24.848	60.5826
24.932	59.5779
25.016	57.8562
25.1	55.5754
25.184	53.1451
25.268	51.1317
25.352	50.0921
25.436	50.4077
25.52	52.1327
25.604	55.0256
25.688	58.5634
25.772	62.0873
25.856	64.9876
25.94	66.7604
26.024	67.0623
26.108	65.7788
26.192	63.0283
26.276	59.0968
26.36	54.41
26.444	49.4507
26.528	44.6493
26.612	40.2775
26.696	36.4347
26.78	33.0852
26.864	30.1528
26.948	27.6865
27.028	26.0184

File: BZ1503107-1_t99_cm-1.asc
PE IR       SPECTRUM    SPECTRUM    ASCII       PEDS        1.60
  -1
BZ61B5~1.ASC
17/04/07
21:22:58.00
17/04/07
21:22:58.00
tln
$BZ1503107-1_t0099$<tbV0>[-13.0,7.8,8.0,0.0,27,1,0]
370
64

2002,4.07
MIRTGS : RIGHTBACK : INTERNAL 2
MIR : ON : INTERNAL 2
OPTKBR

0.200000
8
8.000000
FILLER
RATIO
SPECTRUM
UNLOCKED 256

DOUBLE
64
COMBINED
1
0
0

1.000000
RATIO

1
0
TRUE
51149
0
LEFT NOT FITTED RIGHT NOT FITTED 0
NONE
NONE
15600
12
4.427000
51148
TRUE
1 0 8 72 0 0 0 0

15798

#HDR
-1
-1
#GR
CM-1
%T
2.38419e-05
0.0
5000
-1.000000
4631
8
85.1066
26.0184
#DATA
5000	65.2714
4984	64.2206
4968	64.6262
4952	65.9846
4936	64.6058
4920	64.4959
4904	65.0602
4888	64.7574
4872	64.5544
4856	64.3846
4840	64.5658
4824	65.1276
4808	64.7356
4792	64.7943
4776	65.1823
4760	64.7965
4744	65.121
4728	64.8801
4712	64.9312
4696	64.611
4680	65.2011
4664	65.1207
4648	65.0064
4632	65.0747
4616	64.5986
4600	64.6997
4584	64.4749
4568	64.3772
4552	64.1328
4536	64.5189
4520	64.5938
4504	64.4313
4488	63.9209
4472	63.1062
4456	66.1082
4440	75.5602
4424	67.11
4408	64.4937
4392	64.3891
4376	64.2116
4360	64.3228
4344	64.3231
4328	64.2129
4312	64.1068
4296	64.5983
4280	64.5686
4264	64.2229
4248	65.0726
4232	64.5991
4216	64.8436
4200	64.5133
4184	64.8662
4168	65.2549
4152	65.0453
4136	64.9231
4120	65.0458
4104	65.1611
4088	65.0027
4072	64.8397
4056	65.0009
4040	64.7637
4024	64.8636
4008	64.8665
3992	64.9771
3976	64.8046
3960	64.9737
3944	64.4308
3928	64.8535
3912	64.7843
3896	64.852
3880	64.8776
3864	65.1881
3848	64.861
3832	64.9372
3816	65.0485
3800	64.9055
3784	64.8847
3768	65.0549
3752	64.7876
3736	64.8552
3720	65.1637
3704	65.3056
3688	65.1619
3672	64.9429
3656	64.9181
3640	64.958
3624	64.9527
3608	65.0024
3592	65.2471
3576	64.9389
3560	64.8916
3544	64.8
3528	64.8781
3512	64.8999
3496	65.0038
3480	64.7771
3464	64.9815
3448	64.8751
3432	64.8381
3416	64.8591
3400	64.8093
3384	64.9299
3368	64.7392
3352	64.8352
3336	64.8516
3320	64.8829
3304	64.9723
3288	64.906
3272	64.8793
3256	65.0674
3240	64.9759
3224	64.8564
3208	64.8571
3192	64.8426
3176	64.9135
3160	64.9322
3144	64.864
3128	64.8974
3112	64.892
3096	64.9286
3080	64.8178
3064	64.7611
3048	65.0025
3032	64.6991
3016	64.7382
3000	64.8108
2984	64.7071
2968	64.6998
2952	64.544
2936	64.7151
2920	64.6436
2904	64.7768
2888	64.5185
2872	64.6545
2856	64.6363
2840	64.5456
2824	64.6586
2808	64.6699
2792	64.6768
2776	64.8046
2760	64.71
2744	64.6504
2728	64.7322
2712	64.6676
2696	64.6066
2680	64.6413
2664	64.6303
2648	64.7397
2632	64.6784
2616	64.661
2600	64.5662
2584	64.6639
2568	64.6475
2552	64.6318
2536	64.589
2520	64.6678
2504	64.4893
2488	64.7404
2472	64.686
2456	64.6667
2440	64.4711
2424	64.6703
2408	64.5478
2392	64.5727
2376	64.6059
2360	64.5833
2344	64.5133
2328	64.4863
2312	64.5785
2296	64.4095
2280	64.4626
2264	64.4421
2248	64.5471
2232	64.348
2216	64.356
2200	64.3025
2184	64.3768
2168	64.3247
2152	64.2353
2136	64.3358
2120	64.3492
2104	64.3608
2088	64.188
2072	64.1908
2056	64.3589
2040	64.2356
2024	64.1841
2008	64.235
1992	64.2508
1976	64.2341
1960	64.2563
1944	64.1062
1928	64.1223
1912	64.1956
1896	64.0671
1880	64.0625
1864	64.1874
1848	64.0436
1832	64.0935
1816	64.0463
1800	64.1145
1784	63.8868
1768	63.9542
1752	63.7022
1736	63.6715
1720	63.7037
1704	63.8406
1688	63.8114
1672	63.786
1656	63.8882
1640	63.8323
1624	63.8316
1608	63.7887
1592	63.7542
1576	63.7182
1560	63.7279
1544	63.729
1528	63.6805
1512	63.729
1496	63.7743
1480	63.6636
1464	63.6708
1448	63.5503
1432	63.7314
1416	63.5521
1400	63.5365
1384	63.4576
1368	63.4995
1352	63.4716
1336	63.4204
1320	63.4565
1304	63.5125
1288	63.3857
1272	63.3441
1256	63.3308
1240	63.3485
1224	63.3538
1208	63.335
1192	63.3013
1176	63.2036
1160	63.1503
1144	63.1887
1128	63.1236
1112	63.1214
1096	63.2111
1080	62.8442
1064	62.9958
1048	63.0048
1032	63.025
1016	62.8416
1000	63.0685
984	 63.3516
968	 63.1089
952	 63.1776
936	 63.1362
920	 62.926
904	 62.875
888	 62.9711
872	 62.8097
856	 62.8045
840	 62.8591
824	 63.0257
808	 62.936
792	 63.0274
776	 63.0206
760	 62.8079
744	 63.0081
728	 62.9128
712	 62.5933
696	 62.4823
680	 62.2571
664	 62.5215
648	 62.3972
632	 62.4971
616	 62.0264
600	 62.495
584	 61.8334
568	 62.4414
552	 62.6281
536	 62.2091
520	 62.5325
504	 62.0535
488	 63.9248
472	 62.5708
456	 62.6546
440	 60.144
424	 61.6676
408	 59.8582
392	 51.8658
376	 41.0813
370	 26.0184

File: BZ1503107-1_t100.asc
PE IR       SPECTRUM    SPECTRUM    ASCII       PEDS        1.60
  -1
BZC6B2~1.ASC
17/04/07
21:28:12.00
17/04/07
21:28:38.00
tln
$BZ1503107-1_t0100$<tbV0>[13.0,10.4,8.0,0.0,27,1,0]
27.028
64

2002,4.07
MIRTGS : RIGHTBACK : INTERNAL 2
MIR : ON : INTERNAL 2
OPTKBR

0.200000
8
8.000000
FILLER
RATIO
SPECTRUM
UNLOCKED 256

DOUBLE
64
COMBINED
1
0
0

0.002000
RATIO

1
0
TRUE
51149
0
LEFT NOT FITTED RIGHT NOT FITTED 0
NONE
NONE
15600
12
4.427000
51148
TRUE
1 0 8 72 0 0 0 0

15798

#HDR
-1
-1
#GR
µM
%T
2.38419e-05
0.0
2.000000
0.002000
12515
8
77.7101
50.8469
#DATA
2.000000	 65.0362
2.084000	 65.0922
2.168000	 65.1161
2.252000	 67.4284
2.336000	 64.65
2.420000	 64.9128
2.504000	 65.0499
2.588000	 64.9352
2.672000	 64.9676
2.756000	 65.004
2.840000	 64.961
2.924000	 65.0467
3.008000	 64.9399
3.092000	 65.1069
3.176000	 64.7303
3.260000	 64.7887
3.344000	 64.8725
3.428000	 64.6848
3.512000	 64.6718
3.596000	 64.8117
3.680000	 64.8203
3.764000	 64.6836
3.848000	 64.5762
3.932000	 64.5865
4.016000	 64.5967
4.100000	 64.5201
4.184000	 64.544
4.268000	 64.5972
4.352000	 64.3581
4.436000	 64.6073
4.520000	 64.346
4.604000	 64.403
4.688000	 64.2994
4.772000	 64.2961
4.856000	 64.5389
4.940000	 64.1878
5.024000	 64.2201
5.108000	 64.2566
5.192000	 64.1615
5.276000	 64.1095
5.359999	 64.1815
5.444000	 64.2166
5.528000	 64.1607
5.612000	 64.0307
5.696000	 63.9706
5.780000	 63.8647
5.864000	 63.9279
5.948000	 63.8055
6.032000	 63.8835
6.116000	 63.9103
6.200000	 63.8806
6.284000	 63.9259
6.368000	 63.8649
6.452000	 63.663
6.536000	 63.829
6.620000	 63.6244
6.704000	 63.7368
6.788000	 63.7301
6.872000	 63.503
6.956000	 63.5055
7.040000	 63.5177
7.124000	 63.5645
7.208000	 63.6207
7.292000	 63.534
7.376000	 63.5518
7.460000	 63.472
7.544000	 63.5409
7.628000	 63.5133
7.712000	 63.3726
7.796000	 63.2613
7.880000	 63.2985
7.964000	 63.3287
8.048000	 63.2832
8.132000	 63.3566
8.216000	 63.335
8.300000	 63.3349
8.384000	 63.3096
8.468000	 63.2764
8.552000	 63.2122
8.635999	 63.1404
8.719999	 63.2527
8.804000	 63.3404
8.888000	 63.1878
8.972000	 63.1393
9.056000	 63.1105
9.140000	 63.129
9.224000	 63.1621
9.308000	 63.0989
9.391999	 63.0481
9.475999	 63.0818
9.560000	 63.2591
9.644000	 63.3148
9.728000	 63.2162
9.812000	 63.1004
9.896000	 63.1257
9.980000	 63.1159
10.064	63.2294
10.148	63.1804
10.232	63.3093
10.316	63.2687
10.4	63.1198
10.484	63.1367
10.568	63.0555
10.652	63.2116
10.736	63.1746
10.82	63.2598
10.904	63.1792
10.988	63.1831
11.072	63.0935
11.156	62.9871
11.24	63.0177
11.324	63.0876
11.408	62.9072
11.492	62.9661
11.576	63.2076
11.66	63.1823
11.744	63.0183
11.828	62.8743
11.912	62.9251
11.996	62.8363
12.08	62.7814
12.164	62.9805
12.248	63.1089
12.332	63.1874
12.416	63.0018
12.5	62.7867
12.584	62.8343
12.668	62.8655
12.752	62.9084
12.836	62.9266
12.92	62.9008
13.004	62.8036
13.088	62.7441
13.172	62.8715
13.256	63.0308
13.34	62.9841
13.424	62.7297
13.508	62.6447
13.592	62.7629
13.676	62.7417
13.76	62.6293
13.844	62.6469
13.928	62.655
14.012	62.5102
14.096	62.3518
14.18	62.3396
14.264	62.3869
14.348	62.4943
14.432	62.6271
14.516	62.7362
14.6	62.7723
14.684	62.5703
14.768	62.2931
14.852	62.2911
14.936	62.5345
15.02	62.6663
15.104	62.5406
15.188	62.3915
15.272	62.3942
15.356	62.464
15.44	62.5605
15.524	62.7034
15.608	62.7243
15.692	62.5573
15.776	62.4082
15.86	62.3401
15.944	62.2261
16.028	62.1265
16.112	62.1751
16.196	62.2533
16.28	62.265
16.364	62.3641
16.448	62.5155
16.532	62.4913
16.616	62.388
16.7	62.4682
16.784	62.6826
16.868	62.8313
16.952	62.822
17.036	62.6551
17.12	62.4147
17.204	62.1903
17.288	62.0095
17.372	61.9417
17.456	62.0826
17.54	62.3237
17.624	62.3852
17.708	62.2228
17.792	62.1611
17.876	62.515
17.96	63.1928
18.044	63.7979
18.128	63.9921
18.212	63.6693
18.296	62.9166
18.38	62.004
18.464	61.374
18.548	61.4018
18.632	62.0584
18.716	62.8802
18.8	63.3229
18.884	63.1905
18.968	62.7364
19.052	62.4147
19.136	62.4561
19.22	62.6968
19.304	62.8111
19.388	62.7027
19.472	62.5514
19.556	62.4797
19.64	62.3005
19.724	61.7231
19.808	60.7742
19.892	59.8867
19.976	59.5403
20.06	59.8737
20.144	60.6526
20.228	61.5497
20.312	62.3524
20.396	62.9371
20.48	63.1748
20.564	62.9751
20.648	62.4208
20.732	61.7958
20.816	61.4027
20.9	61.354
20.984	61.5347
21.068	61.7379
21.152	61.8235
21.236	61.7787
21.32	61.6577
21.404	61.509
21.488	61.3547
21.572	61.2059
21.656	61.0889
21.74	61.0372
21.824	61.0841
21.908	61.2378
21.992	61.4384
22.076	61.5611
22.16	61.4809
22.244	61.1821
22.328	60.8055
22.412	60.5638
22.496	60.6032
22.58	60.9054
22.664	61.3142
22.748	61.6261
22.832	61.7264
22.916	61.614
23	61.3635
23.084	61.0475
23.168	60.7022
23.252	60.338
23.336	59.9879
23.42	59.7406
23.504	59.705
23.588	59.957
23.672	60.4858
23.756	61.157
23.84	61.7624
23.924	62.0904
24.008	61.9993
24.092	61.4674
24.176	60.6284
24.26	59.6893
24.344	58.8947
24.428	58.4351
24.512	58.4036
24.596	58.7499
24.68	59.3015
24.764	59.823
24.848	60.0871
24.932	59.9282
25.016	59.3035
25.1	58.2625
25.184	56.9596
25.268	55.6178
25.352	54.4803
25.436	53.7512
25.52	53.5841
25.604	54.1138
25.688	55.4809
25.772	57.7918
25.856	61.0448
25.94	65.0282
26.024	69.2818
26.108	73.1726
26.192	76.0889
26.276	77.5703
26.36	77.4139
26.444	75.7526
26.528	72.9572
26.612	69.4496
26.696	65.5764
26.78	61.5613
26.864	57.5534
26.948	53.7829
27.028	50.8469

File: BZ1503107-1_t100_cm-1.asc
PE IR       SPECTRUM    SPECTRUM    ASCII       PEDS        1.60
  -1
BZBB70~1.ASC
17/04/07
21:28:12.00
17/04/07
21:28:12.00
tln
$BZ1503107-1_t0100$<tbV0>[13.0,10.4,8.0,0.0,27,1,0]
370
64

2002,4.07
MIRTGS : RIGHTBACK : INTERNAL 2
MIR : ON : INTERNAL 2
OPTKBR

0.200000
8
8.000000
FILLER
RATIO
SPECTRUM
UNLOCKED 256

DOUBLE
64
COMBINED
1
0
0

1.000000
RATIO

1
0
TRUE
51149
0
LEFT NOT FITTED RIGHT NOT FITTED 0
NONE
NONE
15600
12
4.427000
51148
TRUE
1 0 8 72 0 0 0 0

15798

#HDR
-1
-1
#GR
CM-1
%T
2.38419e-05
0.0
5000
-1.000000
4631
8
77.7067
50.8469
#DATA
5000	65.0362
4984	65.2672
4968	63.1571
4952	66.9085
4936	66.3001
4920	65.1818
4904	64.7206
4888	64.4769
4872	65.2039
4856	64.7677
4840	64.4342
4824	64.8458
4808	64.6504
4792	65.1637
4776	64.6805
4760	65.0192
4744	65.1356
4728	64.9176
4712	64.9027
4696	64.9848
4680	65.1098
4664	65.1634
4648	65.3573
4632	64.9297
4616	65.095
4600	64.9831
4584	64.7155
4568	64.7495
4552	64.7389
4536	65.082
4520	64.3811
4504	65.1384
4488	65.24
4472	65.3649
4456	65.1054
4440	66.7633
4424	64.0861
4408	64.8282
4392	64.5462
4376	64.8816
4360	65.5222
4344	65.1143
4328	64.9013
4312	65.175
4296	65.3322
4280	64.612
4264	64.9191
4248	65.0523
4232	64.7014
4216	64.7689
4200	65.3011
4184	64.944
4168	64.9962
4152	64.8146
4136	64.8508
4120	64.8178
4104	65.1071
4088	64.9288
4072	65.0357
4056	64.8666
4040	64.8731
4024	65.1032
4008	65.0077
3992	65.0798
3976	64.7769
3960	64.9085
3944	64.8692
3928	64.9527
3912	64.9669
3896	65.1186
3880	65.1114
3864	64.935
3848	65.1317
3832	65.0881
3816	65.1573
3800	65.0852
3784	65.1585
3768	65.0054
3752	65.0814
3736	65.0071
3720	65.0749
3704	64.81
3688	65.1331
3672	64.829
3656	65.0228
3640	65.141
3624	64.9132
3608	64.984
3592	65.0941
3576	64.9211
3560	65.0341
3544	64.6996
3528	65.086
3512	65.0446
3496	64.9614
3480	64.8851
3464	65.0052
3448	64.8225
3432	65.0027
3416	65.0876
3400	64.8357
3384	65.0288
3368	64.9454
3352	64.9954
3336	64.9118
3320	64.9482
3304	64.8867
3288	64.9959
3272	64.7914
3256	64.9932
3240	64.9319
3224	64.8976
3208	64.821
3192	64.9238
3176	64.915
3160	64.7366
3144	64.6098
3128	64.864
3112	64.8984
3096	65.0448
3080	64.7157
3064	64.8089
3048	64.9333
3032	64.9263
3016	64.9027
3000	64.9536
2984	64.8464
2968	64.7981
2952	64.5983
2936	64.5949
2920	64.6857
2904	64.7009
2888	64.6517
2872	64.7354
2856	64.6253
2840	64.6534
2824	64.7722
2808	64.7502
2792	64.768
2776	64.7964
2760	64.7624
2744	64.7223
2728	64.7619
2712	64.7483
2696	64.7277
2680	64.6517
2664	64.6916
2648	64.8143
2632	64.6441
2616	64.6832
2600	64.5654
2584	64.5937
2568	64.6951
2552	64.6604
2536	64.6886
2520	64.5856
2504	64.5377
2488	64.5908
2472	64.5535
2456	64.643
2440	64.5094
2424	64.6144
2408	64.512
2392	64.5691
2376	64.5213
2360	64.6098
2344	64.5936
2328	64.5402
2312	64.5303
2296	64.4297
2280	64.5391
2264	64.5261
2248	64.5718
2232	64.467
2216	64.3818
2200	64.412
2184	64.3601
2168	64.4537
2152	64.2851
2136	64.3156
2120	64.3424
2104	64.3266
2088	64.273
2072	64.2596
2056	64.5973
2040	64.2353
2024	64.1793
2008	64.2504
1992	64.2241
1976	64.1846
1960	64.2433
1944	64.1593
1928	64.135
1912	64.2079
1896	64.1107
1880	64.129
1864	64.209
1848	64.0584
1832	64.1969
1816	64.1232
1800	64.1712
1784	64.0228
1768	64.0331
1752	63.8934
1736	63.8391
1720	63.7938
1704	63.9249
1688	63.919
1672	63.7776
1656	63.867
1640	63.9184
1624	63.7767
1608	63.8884
1592	63.9179
1576	63.7882
1560	63.8494
1544	63.7335
1528	63.8027
1512	63.592
1496	63.7116
1480	63.6225
1464	63.6703
1448	63.608
1432	63.5474
1416	63.5145
1400	63.5374
1384	63.6306
1368	63.4825
1352	63.5508
1336	63.3963
1320	63.5457
1304	63.2754
1288	63.3616
1272	63.2842
1256	63.338
1240	63.2906
1224	63.4131
1208	63.352
1192	63.2985
1176	63.3424
1160	63.1083
1144	63.2828
1128	63.1597
1112	63.1067
1096	63.1688
1080	63.0929
1064	63.0431
1048	63.2111
1032	63.2015
1016	63.0599
1000	63.1433
984	 63.1863
968	 63.2445
952	 63.1223
936	 63.1702
920	 63.2157
904	 63.1167
888	 63.062
872	 62.9116
856	 63.1553
840	 62.9268
824	 62.8907
808	 63.1435
792	 62.846
776	 62.9203
760	 62.8413
744	 62.6884
728	 62.6508
712	 62.4348
696	 62.5274
680	 62.4892
664	 62.6289
648	 62.5485
632	 62.3691
616	 62.2601
600	 62.4098
584	 62.4053
568	 62.3963
552	 63.996
536	 62.3104
520	 62.7238
504	 60.3838
488	 63.1739
472	 61.8181
456	 61.2895
440	 61.5667
424	 59.9425
408	 58.3992
392	 53.5695
376	 70.1622
370	 50.8469

File: BZ1503107-1_t101.asc
PE IR       SPECTRUM    SPECTRUM    ASCII       PEDS        1.60
  -1
BZC6B6~1.ASC
17/04/07
21:32:49.00
17/04/07
21:33:16.00
tln
$BZ1503107-1_t0101$<tbV0>[10.4,10.4,8.0,0.0,27,1,0]
27.028
64

2002,4.07
MIRTGS : RIGHTBACK : INTERNAL 2
MIR : ON : INTERNAL 2
OPTKBR

0.200000
8
8.000000
FILLER
RATIO
SPECTRUM
UNLOCKED 256

DOUBLE
64
COMBINED
1
0
0

0.002000
RATIO

1
0
TRUE
51149
0
LEFT NOT FITTED RIGHT NOT FITTED 0
NONE
NONE
15600
12
4.427000
51148
TRUE
1 0 8 72 0 0 0 0

15798

#HDR
-1
-1
#GR
µM
%T
2.38419e-05
0.0
2.000000
0.002000
12515
8
90.1425
30.9998
#DATA
2.000000	 64.2932
2.084000	 64.4816
2.168000	 64.1804
2.252000	 90.1425
2.336000	 64.0886
2.420000	 64.6992
2.504000	 64.5639
2.588000	 64.4261
2.672000	 64.6264
2.756000	 64.6121
2.840000	 64.6054
2.924000	 64.3908
3.008000	 64.2632
3.092000	 64.4793
3.176000	 64.3699
3.260000	 64.2696
3.344000	 64.3853
3.428000	 64.3786
3.512000	 64.1516
3.596000	 64.3252
3.680000	 64.3121
3.764000	 64.1489
3.848000	 64.1589
3.932000	 64.1421
4.016000	 64.3032
4.100000	 64.1259
4.184000	 64.1379
4.268000	 64.1437
4.352000	 64.0907
4.436000	 64.0913
4.520000	 64.0832
4.604000	 64.044
4.688000	 63.9996
4.772000	 63.9773
4.856000	 63.9577
4.940000	 63.9415
5.024000	 64.0049
5.108000	 64.0302
5.192000	 63.8801
5.276000	 63.9278
5.359999	 63.855
5.444000	 63.9884
5.528000	 63.9389
5.612000	 63.7233
5.696000	 63.6641
5.780000	 63.4354
5.864000	 63.6338
5.948000	 63.6059
6.032000	 63.6029
6.116000	 63.685
6.200000	 63.5578
6.284000	 63.714
6.368000	 63.5263
6.452000	 63.5079
6.536000	 63.4736
6.620000	 63.5671
6.704000	 63.6016
6.788000	 63.5922
6.872000	 63.3595
6.956000	 63.3165
7.040000	 63.4831
7.124000	 63.4579
7.208000	 63.4477
7.292000	 63.2486
7.376000	 63.2533
7.460000	 63.3374
7.544000	 63.38
7.628000	 63.3678
7.712000	 63.2257
7.796000	 63.2107
7.880000	 63.1217
7.964000	 63.1343
8.048000	 63.1803
8.132000	 63.159
8.216000	 63.2732
8.300000	 63.1806
8.384000	 63.1775
8.468000	 63.0919
8.552000	 62.9464
8.635999	 63.0242
8.719999	 63.0927
8.804000	 63.0454
8.888000	 63.0451
8.972000	 62.9913
9.056000	 62.8672
9.140000	 62.9911
9.224000	 62.9659
9.308000	 62.7576
9.391999	 62.9867
9.475999	 62.7567
9.560000	 62.9858
9.644000	 63.135
9.728000	 63.0485
9.812000	 62.9812
9.896000	 62.9293
9.980000	 62.8178
10.064	62.9136
10.148	63.0987
10.232	63.0649
10.316	63.0505
10.4	62.9788
10.484	63.0539
10.568	62.9443
10.652	62.9415
10.736	62.9485
10.82	63.0487
10.904	62.9697
10.988	62.9215
11.072	62.8901
11.156	62.898
11.24	62.9073
11.324	62.8488
11.408	62.9897
11.492	63.0885
11.576	63.1052
11.66	63.0779
11.744	62.9652
11.828	62.8767
11.912	62.8984
11.996	62.989
12.08	62.9112
12.164	62.809
12.248	62.927
12.332	62.9661
12.416	62.8527
12.5	62.5541
12.584	62.7077
12.668	62.9155
12.752	62.947
12.836	62.7
12.92	62.5215
13.004	62.6055
13.088	62.6827
13.172	62.6875
13.256	62.6483
13.34	62.6902
13.424	62.7307
13.508	62.7804
13.592	62.8646
13.676	62.7618
13.76	62.6091
13.844	62.6052
13.928	62.6829
14.012	62.6908
14.096	62.5916
14.18	62.4891
14.264	62.4914
14.348	62.6064
14.432	62.6946
14.516	62.673
14.6	62.5789
14.684	62.484
14.768	62.4099
14.852	62.4048
14.936	62.4981
15.02	62.5281
15.104	62.3694
15.188	62.1841
15.272	62.1944
15.356	62.3669
15.44	62.5138
15.524	62.6109
15.608	62.7104
15.692	62.7027
15.776	62.5204
15.86	62.2768
15.944	62.014
16.028	61.7699
16.112	61.7445
16.196	61.999
16.28	62.3388
16.364	62.5968
16.448	62.6637
16.532	62.495
16.616	62.2515
16.7	62.1601
16.784	62.2393
16.868	62.301
16.952	62.1837
17.036	61.9889
17.12	61.9618
17.204	62.0727
17.288	62.0658
17.372	61.9361
17.456	61.973
17.54	62.2792
17.624	62.5765
17.708	62.5698
17.792	62.2707
17.876	61.9047
17.96	61.6334
18.044	61.4852
18.128	61.5012
18.212	61.8035
18.296	62.3714
18.38	62.8372
18.464	62.7769
18.548	62.2263
18.632	61.6597
18.716	61.4644
18.8	61.5917
18.884	61.7585
18.968	61.8249
19.052	61.8768
19.136	61.971
19.22	62.0128
19.304	61.9164
19.388	61.7816
19.472	61.7829
19.556	61.9309
19.64	61.9975
19.724	61.691
19.808	60.9233
19.892	59.9187
19.976	59.1103
20.06	58.8889
20.144	59.3853
20.228	60.4091
20.312	61.5559
20.396	62.4175
20.48	62.7756
20.564	62.6749
20.648	62.3361
20.732	62.0066
20.816	61.8318
20.9	61.822
20.984	61.8962
21.068	61.9504
21.152	61.9093
21.236	61.7513
21.32	61.5057
21.404	61.2383
21.488	61.0197
21.572	60.9051
21.656	60.9307
21.74	61.0991
21.824	61.366
21.908	61.6343
21.992	61.782
22.076	61.7252
22.16	61.4744
22.244	61.134
22.328	60.8415
22.412	60.6859
22.496	60.6577
22.58	60.6935
22.664	60.7466
22.748	60.8322
22.832	61.0066
22.916	61.3077
23	61.688
23.084	62.0417
23.168	62.2531
23.252	62.2815
23.336	62.1923
23.42	62.1419
23.504	62.28
23.588	62.6596
23.672	63.2041
23.756	63.7183
23.84	64.0011
23.924	63.9164
24.008	63.454
24.092	62.7357
24.176	61.9522
24.26	61.3209
24.344	61.034
24.428	61.1878
24.512	61.8045
24.596	62.8065
24.68	63.9961
24.764	65.0759
24.848	65.7311
24.932	65.7286
25.016	65.0262
25.1	63.7493
25.184	62.1322
25.268	60.4219
25.352	58.8142
25.436	57.3976
25.52	56.1678
25.604	55.0851
25.688	54.0776
25.772	53.0066
25.856	51.6755
25.94	49.9176
26.024	47.6959
26.108	45.1731
26.192	42.6791
26.276	40.6085
26.36	39.3021
26.444	38.8931
26.528	39.2134
26.612	39.8409
26.696	40.1551
26.78	39.4978
26.864	37.4852
26.948	34.296
27.028	30.9998