Folder: Masteroppgave/Bakgrunnsmateriale/MATLAB/FTIR/ftir_data/subAa/Mapping_121 (part 46)

File: BZ1503107-1_t106_cm-1.asc
PE IR       SPECTRUM    SPECTRUM    ASCII       PEDS        1.60
  -1
BZCB79~1.ASC
17/04/07
21:55:55.00
17/04/07
21:55:55.00
tln
$BZ1503107-1_t0106$<tbV0>[-2.6,10.4,8.0,0.0,27,1,0]
370
64

2002,4.07
MIRTGS : RIGHTBACK : INTERNAL 2
MIR : ON : INTERNAL 2
OPTKBR

0.200000
8
8.000000
FILLER
RATIO
SPECTRUM
UNLOCKED 256

DOUBLE
64
COMBINED
1
0
0

1.000000
RATIO

1
0
TRUE
51149
0
LEFT NOT FITTED RIGHT NOT FITTED 0
NONE
NONE
15600
12
4.427000
51148
TRUE
1 0 8 72 0 0 0 0

15798

#HDR
-1
-1
#GR
CM-1
%T
2.38419e-05
0.0
5000
-1.000000
4631
8
85.0374
52.6392
#DATA
5000	63.984
4984	64.7501
4968	63.8898
4952	66.5377
4936	64.4624
4920	65.3848
4904	64.937
4888	64.7868
4872	64.3778
4856	64.8359
4840	64.8282
4824	65.088
4808	65.1386
4792	65.0806
4776	64.8799
4760	65.1368
4744	64.6708
4728	64.8695
4712	65.257
4696	65.2108
4680	65.3171
4664	65.3804
4648	65.2238
4632	65.1451
4616	64.8749
4600	64.4862
4584	64.6472
4568	64.6437
4552	64.5011
4536	64.353
4520	64.3917
4504	64.7604
4488	64.1519
4472	64.3383
4456	65.9663
4440	78.6044
4424	54.2985
4408	65.1656
4392	64.9967
4376	64.6478
4360	64.835
4344	65.1641
4328	64.7661
4312	64.8898
4296	64.8295
4280	64.8374
4264	64.9112
4248	64.8628
4232	64.7665
4216	64.7865
4200	65.1824
4184	65.0824
4168	64.9835
4152	65.1982
4136	64.8583
4120	65.1027
4104	65.0623
4088	65.0862
4072	65.0929
4056	65.0078
4040	64.798
4024	64.9597
4008	64.9912
3992	64.9176
3976	65.1165
3960	64.9881
3944	64.6171
3928	64.9841
3912	64.7064
3896	64.8995
3880	65.0808
3864	65.155
3848	65.1726
3832	64.959
3816	64.9824
3800	65.0857
3784	64.9084
3768	65.0069
3752	65.0777
3736	65.3161
3720	65.2699
3704	65.0728
3688	65.0332
3672	65.0642
3656	65.0089
3640	65.1111
3624	64.8254
3608	65.0964
3592	65.1127
3576	64.8351
3560	64.8438
3544	64.9998
3528	64.8707
3512	64.9999
3496	65.0659
3480	64.924
3464	64.9521
3448	64.8087
3432	65.099
3416	65.1137
3400	65.0947
3384	64.9128
3368	64.8472
3352	65.0328
3336	64.9127
3320	64.9611
3304	64.8497
3288	65.0182
3272	64.9054
3256	65.0053
3240	64.8686
3224	64.8016
3208	64.863
3192	64.9131
3176	65.0294
3160	64.6988
3144	64.8167
3128	64.7934
3112	64.9006
3096	64.8597
3080	64.7399
3064	64.8298
3048	64.9753
3032	64.8962
3016	64.8717
3000	64.7369
2984	64.7202
2968	64.6154
2952	64.5504
2936	64.8136
2920	64.7248
2904	64.6318
2888	64.6987
2872	64.7264
2856	64.5229
2840	64.6356
2824	64.7562
2808	64.7151
2792	64.7288
2776	64.6229
2760	64.7283
2744	64.7583
2728	64.801
2712	64.7964
2696	64.6402
2680	64.5782
2664	64.6114
2648	64.7719
2632	64.6615
2616	64.5833
2600	64.5149
2584	64.6246
2568	64.5648
2552	64.7047
2536	64.5134
2520	64.5056
2504	64.5902
2488	64.6684
2472	64.558
2456	64.6452
2440	64.4326
2424	64.5822
2408	64.4867
2392	64.4384
2376	64.4512
2360	64.6274
2344	64.3727
2328	64.4334
2312	64.3989
2296	64.4801
2280	64.3789
2264	64.3951
2248	64.3426
2232	64.3908
2216	64.3011
2200	64.2437
2184	64.1888
2168	64.296
2152	64.1977
2136	64.2573
2120	64.168
2104	64.1737
2088	64.0848
2072	64.1415
2056	64.1607
2040	64.1782
2024	64.0135
2008	64.0792
1992	64.143
1976	63.9806
1960	64.1233
1944	63.9393
1928	63.9443
1912	63.9847
1896	64.0036
1880	64.0029
1864	63.9294
1848	63.8393
1832	63.9645
1816	63.9572
1800	63.9332
1784	63.7595
1768	63.8134
1752	63.6039
1736	63.4378
1720	63.6064
1704	63.6714
1688	63.7129
1672	63.5494
1656	63.698
1640	63.5584
1624	63.629
1608	63.5903
1592	63.6539
1576	63.4366
1560	63.5449
1544	63.512
1528	63.4938
1512	63.4798
1496	63.4718
1480	63.4318
1464	63.3615
1448	63.3988
1432	63.3348
1416	63.3673
1400	63.2079
1384	63.3105
1368	63.2045
1352	63.1945
1336	63.2421
1320	63.0682
1304	63.1662
1288	63.0637
1272	63.1333
1256	63.1379
1240	62.9977
1224	62.9862
1208	63.0737
1192	63.0558
1176	62.8839
1160	62.7804
1144	62.9977
1128	62.8319
1112	62.8229
1096	62.9104
1080	62.6275
1064	62.7045
1048	62.7519
1032	62.5279
1016	62.7055
1000	62.5518
984	 62.7854
968	 62.6519
952	 62.7705
936	 62.6096
920	 62.6936
904	 62.5143
888	 62.5765
872	 62.6625
856	 62.5755
840	 62.4981
824	 62.4843
808	 62.5806
792	 62.5208
776	 62.3993
760	 62.3638
744	 62.3978
728	 62.3418
712	 62.2245
696	 62.2174
680	 62.1565
664	 62.4556
648	 62.015
632	 62.3177
616	 61.8084
600	 61.9573
584	 60.9883
568	 60.9937
552	 61.6554
536	 61.8248
520	 62.2215
504	 61.6083
488	 61.8663
472	 61.3007
456	 60.8145
440	 59.812
424	 60.2897
408	 61.9324
392	 65.996
376	 63.6787
370	 64.0568

File: BZ1503107-1_t107.asc
PE IR       SPECTRUM    SPECTRUM    ASCII       PEDS        1.60
  -1
BZE6BE~1.ASC
17/04/07
22:00:32.00
17/04/07
22:00:59.00
tln
$BZ1503107-1_t0107$<tbV0>[-5.2,10.4,8.0,0.0,27,1,0]
27.028
64

2002,4.07
MIRTGS : RIGHTBACK : INTERNAL 2
MIR : ON : INTERNAL 2
OPTKBR

0.200000
8
8.000000
FILLER
RATIO
SPECTRUM
UNLOCKED 256

DOUBLE
64
COMBINED
1
0
0

0.002000
RATIO

1
0
TRUE
51149
0
LEFT NOT FITTED RIGHT NOT FITTED 0
NONE
NONE
15600
12
4.427000
51148
TRUE
1 0 8 72 0 0 0 0

15798

#HDR
-1
-1
#GR
µM
%T
2.38419e-05
0.0
2.000000
0.002000
12515
8
85.3234
40.8908
#DATA
2.000000	 64.1626
2.084000	 64.2407
2.168000	 64.3001
2.252000	 83.0698
2.336000	 63.8686
2.420000	 64.4077
2.504000	 64.362
2.588000	 64.3934
2.672000	 64.3022
2.756000	 64.4417
2.840000	 64.4322
2.924000	 64.2817
3.008000	 64.2845
3.092000	 64.3349
3.176000	 64.1763
3.260000	 64.1998
3.344000	 64.24
3.428000	 64.2312
3.512000	 64.1599
3.596000	 64.2712
3.680000	 64.2445
3.764000	 64.2047
3.848000	 64.1654
3.932000	 64.1081
4.016000	 64.1569
4.100000	 64.0719
4.184000	 64.0271
4.268000	 64.0442
4.352000	 64.0026
4.436000	 64.1031
4.520000	 63.9544
4.604000	 63.8764
4.688000	 63.8616
4.772000	 63.8991
4.856000	 63.8385
4.940000	 63.7732
5.024000	 63.8002
5.108000	 63.6804
5.192000	 63.6617
5.276000	 63.7035
5.359999	 63.6196
5.444000	 63.6578
5.528000	 63.6036
5.612000	 63.4774
5.696000	 63.2335
5.780000	 62.4619
5.864000	 63.2514
5.948000	 63.2596
6.032000	 63.3475
6.116000	 63.2779
6.200000	 63.2776
6.284000	 63.3142
6.368000	 63.299
6.452000	 63.1285
6.536000	 63.1957
6.620000	 63.2115
6.704000	 63.3581
6.788000	 63.1418
6.872000	 62.9295
6.956000	 63.0975
7.040000	 63.0621
7.124000	 63.1669
7.208000	 62.9333
7.292000	 62.7929
7.376000	 63.0484
7.460000	 62.8915
7.544000	 63.0057
7.628000	 62.9614
7.712000	 62.8218
7.796000	 62.7749
7.880000	 62.6067
7.964000	 62.6476
8.048000	 62.5243
8.132000	 62.5438
8.216000	 62.743
8.300000	 62.6506
8.384000	 62.7607
8.468000	 62.4556
8.552000	 62.1946
8.635999	 62.2591
8.719999	 62.5925
8.804000	 62.5173
8.888000	 62.5479
8.972000	 62.5393
9.056000	 62.4589
9.140000	 62.6406
9.224000	 62.4458
9.308000	 62.4032
9.391999	 62.8148
9.475999	 62.4449
9.560000	 62.5197
9.644000	 62.4466
9.728000	 62.5504
9.812000	 62.5092
9.896000	 62.3871
9.980000	 62.4388
10.064	62.612
10.148	62.7
10.232	62.7779
10.316	62.6245
10.4	62.5106
10.484	62.4166
10.568	62.3564
10.652	62.6024
10.736	62.5332
10.82	62.6211
10.904	62.5977
10.988	62.5135
11.072	62.5334
11.156	62.4372
11.24	62.4403
11.324	62.5141
11.408	62.3792
11.492	62.5659
11.576	62.7028
11.66	62.5937
11.744	62.4419
11.828	62.4104
11.912	62.4066
11.996	62.4005
12.08	62.2871
12.164	62.2801
12.248	62.3433
12.332	62.3984
12.416	62.4045
12.5	62.3127
12.584	62.451
12.668	62.4948
12.752	62.3685
12.836	62.2682
12.92	62.1807
13.004	62.3022
13.088	62.3937
13.172	62.379
13.256	62.4024
13.34	62.4395
13.424	62.4281
13.508	62.354
13.592	62.3965
13.676	62.3651
13.76	62.2439
13.844	62.2487
13.928	62.2561
14.012	62.1226
14.096	61.9
14.18	61.721
14.264	61.648
14.348	61.6606
14.432	61.7128
14.516	61.8865
14.6	62.1112
14.684	62.0663
14.768	61.8472
14.852	61.9089
14.936	62.1421
15.02	62.1735
15.104	62.22
15.188	62.2973
15.272	62.0588
15.356	61.8079
15.44	61.9726
15.524	62.225
15.608	62.1856
15.692	62.0521
15.776	61.9727
15.86	61.8343
15.944	61.7322
16.028	61.7819
16.112	61.8346
16.196	61.8294
16.28	61.877
16.364	61.9197
16.448	61.8118
16.532	61.6818
16.616	61.7396
16.7	61.921
16.784	62.0284
16.868	61.9137
16.952	61.5178
17.036	61.03
17.12	60.8667
17.204	61.1927
17.288	61.718
17.372	62.1555
17.456	62.5581
17.54	62.9798
17.624	63.0994
17.708	62.6373
17.792	61.9242
17.876	61.6077
17.96	61.87
18.044	62.3421
18.128	62.6749
18.212	62.86
18.296	62.9728
18.38	62.9357
18.464	62.6476
18.548	62.1945
18.632	61.8009
18.716	61.6236
18.8	61.6377
18.884	61.6939
18.968	61.7026
19.052	61.7423
19.136	61.8885
19.22	62.0205
19.304	61.9336
19.388	61.6147
19.472	61.2852
19.556	61.1853
19.64	61.3349
19.724	61.4999
19.808	61.4194
19.892	61.0508
19.976	60.6166
20.06	60.4191
20.144	60.62
20.228	61.1608
20.312	61.8025
20.396	62.2565
20.48	62.3401
20.564	62.0805
20.648	61.6855
20.732	61.4114
20.816	61.4071
20.9	61.6259
20.984	61.8521
21.068	61.8376
21.152	61.4694
21.236	60.8517
21.32	60.2351
21.404	59.8648
21.488	59.8457
21.572	60.1209
21.656	60.5463
21.74	60.9716
21.824	61.2928
21.908	61.4515
21.992	61.4064
22.076	61.1412
22.16	60.7014
22.244	60.2136
22.328	59.8596
22.412	59.79
22.496	60.0385
22.58	60.5058
22.664	61.0194
22.748	61.4213
22.832	61.649
22.916	61.7187
23	61.6721
23.084	61.526
23.168	61.2747
23.252	60.9338
23.336	60.583
23.42	60.3665
23.504	60.4376
23.588	60.8778
23.672	61.6486
23.756	62.5846
23.84	63.4645
23.924	64.0685
24.008	64.253
24.092	63.9861
24.176	63.336
24.26	62.4502
24.344	61.5244
24.428	60.734
24.512	60.2196
24.596	60.0455
24.68	60.1818
24.764	60.5101
24.848	60.8935
24.932	61.2233
25.016	61.465
25.1	61.6639
25.184	61.8671
25.268	62.07
25.352	62.2177
25.436	62.1864
25.52	61.8489
25.604	61.1455
25.688	60.1287
25.772	58.9254
25.856	57.6674
25.94	56.4945
26.024	55.5521
26.108	54.9749
26.192	54.8633
26.276	55.2867
26.36	56.2524
26.444	57.7336
26.528	59.6584
26.612	61.8852
26.696	64.2102
26.78	66.3767
26.864	68.1787
26.948	69.5839
27.028	70.7817

File: BZ1503107-1_t107_cm-1.asc
PE IR       SPECTRUM    SPECTRUM    ASCII       PEDS        1.60
  -1
BZCBFC~1.ASC
17/04/07
22:00:32.00
17/04/07
22:00:32.00
tln
$BZ1503107-1_t0107$<tbV0>[-5.2,10.4,8.0,0.0,27,1,0]
370
64

2002,4.07
MIRTGS : RIGHTBACK : INTERNAL 2
MIR : ON : INTERNAL 2
OPTKBR

0.200000
8
8.000000
FILLER
RATIO
SPECTRUM
UNLOCKED 256

DOUBLE
64
COMBINED
1
0
0

1.000000
RATIO

1
0
TRUE
51149
0
LEFT NOT FITTED RIGHT NOT FITTED 0
NONE
NONE
15600
12
4.427000
51148
TRUE
1 0 8 72 0 0 0 0

15798

#HDR
-1
-1
#GR
CM-1
%T
2.38419e-05
0.0
5000
-1.000000
4631
8
87.726
40.4353
#DATA
5000	64.1626
4984	62.1711
4968	62.4245
4952	65.3697
4936	64.6025
4920	63.8179
4904	64.085
4888	63.6271
4872	63.9827
4856	63.9845
4840	63.9374
4824	64.263
4808	64.051
4792	64.3925
4776	64.2496
4760	64.0103
4744	64.3125
4728	64.0215
4712	63.9804
4696	64.2422
4680	64.6083
4664	64.4033
4648	64.3504
4632	64.2707
4616	64.4986
4600	64.1778
4584	64.6795
4568	63.9914
4552	63.9728
4536	64.3467
4520	64.1915
4504	63.9321
4488	63.9041
4472	64.0876
4456	65.4479
4440	80.7584
4424	61.4124
4408	64.7722
4392	63.7789
4376	64.4116
4360	64.0839
4344	64.3988
4328	64.1499
4312	64.1713
4296	64.4941
4280	63.8964
4264	64.3161
4248	64.2043
4232	64.5003
4216	63.9515
4200	64.1587
4184	64.2346
4168	64.4652
4152	64.2933
4136	64.4677
4120	64.2565
4104	64.4505
4088	64.5209
4072	64.4924
4056	64.0978
4040	64.2033
4024	64.5895
4008	64.3124
3992	64.3598
3976	64.1732
3960	64.6253
3944	64.1845
3928	64.5085
3912	64.1033
3896	64.2981
3880	64.3439
3864	64.3938
3848	64.5186
3832	64.3625
3816	64.2401
3800	64.2096
3784	64.6208
3768	64.3711
3752	64.3088
3736	64.2657
3720	64.5386
3704	64.4409
3688	64.5612
3672	64.3637
3656	64.397
3640	64.5564
3624	64.4175
3608	64.4416
3592	64.5666
3576	64.4153
3560	64.3748
3544	64.1163
3528	64.3975
3512	64.3812
3496	64.4234
3480	64.3676
3464	64.5249
3448	64.3282
3432	64.2311
3416	64.321
3400	64.1938
3384	64.4267
3368	64.3112
3352	64.4026
3336	64.2741
3320	64.2997
3304	64.3766
3288	64.3113
3272	64.2676
3256	64.2936
3240	64.2579
3224	64.293
3208	64.2732
3192	64.5621
3176	64.3915
3160	64.3303
3144	64.2386
3128	64.3234
3112	64.307
3096	64.3424
3080	64.2557
3064	64.2069
3048	64.4838
3032	64.3746
3016	64.3604
3000	64.3131
2984	64.2148
2968	63.9547
2952	63.8558
2936	63.9848
2920	64.1572
2904	64.109
2888	64.1624
2872	64.0943
2856	63.9813
2840	64.1413
2824	64.2716
2808	64.1032
2792	64.2525
2776	64.2819
2760	64.18
2744	64.2384
2728	64.2003
2712	64.2257
2696	64.2702
2680	64.2418
2664	64.1028
2648	64.3155
2632	64.1331
2616	64.1765
2600	64.1573
2584	64.1161
2568	64.1077
2552	64.17
2536	64.0585
2520	64.1489
2504	64.0672
2488	64.1718
2472	64.1887
2456	64.1952
2440	64.0839
2424	64.177
2408	64.0384
2392	64.051
2376	63.9572
2360	64.0855
2344	64.0556
2328	64.117
2312	64.1349
2296	64.0087
2280	64.0724
2264	64.0625
2248	63.9986
2232	64.0372
2216	63.9764
2200	63.8122
2184	63.8888
2168	63.8831
2152	63.9477
2136	63.8794
2120	63.8131
2104	63.8475
2088	63.8744
2072	63.8084
2056	63.9043
2040	63.7454
2024	63.7681
2008	63.7154
1992	63.8138
1976	63.8208
1960	63.6866
1944	63.681
1928	63.6598
1912	63.6264
1896	63.7042
1880	63.6427
1864	63.64
1848	63.6733
1832	63.6583
1816	63.6064
1800	63.5451
1784	63.4877
1768	63.4856
1752	63.1064
1736	62.3971
1720	63.0648
1704	63.2475
1688	63.3309
1672	63.3794
1656	63.3725
1640	63.3147
1624	63.3575
1608	63.2784
1592	63.317
1576	63.216
1560	63.252
1544	63.1655
1528	63.2298
1512	63.2223
1496	63.2412
1480	63.0902
1464	63.0074
1448	63.0268
1432	63.1383
1416	63.1083
1400	63.0916
1384	62.9021
1368	62.8311
1352	63.0627
1336	62.8745
1320	63.0376
1304	62.8756
1288	62.7584
1272	62.623
1256	62.6504
1240	62.474
1224	62.6389
1208	62.7067
1192	62.7576
1176	62.3679
1160	62.1817
1144	62.5885
1128	62.5715
1112	62.4861
1096	62.6803
1080	62.3723
1064	62.8177
1048	62.5079
1032	62.463
1016	62.4152
1000	62.4515
984	 62.73
968	 62.5821
952	 62.3748
936	 62.59
920	 62.5963
904	 62.5319
888	 62.4839
872	 62.5115
856	 62.5301
840	 62.4054
824	 62.2483
808	 62.4405
792	 62.499
776	 62.2066
760	 62.377
744	 62.4108
728	 62.2694
712	 62.0382
696	 61.6688
680	 62.0072
664	 62.1741
648	 61.9441
632	 61.9039
616	 61.841
600	 61.8474
584	 60.8709
568	 63.1209
552	 62.6387
536	 61.7235
520	 62.0245
504	 61.3002
488	 62.3215
472	 61.2333
456	 61.4608
440	 61.3379
424	 60.8552
408	 60.2288
392	 61.9071
376	 61.4403
370	 70.7817

File: BZ1503107-1_t108.asc
PE IR       SPECTRUM    SPECTRUM    ASCII       PEDS        1.60
  -1
BZE6B2~1.ASC
17/04/07
22:05:09.00
17/04/07
22:05:36.00
tln
$BZ1503107-1_t0108$<tbV0>[-7.8,10.4,8.0,0.0,27,1,0]
27.028
64

2002,4.07
MIRTGS : RIGHTBACK : INTERNAL 2
MIR : ON : INTERNAL 2
OPTKBR

0.200000
8
8.000000
FILLER
RATIO
SPECTRUM
UNLOCKED 256

DOUBLE
64
COMBINED
1
0
0

0.002000
RATIO

1
0
TRUE
51149
0
LEFT NOT FITTED RIGHT NOT FITTED 0
NONE
NONE
15600
12
4.427000
51148
TRUE
1 0 8 72 0 0 0 0

15798

#HDR
-1
-1
#GR
µM
%T
2.38419e-05
0.0
2.000000
0.002000
12515
8
85.9329
38.2552
#DATA
2.000000	 66.8541
2.084000	 65.1538
2.168000	 65.2094
2.252000	 85.9329
2.336000	 65.0889
2.420000	 65.4275
2.504000	 65.2045
2.588000	 65.1525
2.672000	 65.2693
2.756000	 65.3297
2.840000	 65.1584
2.924000	 65.2069
3.008000	 64.9638
3.092000	 65.1221
3.176000	 64.9571
3.260000	 64.8377
3.344000	 64.8002
3.428000	 64.5296
3.512000	 64.6644
3.596000	 64.881
3.680000	 64.7107
3.764000	 64.6611
3.848000	 64.6223
3.932000	 64.6745
4.016000	 64.614
4.100000	 64.5596
4.184000	 64.5568
4.268000	 64.5763
4.352000	 64.3492
4.436000	 64.4939
4.520000	 64.3456
4.604000	 64.309
4.688000	 64.2786
4.772000	 64.2511
4.856000	 64.2199
4.940000	 64.0273
5.024000	 64.237
5.108000	 64.1311
5.192000	 64.0584
5.276000	 64.0977
5.359999	 63.9874
5.444000	 64.0563
5.528000	 63.9515
5.612000	 63.6906
5.696000	 63.4786
5.780000	 62.4823
5.864000	 63.6128
5.948000	 63.6012
6.032000	 63.7503
6.116000	 63.69
6.200000	 63.7492
6.284000	 63.6273
6.368000	 63.5079
6.452000	 63.4506
6.536000	 63.5309
6.620000	 63.4388
6.704000	 63.7112
6.788000	 63.4052
6.872000	 63.2164
6.956000	 63.3092
7.040000	 63.336
7.124000	 63.2684
7.208000	 63.0717
7.292000	 63.1543
7.376000	 63.1357
7.460000	 63.1178
7.544000	 63.1884
7.628000	 63.099
7.712000	 62.9818
7.796000	 62.8469
7.880000	 62.8628
7.964000	 62.5846
8.048000	 62.5651
8.132000	 62.6356
8.216000	 62.7142
8.300000	 62.6233
8.384000	 62.7742
8.468000	 62.5104
8.552000	 62.2386
8.635999	 62.2834
8.719999	 62.5849
8.804000	 62.8607
8.888000	 62.7293
8.972000	 62.6921
9.056000	 62.6356
9.140000	 62.8106
9.224000	 62.5121
9.308000	 62.4709
9.391999	 62.4768
9.475999	 62.4779
9.560000	 62.5914
9.644000	 62.582
9.728000	 62.4662
9.812000	 62.449
9.896000	 62.6697
9.980000	 62.4221
10.064	62.6444
10.148	62.732
10.232	62.7688
10.316	62.6559
10.4	62.5353
10.484	62.5192
10.568	62.5075
10.652	62.5861
10.736	62.6763
10.82	62.6964
10.904	62.7254
10.988	62.6675
11.072	62.4964
11.156	62.5501
11.24	62.4991
11.324	62.4835
11.408	62.5305
11.492	62.6678
11.576	62.6364
11.66	62.5103
11.744	62.4963
11.828	62.3914
11.912	62.3798
11.996	62.3839
12.08	62.4951
12.164	62.5378
12.248	62.5761
12.332	62.5601
12.416	62.4729
12.5	62.2418
12.584	62.37
12.668	62.607
12.752	62.6254
12.836	62.3689
12.92	62.204
13.004	62.2761
13.088	62.3452
13.172	62.2669
13.256	62.307
13.34	62.4333
13.424	62.447
13.508	62.4837
13.592	62.3948
13.676	62.2502
13.76	62.2078
13.844	62.127
13.928	61.9453
14.012	61.7068
14.096	61.642
14.18	61.7856
14.264	61.999
14.348	62.1316
14.432	62.1756
14.516	62.1948
14.6	62.1524
14.684	62.085
14.768	62.0841
14.852	62.202
14.936	62.339
15.02	62.3376
15.104	62.2029
15.188	62.003
15.272	61.8765
15.356	61.8239
15.44	61.6766
15.524	61.5281
15.608	61.5349
15.692	61.5773
15.776	61.5266
15.86	61.5328
15.944	61.8348
16.028	62.2409
16.112	62.2663
16.196	61.9167
16.28	61.6857
16.364	61.7449
16.448	61.753
16.532	61.4834
16.616	61.2065
16.7	61.3178
16.784	61.86
16.868	62.5312
16.952	62.9119
17.036	62.7678
17.12	62.2863
17.204	61.8769
17.288	61.7525
17.372	61.8296
17.456	61.9684
17.54	62.1587
17.624	62.3925
17.708	62.5334
17.792	62.4361
17.876	62.1502
17.96	61.973
18.044	62.1829
18.128	62.6726
18.212	63.0117
18.296	62.9297
18.38	62.579
18.464	62.2833
18.548	62.1618
18.632	62.0602
18.716	61.7854
18.8	61.3015
18.884	60.7596
18.968	60.3948
19.052	60.4074
19.136	60.8365
19.22	61.5228
19.304	62.2126
19.388	62.748
19.472	63.1289
19.556	63.3759
19.64	63.3972
19.724	63.0434
19.808	62.3097
19.892	61.404
19.976	60.6339
20.06	60.2275
20.144	60.2602
20.228	60.684
20.312	61.3539
20.396	62.0277
20.48	62.4258
20.564	62.3762
20.648	61.956
20.732	61.4652
20.816	61.2261
20.9	61.3533
20.984	61.6834
21.068	61.9153
21.152	61.8351
21.236	61.4518
21.32	60.9509
21.404	60.5548
21.488	60.392
21.572	60.4676
21.656	60.6948
21.74	60.9513
21.824	61.1385
21.908	61.2138
21.992	61.1724
22.076	61.0207
22.16	60.7776
22.244	60.4801
22.328	60.2019
22.412	60.0129
22.496	59.9389
22.58	59.966
22.664	60.0664
22.748	60.2244
22.832	60.454
22.916	60.7726
23	61.1756
23.084	61.6307
23.168	62.0772
23.252	62.465
23.336	62.7934
23.42	63.1414
23.504	63.6261
23.588	64.3289
23.672	65.2329
23.756	66.1912
23.84	66.9592
23.924	67.2943
24.008	67.0565
24.092	66.2568
24.176	65.0657
24.26	63.7308
24.344	62.5068
24.428	61.5828
24.512	61.1418
24.596	61.2633
24.68	61.8998
24.764	62.8746
24.848	63.8848
24.932	64.5921
25.016	64.7827
25.1	64.4486
25.184	63.7998
25.268	63.1962
25.352	63.0288
25.436	63.5709
25.52	64.8839
25.604	66.8556
25.688	69.255
25.772	71.7822
25.856	74.0946
25.94	75.7709
26.024	76.3086
26.108	75.249
26.192	72.3559
26.276	67.7134
26.36	61.8013
26.444	55.3732
26.528	49.2755
26.612	44.1679
26.696	40.5242
26.78	38.5788
26.864	38.3852
26.948	39.9055
27.028	42.8499

File: BZ1503107-1_t108_cm-1.asc
PE IR       SPECTRUM    SPECTRUM    ASCII       PEDS        1.60
  -1
BZCB7C~1.ASC
17/04/07
22:05:09.00
17/04/07
22:05:09.00
tln
$BZ1503107-1_t0108$<tbV0>[-7.8,10.4,8.0,0.0,27,1,0]
370
64

2002,4.07
MIRTGS : RIGHTBACK : INTERNAL 2
MIR : ON : INTERNAL 2
OPTKBR

0.200000
8
8.000000
FILLER
RATIO
SPECTRUM
UNLOCKED 256

DOUBLE
64
COMBINED
1
0
0

1.000000
RATIO

1
0
TRUE
51149
0
LEFT NOT FITTED RIGHT NOT FITTED 0
NONE
NONE
15600
12
4.427000
51148
TRUE
1 0 8 72 0 0 0 0

15798

#HDR
-1
-1
#GR
CM-1
%T
2.38419e-05
0.0
5000
-1.000000
4631
8
86.9529
38.3128
#DATA
5000	66.8541
4984	64.4401
4968	63.4613
4952	66.7612
4936	65.5611
4920	64.9757
4904	65.7837
4888	64.9275
4872	65.2068
4856	64.9447
4840	65.2324
4824	65.3542
4808	65.3625
4792	65.2299
4776	65.7939
4760	65.306
4744	65.3434
4728	65.2933
4712	65.2612
4696	65.3989
4680	65.7425
4664	65.4766
4648	65.4145
4632	65.4551
4616	65.3336
4600	65.1149
4584	64.8972
4568	65.0874
4552	64.078
4536	64.9281
4520	64.49
4504	64.7228
4488	63.3489
4472	63.7924
4456	65.4351
4440	85.057
4424	63.1124
4408	65.7986
4392	64.0589
4376	64.2588
4360	64.7988
4344	64.3862
4328	64.7765
4312	64.6127
4296	64.7757
4280	65.0761
4264	64.631
4248	65.335
4232	65.2424
4216	64.9992
4200	65.1777
4184	65.3856
4168	65.3475
4152	65.3676
4136	65.2592
4120	65.1861
4104	65.3124
4088	65.2128
4072	65.2056
4056	65.1134
4040	65.3177
4024	65.1628
4008	65.0237
3992	65.2631
3976	65.2324
3960	64.9999
3944	64.9274
3928	65.1079
3912	65.0102
3896	65.2133
3880	65.2753
3864	65.1518
3848	64.9017
3832	65.0944
3816	65.3244
3800	65.1276
3784	65.2428
3768	65.2267
3752	65.224
3736	65.2847
3720	65.2818
3704	65.1356
3688	65.4248
3672	65.2426
3656	65.229
3640	65.3001
3624	65.255
3608	65.2053
3592	65.4083
3576	65.0387
3560	65.2391
3544	65.0029
3528	65.2174
3512	65.0409
3496	65.2451
3480	65.0213
3464	65.2061
3448	65.0279
3432	65.1011
3416	65.1526
3400	65.0665
3384	65.0422
3368	65.0761
3352	65.1779
3336	65.0409
3320	65.0886
3304	65.2184
3288	65.104
3272	65.0381
3256	65.2104
3240	65.048
3224	64.9471
3208	64.9353
3192	65.0676
3176	65.0276
3160	64.9914
3144	65.0271
3128	64.8341
3112	64.8871
3096	65.0178
3080	64.883
3064	64.8376
3048	65.0773
3032	64.9047
3016	64.9163
3000	64.9771
2984	64.7261
2968	64.2985
2952	64.2994
2936	64.3751
2920	64.61
2904	64.5312
2888	64.5349
2872	64.5654
2856	64.5577
2840	64.82
2824	64.8036
2808	64.7548
2792	64.7322
2776	64.8349
2760	64.8049
2744	64.7131
2728	64.9015
2712	64.8191
2696	64.6977
2680	64.7855
2664	64.7071
2648	64.792
2632	64.7009
2616	64.6955
2600	64.612
2584	64.6831
2568	64.7225
2552	64.7225
2536	64.5929
2520	64.7148
2504	64.4511
2488	64.5959
2472	64.6081
2456	64.6888
2440	64.5444
2424	64.6265
2408	64.544
2392	64.5785
2376	64.4622
2360	64.6717
2344	64.5739
2328	64.4739
2312	64.4478
2296	64.3682
2280	64.3164
2264	64.4719
2248	64.456
2232	64.4299
2216	64.3543
2200	64.2413
2184	64.3177
2168	64.3495
2152	64.3344
2136	64.2782
2120	64.1783
2104	64.2983
2088	64.1545
2072	64.1019
2056	64.2851
2040	64.2122
2024	64.0314
2008	64.1403
1992	64.2291
1976	64.1125
1960	64.1649
1944	64.0402
1928	64.0653
1912	64.1691
1896	64.0942
1880	64.0302
1864	63.993
1848	63.9242
1832	64.0252
1816	64.0206
1800	63.9872
1784	63.6945
1768	63.797
1752	63.3233
1736	62.4038
1720	63.1155
1704	63.6103
1688	63.5837
1672	63.6649
1656	63.7776
1640	63.7537
1624	63.6597
1608	63.7451
1592	63.6207
1576	63.5158
1560	63.4874
1544	63.4152
1528	63.5477
1512	63.4569
1496	63.6606
1480	63.4315
1464	63.2759
1448	63.2479
1432	63.3412
1416	63.316
1400	63.2177
1384	63.0683
1368	63.1486
1352	63.1481
1336	63.0446
1320	63.1828
1304	62.9516
1288	62.9214
1272	62.9113
1256	62.5867
1240	62.5508
1224	62.7717
1208	62.6463
1192	62.7643
1176	62.4389
1160	62.2351
1144	62.6879
1128	62.6997
1112	62.6704
1096	62.8569
1080	62.4675
1064	62.478
1048	62.4899
1032	62.4935
1016	62.5531
1000	62.415
984	 62.7464
968	 62.6435
952	 62.5175
936	 62.6379
920	 62.7276
904	 62.5039
888	 62.5036
872	 62.6572
856	 62.4918
840	 62.3803
824	 62.5249
808	 62.5467
792	 62.501
776	 62.2386
760	 62.2804
744	 62.4519
728	 62.2176
712	 61.6514
696	 62.1464
680	 62.0752
664	 62.2862
648	 61.6941
632	 61.5032
616	 61.7724
600	 61.2145
584	 62.2667
568	 62.3429
552	 62.6011
536	 62.003
520	 61.6158
504	 61.9541
488	 62.4474
472	 61.7063
456	 61.2143
440	 60.1795
424	 64.2991
408	 61.1461
392	 64.6943
376	 45.0477
370	 42.8499