Folder: Masteroppgave/Bakgrunnsmateriale/MATLAB/FTIR/ftir_data/subAa/Mapping_121 (part 34)

File: BZ1503107-1_t76_cm-1.asc
PE IR       SPECTRUM    SPECTRUM    ASCII       PEDS        1.60
  -1
BZ6EA6~1.ASC
17/04/07
19:29:37.00
17/04/07
19:29:37.00
tln
$BZ1503107-1_t0076$<tbV0>[-10.4,2.6,8.0,0.0,27,1,0]
370
64

2002,4.07
MIRTGS : RIGHTBACK : INTERNAL 2
MIR : ON : INTERNAL 2
OPTKBR

0.200000
8
8.000000
FILLER
RATIO
SPECTRUM
UNLOCKED 256

DOUBLE
64
COMBINED
1
0
0

1.000000
RATIO

1
0
TRUE
51149
0
LEFT NOT FITTED RIGHT NOT FITTED 0
NONE
NONE
15600
12
4.427000
51148
TRUE
1 0 8 72 0 0 0 0

15798

#HDR
-1
-1
#GR
CM-1
%T
2.38419e-05
0.0
5000
-1.000000
4631
8
95.0537
47.2737
#DATA
5000	64.4641
4984	65.0329
4968	64.9059
4952	64.5163
4936	63.8037
4920	64.8021
4904	64.7624
4888	64.695
4872	64.8273
4856	64.5417
4840	64.7392
4824	64.8042
4808	64.5798
4792	64.8605
4776	64.5926
4760	64.5322
4744	64.6068
4728	65.0293
4712	64.6748
4696	64.8926
4680	64.1465
4664	64.7448
4648	64.7462
4632	64.8849
4616	64.85
4600	64.8917
4584	64.6931
4568	64.7413
4552	64.7113
4536	64.5459
4520	64.1204
4504	64.854
4488	64.9553
4472	63.8378
4456	63.8125
4440	65.3409
4424	57.7247
4408	68.2026
4392	65.1986
4376	64.2721
4360	64.9166
4344	64.9144
4328	64.8475
4312	64.7158
4296	64.7814
4280	64.8299
4264	64.9081
4248	64.7408
4232	65.0049
4216	64.9891
4200	64.6882
4184	64.6275
4168	64.8763
4152	64.8093
4136	64.6019
4120	65.117
4104	64.9434
4088	64.9473
4072	64.7821
4056	64.6715
4040	64.9424
4024	64.936
4008	65.2366
3992	65.0129
3976	64.7937
3960	64.9138
3944	64.9621
3928	64.9425
3912	65.0724
3896	64.9211
3880	64.9653
3864	65.0598
3848	64.6081
3832	64.6787
3816	64.9936
3800	65.0208
3784	65.0996
3768	64.7032
3752	64.7838
3736	65.264
3720	65.0022
3704	65.191
3688	65.072
3672	65.0846
3656	65.0513
3640	65.0936
3624	64.8158
3608	65.0603
3592	64.9164
3576	64.8974
3560	64.9781
3544	64.8824
3528	64.9961
3512	65.0483
3496	64.8643
3480	64.9684
3464	64.9262
3448	65.104
3432	64.8146
3416	64.9118
3400	64.8569
3384	64.8819
3368	64.9754
3352	64.892
3336	64.9479
3320	64.9038
3304	64.9694
3288	64.8424
3272	64.8443
3256	64.8589
3240	64.9545
3224	64.9844
3208	64.8218
3192	65.1476
3176	64.8724
3160	64.8968
3144	64.9674
3128	64.8027
3112	64.9186
3096	64.9352
3080	64.7784
3064	65.0531
3048	64.9281
3032	64.7303
3016	64.9733
3000	64.8912
2984	64.8393
2968	64.7457
2952	64.6242
2936	64.6182
2920	64.8121
2904	64.8647
2888	64.7854
2872	64.8237
2856	64.8219
2840	64.7678
2824	64.7988
2808	64.8761
2792	64.8595
2776	64.8748
2760	64.9389
2744	64.8684
2728	64.9607
2712	64.8249
2696	64.8077
2680	64.8701
2664	64.7816
2648	64.6722
2632	64.8257
2616	64.7788
2600	64.7661
2584	64.7091
2568	64.6295
2552	64.641
2536	64.767
2520	64.8051
2504	64.7464
2488	64.7661
2472	64.7349
2456	64.6801
2440	64.5832
2424	64.6975
2408	64.6574
2392	64.5436
2376	64.6633
2360	64.5533
2344	64.6038
2328	64.6845
2312	64.5824
2296	64.5465
2280	64.4862
2264	64.6994
2248	64.6554
2232	64.5633
2216	64.5711
2200	64.5117
2184	64.5324
2168	64.4757
2152	64.4226
2136	64.4585
2120	64.5472
2104	64.5148
2088	64.4296
2072	64.3693
2056	64.3349
2040	64.377
2024	64.4291
2008	64.391
1992	64.2666
1976	64.4319
1960	64.4258
1944	64.345
1928	64.3205
1912	64.3838
1896	64.2815
1880	64.3003
1864	64.2721
1848	64.3609
1832	64.2514
1816	64.2689
1800	64.2078
1784	64.146
1768	64.1886
1752	64.0237
1736	63.8376
1720	63.9028
1704	63.9556
1688	64.0404
1672	64.041
1656	63.9468
1640	64.0539
1624	64.0252
1608	63.9
1592	63.9792
1576	63.8962
1560	63.8936
1544	64.0177
1528	63.9874
1512	64.0471
1496	63.79
1480	63.9115
1464	63.7288
1448	63.9238
1432	63.8858
1416	63.851
1400	63.7185
1384	63.6857
1368	63.7011
1352	63.6896
1336	63.7684
1320	63.7503
1304	63.6399
1288	63.6309
1272	63.5287
1256	63.5299
1240	63.5736
1224	63.5126
1208	63.4807
1192	63.4676
1176	63.3875
1160	63.3846
1144	63.419
1128	63.4527
1112	63.2424
1096	63.3648
1080	63.431
1064	63.3248
1048	63.4
1032	63.3053
1016	63.1985
1000	63.4279
984	 63.2902
968	 63.3878
952	 63.3229
936	 63.2757
920	 63.457
904	 63.3642
888	 63.4761
872	 63.6512
856	 63.2668
840	 63.3968
824	 63.3052
808	 63.0903
792	 62.9882
776	 63.3548
760	 62.9772
744	 62.9267
728	 62.5431
712	 63.1295
696	 62.9057
680	 63.2549
664	 63.175
648	 62.8044
632	 62.1519
616	 63.3904
600	 64.1883
584	 63.0925
568	 62.945
552	 63.0323
536	 63.1327
520	 62.5076
504	 61.8917
488	 62.7136
472	 62.6158
456	 62.8438
440	 63.4632
424	 64.0764
408	 62.1347
392	 60.1288
376	 57.4237
370	 95.0537

File: BZ1503107-1_t77.asc
PE IR       SPECTRUM    SPECTRUM    ASCII       PEDS        1.60
  -1
BZ256F~1.ASC
17/04/07
19:34:14.00
17/04/07
19:34:40.00
tln
$BZ1503107-1_t0077$<tbV0>[-13.0,2.6,8.0,0.0,27,1,0]
27.028
64

2002,4.07
MIRTGS : RIGHTBACK : INTERNAL 2
MIR : ON : INTERNAL 2
OPTKBR

0.200000
8
8.000000
FILLER
RATIO
SPECTRUM
UNLOCKED 256

DOUBLE
64
COMBINED
1
0
0

0.002000
RATIO

1
0
TRUE
51149
0
LEFT NOT FITTED RIGHT NOT FITTED 0
NONE
NONE
15600
12
4.427000
51148
TRUE
1 0 8 72 0 0 0 0

15798

#HDR
-1
-1
#GR
µM
%T
2.38419e-05
0.0
2.000000
0.002000
12515
8
75.2989
54.7334
#DATA
2.000000	 66.1398
2.084000	 65.1379
2.168000	 65.4094
2.252000	 61.1445
2.336000	 65.2647
2.420000	 65.2292
2.504000	 65.2038
2.588000	 65.3044
2.672000	 65.5049
2.756000	 65.4018
2.840000	 65.5519
2.924000	 65.2613
3.008000	 65.4209
3.092000	 65.3791
3.176000	 65.3008
3.260000	 65.1875
3.344000	 65.1858
3.428000	 64.8192
3.512000	 64.9909
3.596000	 65.2084
3.680000	 65.1987
3.764000	 64.9834
3.848000	 65.0068
3.932000	 64.9682
4.016000	 64.9195
4.100000	 64.9584
4.184000	 64.8782
4.268000	 64.8239
4.352000	 64.7166
4.436000	 64.8901
4.520000	 64.8212
4.604000	 64.6196
4.688000	 64.7687
4.772000	 64.6908
4.856000	 64.6734
4.940000	 64.6944
5.024000	 64.5228
5.108000	 64.5561
5.192000	 64.5703
5.276000	 64.555
5.359999	 64.4262
5.444000	 64.3804
5.528000	 64.4433
5.612000	 64.3539
5.696000	 64.1571
5.780000	 63.0401
5.864000	 64.1366
5.948000	 64.2018
6.032000	 64.1872
6.116000	 64.1362
6.200000	 64.2924
6.284000	 64.1115
6.368000	 64.1089
6.452000	 63.9859
6.536000	 64.0424
6.620000	 64.3529
6.704000	 64.1108
6.788000	 64.0013
6.872000	 63.9333
6.956000	 63.7652
7.040000	 64.0024
7.124000	 63.9356
7.208000	 64.0001
7.292000	 63.8657
7.376000	 63.9132
7.460000	 63.9125
7.544000	 63.9162
7.628000	 63.8195
7.712000	 63.7748
7.796000	 63.5844
7.880000	 63.5656
7.964000	 63.4773
8.048000	 63.4261
8.132000	 63.5301
8.216000	 63.4808
8.300000	 63.6085
8.384000	 63.4529
8.468000	 63.1806
8.552000	 63.1541
8.635999	 63.1966
8.719999	 63.5081
8.804000	 63.58
8.888000	 63.6078
8.972000	 63.458
9.056000	 63.5468
9.140000	 63.4244
9.224000	 63.5991
9.308000	 63.4441
9.391999	 63.6327
9.475999	 63.5737
9.560000	 63.5708
9.644000	 63.5533
9.728000	 63.535
9.812000	 63.4756
9.896000	 63.3787
9.980000	 63.6692
10.064	63.4854
10.148	63.7052
10.232	63.8883
10.316	63.5316
10.4	63.5954
10.484	63.6177
10.568	63.6051
10.652	63.5129
10.736	63.5963
10.82	63.5585
10.904	63.4253
10.988	63.5578
11.072	63.4149
11.156	63.3397
11.24	63.4679
11.324	63.5417
11.408	63.3372
11.492	63.5721
11.576	63.5112
11.66	63.373
11.744	63.5963
11.828	63.5013
11.912	63.5486
11.996	63.5912
12.08	63.5816
12.164	63.6627
12.248	63.4936
12.332	63.4053
12.416	63.5359
12.5	63.478
12.584	63.27
12.668	63.2093
12.752	63.2703
12.836	63.4443
12.92	63.4979
13.004	63.3535
13.088	63.383
13.172	63.3687
13.256	63.1888
13.34	63.0856
13.424	63.0884
13.508	63.1217
13.592	63.0428
13.676	62.987
13.76	62.9731
13.844	63.0956
13.928	63.319
14.012	63.3255
14.096	62.9997
14.18	62.8018
14.264	62.9317
14.348	63.004
14.432	63.0079
14.516	63.0949
14.6	63.3053
14.684	63.5935
14.768	63.6533
14.852	63.4045
14.936	63.0853
15.02	62.8995
15.104	62.8956
15.188	62.9072
15.272	62.8744
15.356	62.8804
15.44	62.9663
15.524	62.9863
15.608	62.674
15.692	62.3053
15.776	62.4541
15.86	62.8448
15.944	62.8402
16.028	62.7877
16.112	63.2687
16.196	63.9145
16.28	64.1439
16.364	63.9604
16.448	63.5369
16.532	63.0008
16.616	62.5717
16.7	62.3864
16.784	62.2877
16.868	61.9935
16.952	61.5945
17.036	61.5445
17.12	62.0301
17.204	62.7562
17.288	63.3691
17.372	63.6948
17.456	63.6867
17.54	63.4509
17.624	63.1615
17.708	62.9464
17.792	62.9351
17.876	63.2019
17.96	63.597
18.044	63.8271
18.128	63.7596
18.212	63.541
18.296	63.3811
18.38	63.3499
18.464	63.3865
18.548	63.4264
18.632	63.4884
18.716	63.6052
18.8	63.7319
18.884	63.7892
18.968	63.7611
19.052	63.6997
19.136	63.6508
19.22	63.6178
19.304	63.5818
19.388	63.517
19.472	63.382
19.556	63.1432
19.64	62.8243
19.724	62.5087
19.808	62.2778
19.892	62.1595
19.976	62.1331
20.06	62.1722
20.144	62.2645
20.228	62.3963
20.312	62.5355
20.396	62.6458
20.48	62.7219
20.564	62.7944
20.648	62.8898
20.732	62.9972
20.816	63.0732
20.9	63.0832
20.984	63.0229
21.068	62.9289
21.152	62.8644
21.236	62.8858
21.32	62.997
21.404	63.1262
21.488	63.1627
21.572	63.0308
21.656	62.7502
21.74	62.4272
21.824	62.1889
21.908	62.1067
21.992	62.1706
22.076	62.3218
22.16	62.5016
22.244	62.6731
22.328	62.8088
22.412	62.8769
22.496	62.8478
22.58	62.7161
22.664	62.5157
22.748	62.3091
22.832	62.1388
22.916	62.0108
23	61.9032
23.084	61.8023
23.168	61.7398
23.252	61.7851
23.336	62.0034
23.42	62.403
23.504	62.9067
23.588	63.3703
23.672	63.6534
23.756	63.6858
23.84	63.5114
23.924	63.2802
24.008	63.1663
24.092	63.2881
24.176	63.6682
24.26	64.208
24.344	64.7353
24.428	65.0974
24.512	65.1896
24.596	64.9914
24.68	64.5504
24.764	63.9516
24.848	63.2644
24.932	62.5442
25.016	61.8276
25.1	61.1245
25.184	60.4461
25.268	59.8281
25.352	59.342
25.436	59.0259
25.52	58.9164
25.604	59.0989
25.688	59.6554
25.772	60.6551
25.856	62.1339
25.94	64.0204
26.024	66.1265
26.108	68.1859
26.192	69.9032
26.276	71.0104
26.36	71.3219
26.444	70.8156
26.528	69.5989
26.612	67.8479
26.696	65.6896
26.78	63.1658
26.864	60.2848
26.948	57.2378
27.028	54.7334

File: BZ1503107-1_t77_cm-1.asc
PE IR       SPECTRUM    SPECTRUM    ASCII       PEDS        1.60
  -1
BZ6FA6~1.ASC
17/04/07
19:34:14.00
17/04/07
19:34:14.00
tln
$BZ1503107-1_t0077$<tbV0>[-13.0,2.6,8.0,0.0,27,1,0]
370
64

2002,4.07
MIRTGS : RIGHTBACK : INTERNAL 2
MIR : ON : INTERNAL 2
OPTKBR

0.200000
8
8.000000
FILLER
RATIO
SPECTRUM
UNLOCKED 256

DOUBLE
64
COMBINED
1
0
0

1.000000
RATIO

1
0
TRUE
51149
0
LEFT NOT FITTED RIGHT NOT FITTED 0
NONE
NONE
15600
12
4.427000
51148
TRUE
1 0 8 72 0 0 0 0

15798

#HDR
-1
-1
#GR
CM-1
%T
2.38419e-05
0.0
5000
-1.000000
4631
8
75.4374
54.7334
#DATA
5000	66.1398
4984	64.5819
4968	64.7256
4952	65.2415
4936	65.4079
4920	64.7163
4904	65.4586
4888	65.5354
4872	65.271
4856	65.0666
4840	64.9576
4824	64.9725
4808	65.3006
4792	65.2526
4776	65.053
4760	65.312
4744	65.3356
4728	64.871
4712	65.2775
4696	65.3149
4680	65.0405
4664	65.2124
4648	65.1709
4632	65.407
4616	65.6011
4600	65.474
4584	65.6551
4568	65.2926
4552	65.1057
4536	65.4577
4520	65.249
4504	65.339
4488	65.1763
4472	65.0885
4456	64.8813
4440	60.6951
4424	73.3534
4408	68.1449
4392	65.3144
4376	64.7967
4360	65.7242
4344	65.5061
4328	65.2014
4312	65.2846
4296	65.3887
4280	65.2535
4264	65.3693
4248	65.2231
4232	65.0216
4216	65.1664
4200	65.3555
4184	65.0786
4168	65.1458
4152	65.4918
4136	65.0449
4120	65.5013
4104	65.6566
4088	65.0691
4072	65.4126
4056	65.5064
4040	65.3279
4024	65.3142
4008	65.5567
3992	65.2668
3976	65.4553
3960	65.1253
3944	65.3087
3928	65.197
3912	65.4199
3896	65.5509
3880	65.3669
3864	65.3053
3848	65.4155
3832	65.2003
3816	65.4904
3800	65.294
3784	65.5587
3768	65.1676
3752	65.3363
3736	65.5672
3720	65.3144
3704	65.4754
3688	65.4044
3672	65.5532
3656	65.436
3640	65.5449
3624	65.358
3608	65.5663
3592	65.4108
3576	65.3775
3560	65.4814
3544	65.3434
3528	65.4449
3512	65.4598
3496	65.305
3480	65.439
3464	65.3612
3448	65.3579
3432	65.1318
3416	65.2871
3400	65.3109
3384	65.2058
3368	65.1524
3352	65.2623
3336	65.2597
3320	65.3816
3304	65.4056
3288	65.3398
3272	65.1585
3256	65.2607
3240	65.2481
3224	65.3016
3208	65.2367
3192	65.2133
3176	65.1845
3160	65.3201
3144	65.2909
3128	65.147
3112	65.2094
3096	65.2572
3080	65.3288
3064	65.2918
3048	65.2735
3032	65.0436
3016	65.145
3000	65.2066
2984	64.8993
2968	64.6563
2952	64.5427
2936	64.7237
2920	64.806
2904	64.9568
2888	65.0149
2872	64.8715
2856	65.0304
2840	65.0073
2824	64.9706
2808	65.112
2792	65.0891
2776	65.1452
2760	65.2752
2744	65.1864
2728	65.1478
2712	65.1735
2696	65.0294
2680	65.2368
2664	65.0055
2648	65.0181
2632	64.988
2616	65.0509
2600	64.9897
2584	64.9846
2568	64.9782
2552	64.8787
2536	65.077
2520	65.084
2504	64.9887
2488	64.9159
2472	65.0035
2456	64.9703
2440	64.9702
2424	64.9363
2408	64.8208
2392	64.8867
2376	64.9073
2360	64.8471
2344	64.817
2328	64.8778
2312	64.874
2296	64.7451
2280	64.7557
2264	64.8695
2248	64.8704
2232	64.8349
2216	64.778
2200	64.6756
2184	64.8967
2168	64.6636
2152	64.768
2136	64.7673
2120	64.7074
2104	64.7548
2088	64.6331
2072	64.6768
2056	64.6677
2040	64.6234
2024	64.6955
2008	64.5912
1992	64.5324
1976	64.593
1960	64.538
1944	64.5319
1928	64.571
1912	64.5819
1896	64.5549
1880	64.5512
1864	64.4428
1848	64.5226
1832	64.4288
1816	64.5491
1800	64.4286
1784	64.3282
1768	64.3481
1752	63.9735
1736	62.8926
1720	63.7454
1704	64.1315
1688	64.2317
1672	64.2284
1656	64.1737
1640	64.1769
1624	64.2287
1608	64.2125
1592	64.1137
1576	64.1519
1560	63.9803
1544	64.132
1528	64.0395
1512	64.3454
1496	64.0774
1480	64.008
1464	63.8736
1448	63.8692
1432	63.8863
1416	63.9603
1400	63.9132
1384	63.9446
1368	63.8331
1352	63.9223
1336	63.922
1320	63.8878
1304	63.7829
1288	63.6792
1272	63.5893
1256	63.4752
1240	63.3944
1224	63.6255
1208	63.5878
1192	63.4169
1176	63.1762
1160	63.1352
1144	63.5298
1128	63.5875
1112	63.4429
1096	63.4405
1080	63.5617
1064	63.64
1048	63.5383
1032	63.5584
1016	63.4144
1000	63.6209
984	 63.791
968	 63.5257
952	 63.6266
936	 63.5285
920	 63.4381
904	 63.4294
888	 63.513
872	 63.478
856	 63.4381
840	 63.5378
824	 63.6458
808	 63.4808
792	 63.2112
776	 63.5184
760	 63.3878
744	 63.0989
728	 62.9707
712	 63.2225
696	 63.0028
680	 63.6437
664	 62.883
648	 62.9565
632	 62.6959
616	 64.081
600	 62.4339
584	 62.0566
568	 63.2225
552	 63.784
536	 63.5172
520	 63.6137
504	 62.218
488	 62.7315
472	 62.8609
456	 62.1112
440	 62.3576
424	 63.356
408	 65.191
392	 58.9153
376	 68.219
370	 54.7334

File: BZ1503107-1_t78.asc
PE IR       SPECTRUM    SPECTRUM    ASCII       PEDS        1.60
  -1
BZ296F~1.ASC
17/04/07
19:39:28.00
17/04/07
19:39:54.00
tln
$BZ1503107-1_t0078$<tbV0>[13.0,5.2,8.0,0.0,27,1,0]
27.028
64

2002,4.07
MIRTGS : RIGHTBACK : INTERNAL 2
MIR : ON : INTERNAL 2
OPTKBR

0.200000
8
8.000000
FILLER
RATIO
SPECTRUM
UNLOCKED 256

DOUBLE
64
COMBINED
1
0
0

0.002000
RATIO

1
0
TRUE
51149
0
LEFT NOT FITTED RIGHT NOT FITTED 0
NONE
NONE
15600
12
4.427000
51148
TRUE
1 0 8 72 0 0 0 0

15798

#HDR
-1
-1
#GR
µM
%T
2.38419e-05
0.0
2.000000
0.002000
12515
8
80.0942
57.0821
#DATA
2.000000	 61.636
2.084000	 60.0886
2.168000	 60.5466
2.252000	 59.7207
2.336000	 61.0715
2.420000	 61.4147
2.504000	 61.2379
2.588000	 61.7396
2.672000	 61.8185
2.756000	 62.0172
2.840000	 61.943
2.924000	 62.1087
3.008000	 62.3679
3.092000	 62.423
3.176000	 62.5838
3.260000	 62.4641
3.344000	 62.5182
3.428000	 62.5018
3.512000	 62.5859
3.596000	 62.7952
3.680000	 62.7522
3.764000	 62.7551
3.848000	 62.7892
3.932000	 62.7831
4.016000	 62.9713
4.100000	 62.9903
4.184000	 62.9887
4.268000	 62.9199
4.352000	 63.0018
4.436000	 63.093
4.520000	 63.0198
4.604000	 63.0027
4.688000	 63.065
4.772000	 63.0457
4.856000	 63.0939
4.940000	 63.1596
5.024000	 63.068
5.108000	 63.1706
5.192000	 63.105
5.276000	 63.1392
5.359999	 63.1535
5.444000	 63.1011
5.528000	 63.195
5.612000	 63.1602
5.696000	 63.1059
5.780000	 62.9182
5.864000	 63.1329
5.948000	 63.1982
6.032000	 63.207
6.116000	 62.9038
6.200000	 63.1709
6.284000	 63.1115
6.368000	 63.1962
6.452000	 63.0881
6.536000	 63.2215
6.620000	 63.3577
6.704000	 63.2105
6.788000	 63.1447
6.872000	 63.0229
6.956000	 63.021
7.040000	 63.1717
7.124000	 63.092
7.208000	 63.1051
7.292000	 63.0744
7.376000	 63.0623
7.460000	 63.1542
7.544000	 63.2363
7.628000	 63.0944
7.712000	 63.2145
7.796000	 63.0117
7.880000	 63.0014
7.964000	 63.0489
8.048000	 63.1019
8.132000	 63.0653
8.216000	 63.0654
8.300000	 63.0456
8.384000	 63.1489
8.468000	 63.0904
8.552000	 62.9155
8.635999	 63.0881
8.719999	 63.1589
8.804000	 63.0442
8.888000	 63.0906
8.972000	 62.9724
9.056000	 62.8687
9.140000	 63.0112
9.224000	 63.174
9.308000	 63.0393
9.391999	 63.2035
9.475999	 63.1149
9.560000	 63.2439
9.644000	 63.0821
9.728000	 63.1719
9.812000	 63.0816
9.896000	 63.0356
9.980000	 63.1759
10.064	63.0905
10.148	63.2459
10.232	63.3777
10.316	63.17
10.4	63.1177
10.484	63.3476
10.568	63.3045
10.652	63.1826
10.736	63.1117
10.82	63.1601
10.904	63.0769
10.988	63.2219
11.072	63.026
11.156	63.0258
11.24	63.1519
11.324	63.2184
11.408	63.1558
11.492	63.198
11.576	62.8256
11.66	62.7012
11.744	62.9513
11.828	63.0892
11.912	63.0369
11.996	62.8618
12.08	62.9565
12.164	63.1018
12.248	63.0376
12.332	62.9485
12.416	62.9881
12.5	62.9355
12.584	63.0508
12.668	63.1107
12.752	63.001
12.836	63.2159
12.92	63.2922
13.004	62.9858
13.088	62.7318
13.172	62.7099
13.256	62.9339
13.34	63.1226
13.424	62.9667
13.508	62.8566
13.592	62.9443
13.676	62.8408
13.76	62.682
13.844	62.7547
13.928	62.9985
14.012	63.1167
14.096	62.9037
14.18	62.6135
14.264	62.5306
14.348	62.6011
14.432	62.9022
14.516	63.2196
14.6	63.353
14.684	63.4824
14.768	63.4008
14.852	63.0983
14.936	62.7425
15.02	62.4682
15.104	62.7095
15.188	63.1005
15.272	62.9323
15.356	62.5097
15.44	62.265
15.524	62.1498
15.608	62.1364
15.692	62.1773
15.776	62.1747
15.86	62.229
15.944	62.4657
16.028	62.8198
16.112	63.2216
16.196	63.6802
16.28	64.0037
16.364	63.8271
16.448	63.1544
16.532	62.5245
16.616	62.3214
16.7	62.4814
16.784	62.8878
16.868	63.3408
16.952	63.4768
17.036	63.1487
17.12	62.5843
17.204	62.1285
17.288	62.069
17.372	62.3457
17.456	62.4977
17.54	62.2716
17.624	61.9699
17.708	61.97
17.792	62.2952
17.876	62.7489
17.96	63.1464
18.044	63.3926
18.128	63.5417
18.212	63.6288
18.296	63.4747
18.38	62.9086
18.464	62.1186
18.548	61.5309
18.632	61.3658
18.716	61.4781
18.8	61.6294
18.884	61.7476
18.968	61.8869
19.052	62.0871
19.136	62.3025
19.22	62.4507
19.304	62.4986
19.388	62.4961
19.472	62.5363
19.556	62.6801
19.64	62.917
19.724	63.1687
19.808	63.3405
19.892	63.3662
19.976	63.2513
20.06	63.0864
20.144	62.9874
20.228	63.0046
20.312	63.0829
20.396	63.1221
20.48	63.0881
20.564	63.051
20.648	63.1122
20.732	63.2894
20.816	63.4861
20.9	63.566
20.984	63.4574
21.068	63.2027
21.152	62.918
21.236	62.7069
21.32	62.5989
21.404	62.5555
21.488	62.5291
21.572	62.5046
21.656	62.4917
21.74	62.4846
21.824	62.4432
21.908	62.3235
21.992	62.129
22.076	61.9306
22.16	61.8407
22.244	61.9342
22.328	62.1965
22.412	62.526
22.496	62.7907
22.58	62.9011
22.664	62.8391
22.748	62.654
22.832	62.4059
22.916	62.136
23	61.8658
23.084	61.6124
23.168	61.4224
23.252	61.3646
23.336	61.4987
23.42	61.8428
23.504	62.3447
23.588	62.8955
23.672	63.3868
23.756	63.7623
23.84	64.044
23.924	64.326
24.008	64.7047
24.092	65.2057
24.176	65.7559
24.26	66.2053
24.344	66.3778
24.428	66.1638
24.512	65.5575
24.596	64.6499
24.68	63.5776
24.764	62.4675
24.848	61.3967
24.932	60.385
25.016	59.4263
25.1	58.5613
25.184	57.8718
25.268	57.4696
25.352	57.4713
25.436	57.9594
25.52	58.9023
25.604	60.1375
25.688	61.4766
25.772	62.7264
25.856	63.7
25.94	64.2634
26.024	64.3416
26.108	63.9335
26.192	63.0784
26.276	61.8765
26.36	60.5402
26.444	59.2914
26.528	58.3576
26.612	57.9408
26.696	58.2987
26.78	59.7145
26.864	62.3964
26.948	66.3666
27.028	71.1083

File: BZ1503107-1_t78_cm-1.asc
PE IR       SPECTRUM    SPECTRUM    ASCII       PEDS        1.60
  -1
BZ60B6~1.ASC
17/04/07
19:39:28.00
17/04/07
19:39:28.00
tln
$BZ1503107-1_t0078$<tbV0>[13.0,5.2,8.0,0.0,27,1,0]
370
64

2002,4.07
MIRTGS : RIGHTBACK : INTERNAL 2
MIR : ON : INTERNAL 2
OPTKBR

0.200000
8
8.000000
FILLER
RATIO
SPECTRUM
UNLOCKED 256

DOUBLE
64
COMBINED
1
0
0

1.000000
RATIO

1
0
TRUE
51149
0
LEFT NOT FITTED RIGHT NOT FITTED 0
NONE
NONE
15600
12
4.427000
51148
TRUE
1 0 8 72 0 0 0 0

15798

#HDR
-1
-1
#GR
CM-1
%T
2.38419e-05
0.0
5000
-1.000000
4631
8
80.4742
57.0446
#DATA
5000	61.636
4984	59.5817
4968	59.1235
4952	60.4538
4936	59.5359
4920	60.1752
4904	60.1759
4888	60.468
4872	60.3962
4856	60.4356
4840	60.9913
4824	60.3983
4808	60.3674
4792	60.4263
4776	60.6512
4760	60.3881
4744	60.663
4728	60.845
4712	60.3474
4696	60.3579
4680	60.4348
4664	60.6687
4648	60.152
4632	60.8598
4616	60.6249
4600	60.6487
4584	60.4079
4568	60.2376
4552	60.1129
4536	60.4208
4520	60.7374
4504	60.5237
4488	60.6689
4472	60.1733
4456	58.6366
4440	60.5765
4424	59.3793
4408	62.3687
4392	60.0483
4376	60.342
4360	60.8972
4344	61.0152
4328	60.6093
4312	60.7449
4296	61.1566
4280	61.0729
4264	60.7126
4248	61.2732
4232	61.1856
4216	61.2482
4200	60.9633
4184	61.3079
4168	61.2857
4152	61.2511
4136	61.4649
4120	61.3238
4104	61.551
4088	61.455
4072	61.3939
4056	61.5997
4040	61.2722
4024	61.4537
4008	61.483
3992	61.2594
3976	61.467
3960	61.5071
3944	61.7805
3928	61.2603
3912	61.3668
3896	61.8275
3880	61.2942
3864	61.7399
3848	61.3721
3832	61.409
3816	61.6493
3800	61.7939
3784	61.8587
3768	61.5875
3752	61.7014
3736	61.8336
3720	61.8588
3704	62.0002
3688	61.954
3672	62.0035
3656	62.0445
3640	61.931
3624	61.8891
3608	62.0364
3592	62.1915
3576	61.9557
3560	61.9706
3544	62.0327
3528	62.0754
3512	61.9951
3496	61.9788
3480	61.9436
3464	62.1284
3448	62.3357
3432	61.9019
3416	62.0662
3400	62.1246
3384	62.1634
3368	62.3009
3352	62.1141
3336	62.2846
3320	62.2068
3304	62.4053
3288	62.1625
3272	62.2685
3256	62.2794
3240	62.2406
3224	62.413
3208	62.4866
3192	62.4723
3176	62.4753
3160	62.4692
3144	62.6188
3128	62.2959
3112	62.539
3096	62.4536
3080	62.3626
3064	62.5371
3048	62.6004
3032	62.3063
3016	62.5311
3000	62.533
2984	62.343
2968	62.4714
2952	62.4122
2936	62.4939
2920	62.4902
2904	62.5206
2888	62.5515
2872	62.5906
2856	62.5469
2840	62.5906
2824	62.6426
2808	62.7099
2792	62.674
2776	62.7514
2760	62.8689
2744	62.7763
2728	62.8273
2712	62.6888
2696	62.8057
2680	62.821
2664	62.7532
2648	62.7612
2632	62.7317
2616	62.8216
2600	62.7801
2584	62.7894
2568	62.8776
2552	62.7304
2536	62.8641
2520	63.0108
2504	63.0486
2488	62.9621
2472	63.0267
2456	63.0266
2440	63.0037
2424	62.9725
2408	62.9729
2392	63.005
2376	62.8921
2360	62.9586
2344	62.9003
2328	63.025
2312	63.1226
2296	62.9893
2280	63.0468
2264	63.1216
2248	63.0918
2232	63.1413
2216	63.059
2200	62.9857
2184	62.9957
2168	63.0558
2152	63.0829
2136	63.0356
2120	62.989
2104	63.1829
2088	63.0511
2072	63.0741
2056	63.1314
2040	63.186
2024	63.1592
2008	63.1417
1992	63.0438
1976	63.1776
1960	63.1774
1944	63.1212
1928	63.0842
1912	63.0792
1896	63.1403
1880	63.1531
1864	63.1611
1848	63.2285
1832	63.1026
1816	63.2326
1800	63.2124
1784	63.1662
1768	63.185
1752	62.9437
1736	62.8195
1720	62.9629
1704	63.1523
1688	63.2513
1672	63.0716
1656	63.182
1640	62.956
1624	63.163
1608	63.1204
1592	63.121
1576	63.3067
1560	63.1676
1544	63.1875
1528	63.2356
1512	63.3172
1496	63.1694
1480	63.2562
1464	63.0022
1448	63.1018
1432	63.1579
1416	63.1129
1400	63.0883
1384	63.0501
1368	63.0391
1352	63.0337
1336	63.1941
1320	63.1857
1304	63.1405
1288	63.0549
1272	63.04
1256	63.0423
1240	63.0959
1224	63.21
1208	63.0521
1192	63.1429
1176	62.9909
1160	63.0825
1144	63.094
1128	63.0888
1112	62.9502
1096	62.9485
1080	63.0472
1064	63.1993
1048	63.1903
1032	63.1266
1016	63.0451
1000	63.1363
984	 63.2986
968	 63.151
952	 63.3346
936	 63.1159
920	 63.0461
904	 63.0318
888	 63.1917
872	 63.2223
856	 62.75
840	 63.0478
824	 63.0753
808	 62.9737
792	 63.1239
776	 63.3214
760	 62.6949
744	 62.9221
728	 62.7096
712	 63.0697
696	 62.6499
680	 63.493
664	 62.5116
648	 62.2808
632	 62.1857
616	 63.865
600	 62.3836
584	 62.5624
568	 62.0188
552	 63.5226
536	 61.3825
520	 62.4623
504	 63.37
488	 63.0807
472	 62.8188
456	 62.2787
440	 62.7075
424	 62.8759
408	 65.5776
392	 58.7748
376	 57.9672
370	 71.1083