Folder: Masteroppgave/Bakgrunnsmateriale/MATLAB/FTIR/ftir_data/subAa/Mapping_121 (part 47)

File: BZ1503107-1_t109.asc
PE IR       SPECTRUM    SPECTRUM    ASCII       PEDS        1.60
  -1
BZE6B6~1.ASC
17/04/07
22:09:47.00
17/04/07
22:10:13.00
tln
$BZ1503107-1_t0109$<tbV0>[-10.4,10.4,8.0,0.0,27,1,0]
27.028
64

2002,4.07
MIRTGS : RIGHTBACK : INTERNAL 2
MIR : ON : INTERNAL 2
OPTKBR

0.200000
8
8.000000
FILLER
RATIO
SPECTRUM
UNLOCKED 256

DOUBLE
64
COMBINED
1
0
0

0.002000
RATIO

1
0
TRUE
51149
0
LEFT NOT FITTED RIGHT NOT FITTED 0
NONE
NONE
15600
12
4.427000
51148
TRUE
1 0 8 72 0 0 0 0

15798

#HDR
-1
-1
#GR
µM
%T
2.38419e-05
0.0
2.000000
0.002000
12515
8
76.8024
56.7526
#DATA
2.000000	 64.2356
2.084000	 65.1759
2.168000	 64.7739
2.252000	 74.934
2.336000	 64.8483
2.420000	 65.0059
2.504000	 65.1355
2.588000	 64.9685
2.672000	 65.082
2.756000	 65.0418
2.840000	 64.837
2.924000	 65.0086
3.008000	 64.735
3.092000	 64.9118
3.176000	 64.8122
3.260000	 64.8824
3.344000	 64.6869
3.428000	 64.4502
3.512000	 64.6349
3.596000	 64.6734
3.680000	 64.656
3.764000	 64.6403
3.848000	 64.5695
3.932000	 64.5212
4.016000	 64.5665
4.100000	 64.4994
4.184000	 64.5242
4.268000	 64.4061
4.352000	 64.4627
4.436000	 64.3707
4.520000	 64.2146
4.604000	 64.2556
4.688000	 64.2516
4.772000	 64.2558
4.856000	 64.162
4.940000	 64.0274
5.024000	 64.2034
5.108000	 64.1364
5.192000	 63.9021
5.276000	 64.0235
5.359999	 63.8932
5.444000	 63.9871
5.528000	 63.9512
5.612000	 63.8372
5.696000	 63.7381
5.780000	 63.4808
5.864000	 63.8008
5.948000	 63.726
6.032000	 63.78
6.116000	 63.7773
6.200000	 63.6423
6.284000	 63.6362
6.368000	 63.7127
6.452000	 63.4978
6.536000	 63.4216
6.620000	 63.5286
6.704000	 63.5233
6.788000	 63.5385
6.872000	 63.1732
6.956000	 63.2403
7.040000	 63.3216
7.124000	 63.3286
7.208000	 63.3018
7.292000	 63.2032
7.376000	 63.2602
7.460000	 63.0514
7.544000	 63.2293
7.628000	 63.2175
7.712000	 63.228
7.796000	 63.1593
7.880000	 63.1148
7.964000	 62.9617
8.048000	 62.9821
8.132000	 63.0117
8.216000	 62.9821
8.300000	 62.925
8.384000	 62.9756
8.468000	 62.9484
8.552000	 62.9455
8.635999	 62.9524
8.719999	 62.8928
8.804000	 62.9586
8.888000	 62.911
8.972000	 62.7737
9.056000	 62.7838
9.140000	 62.9111
9.224000	 62.8354
9.308000	 62.6493
9.391999	 62.768
9.475999	 62.7195
9.560000	 62.7618
9.644000	 62.8167
9.728000	 62.7748
9.812000	 62.7861
9.896000	 62.7762
9.980000	 62.7967
10.064	62.836
10.148	62.8223
10.232	62.8326
10.316	62.706
10.4	62.7052
10.484	62.5461
10.568	62.6018
10.652	62.9138
10.736	62.8664
10.82	62.834
10.904	62.5675
10.988	62.6287
11.072	62.6324
11.156	62.5158
11.24	62.5897
11.324	62.6551
11.408	62.6391
11.492	62.5893
11.576	62.6764
11.66	62.8609
11.744	62.9183
11.828	62.6587
11.912	62.5381
11.996	62.5587
12.08	62.5661
12.164	62.6827
12.248	62.7183
12.332	62.7787
12.416	62.6433
12.5	62.3331
12.584	62.4209
12.668	62.5886
12.752	62.5485
12.836	62.2967
12.92	62.3353
13.004	62.4987
13.088	62.54
13.172	62.5141
13.256	62.5465
13.34	62.6129
13.424	62.5564
13.508	62.5128
13.592	62.4352
13.676	62.3726
13.76	62.3402
13.844	62.249
13.928	62.2151
14.012	62.1881
14.096	62.182
14.18	62.0993
14.264	61.98
14.348	62.0234
14.432	62.1438
14.516	62.2092
14.6	62.1638
14.684	62.0818
14.768	62.0798
14.852	62.1325
14.936	62.1633
15.02	62.1076
15.104	61.9996
15.188	61.9133
15.272	61.9316
15.356	62.1141
15.44	62.3021
15.524	62.2452
15.608	62.0006
15.692	61.9122
15.776	62.1109
15.86	62.3475
15.944	62.3622
16.028	62.2557
16.112	62.2597
16.196	62.3052
16.28	62.2394
16.364	62.1105
16.448	61.905
16.532	61.6947
16.616	61.7592
16.7	62.0891
16.784	62.3415
16.868	62.367
16.952	62.2573
17.036	62.0076
17.12	61.5881
17.204	61.1904
17.288	61.0713
17.372	61.204
17.456	61.3617
17.54	61.4732
17.624	61.591
17.708	61.6411
17.792	61.4915
17.876	61.1615
17.96	60.8203
18.044	60.6055
18.128	60.5488
18.212	60.6334
18.296	60.831
18.38	61.0812
18.464	61.3126
18.548	61.5285
18.632	61.8058
18.716	62.1295
18.8	62.3068
18.884	62.1899
18.968	61.9082
19.052	61.761
19.136	61.8397
19.22	61.9298
19.304	61.815
19.388	61.5803
19.472	61.4938
19.556	61.6818
19.64	61.981
19.724	62.0829
19.808	61.7925
19.892	61.1659
19.976	60.4588
20.06	59.9779
20.144	59.9481
20.228	60.429
20.312	61.2499
20.396	62.0558
20.48	62.5035
20.564	62.4783
20.648	62.1473
20.732	61.8085
20.816	61.6703
20.9	61.7337
20.984	61.8431
21.068	61.8232
21.152	61.6038
21.236	61.254
21.32	60.9305
21.404	60.7931
21.488	60.8995
21.572	61.1831
21.656	61.4989
21.74	61.7041
21.824	61.7313
21.908	61.595
21.992	61.3387
22.076	60.9927
22.16	60.566
22.244	60.076
22.328	59.5872
22.412	59.202
22.496	59.0215
22.58	59.1132
22.664	59.4966
22.748	60.1285
22.832	60.9186
22.916	61.7366
23	62.4327
23.084	62.8815
23.168	63.004
23.252	62.8001
23.336	62.3544
23.42	61.8268
23.504	61.406
23.588	61.2348
23.672	61.3528
23.756	61.6704
23.84	62.0006
23.924	62.1168
24.008	61.8566
24.092	61.1965
24.176	60.263
24.26	59.276
24.344	58.4898
24.428	58.0831
24.512	58.1259
24.596	58.5465
24.68	59.1565
24.764	59.7182
24.848	60.0339
24.932	60.0043
25.016	59.6773
25.1	59.2237
25.184	58.862
25.268	58.7366
25.352	58.8588
25.436	59.0789
25.52	59.1715
25.604	58.9726
25.688	58.4395
25.772	57.7085
25.856	57.0405
25.94	56.7527
26.024	57.0633
26.108	57.9467
26.192	59.1464
26.276	60.2825
26.36	60.9779
26.444	61.043
26.528	60.5579
26.612	59.823
26.696	59.2534
26.78	59.2192
26.864	59.8874
26.948	61.1552
27.028	62.5785

File: BZ1503107-1_t109_cm-1.asc
PE IR       SPECTRUM    SPECTRUM    ASCII       PEDS        1.60
  -1
BZCBF9~1.ASC
17/04/07
22:09:47.00
17/04/07
22:09:47.00
tln
$BZ1503107-1_t0109$<tbV0>[-10.4,10.4,8.0,0.0,27,1,0]
370
64

2002,4.07
MIRTGS : RIGHTBACK : INTERNAL 2
MIR : ON : INTERNAL 2
OPTKBR

0.200000
8
8.000000
FILLER
RATIO
SPECTRUM
UNLOCKED 256

DOUBLE
64
COMBINED
1
0
0

1.000000
RATIO

1
0
TRUE
51149
0
LEFT NOT FITTED RIGHT NOT FITTED 0
NONE
NONE
15600
12
4.427000
51148
TRUE
1 0 8 72 0 0 0 0

15798

#HDR
-1
-1
#GR
CM-1
%T
2.38419e-05
0.0
5000
-1.000000
4631
8
77.7395
56.7996
#DATA
5000	64.2356
4984	64.0893
4968	62.6871
4952	66.3181
4936	64.2807
4920	65.2315
4904	65.2009
4888	64.5087
4872	64.7738
4856	64.804
4840	64.7568
4824	64.5741
4808	64.8247
4792	65.139
4776	65.0662
4760	64.972
4744	65.0883
4728	64.6883
4712	64.7601
4696	64.8395
4680	65.0865
4664	65.1326
4648	65.1656
4632	65.1092
4616	64.8932
4600	65.2188
4584	64.7692
4568	64.6664
4552	64.4574
4536	64.8575
4520	64.6152
4504	64.5959
4488	63.9172
4472	64.4441
4456	63.7767
4440	73.9032
4424	61.0622
4408	64.4765
4392	64.5576
4376	63.9235
4360	64.4457
4344	64.9539
4328	64.4805
4312	64.6421
4296	65.0038
4280	64.8572
4264	64.4234
4248	64.7767
4232	64.6055
4216	64.922
4200	64.7233
4184	65.0831
4168	64.9389
4152	65.2787
4136	64.8477
4120	65.0137
4104	64.8858
4088	64.9046
4072	65.0404
4056	64.892
4040	64.8632
4024	64.9118
4008	65.0583
3992	65.0953
3976	64.897
3960	65.0605
3944	64.8562
3928	65.1352
3912	64.8
3896	64.8777
3880	65.021
3864	64.9684
3848	64.8884
3832	65.0557
3816	64.8624
3800	64.9647
3784	64.9799
3768	65.0243
3752	65.0427
3736	64.9175
3720	65.1418
3704	65.2108
3688	65.1634
3672	65.0079
3656	65.0675
3640	65.2316
3624	64.8977
3608	65.016
3592	65.1289
3576	64.8008
3560	64.9844
3544	64.7166
3528	64.9495
3512	64.8526
3496	65.0334
3480	64.9431
3464	64.9011
3448	64.9397
3432	64.8361
3416	64.9947
3400	65.0222
3384	64.9102
3368	64.7854
3352	65.0704
3336	64.9037
3320	64.7726
3304	64.9311
3288	64.9536
3272	64.925
3256	64.966
3240	64.9474
3224	64.9959
3208	64.7872
3192	65.0589
3176	64.8181
3160	64.8453
3144	64.9214
3128	64.6977
3112	64.8538
3096	64.8882
3080	64.812
3064	64.8122
3048	65.0023
3032	64.8416
3016	64.7366
3000	64.6304
2984	64.8283
2968	64.6707
2952	64.6927
2936	64.7892
2920	64.4859
2904	64.6681
2888	64.6693
2872	64.5968
2856	64.4681
2840	64.7491
2824	64.6806
2808	64.7264
2792	64.6711
2776	64.6823
2760	64.7651
2744	64.6393
2728	64.6917
2712	64.7092
2696	64.6253
2680	64.6549
2664	64.7071
2648	64.7762
2632	64.6542
2616	64.5171
2600	64.5368
2584	64.6661
2568	64.647
2552	64.5493
2536	64.5157
2520	64.514
2504	64.4288
2488	64.5468
2472	64.4722
2456	64.5987
2440	64.4894
2424	64.5504
2408	64.4596
2392	64.5169
2376	64.497
2360	64.5492
2344	64.415
2328	64.4706
2312	64.4705
2296	64.4718
2280	64.2447
2264	64.4603
2248	64.391
2232	64.4051
2216	64.243
2200	64.2334
2184	64.2288
2168	64.279
2152	64.3
2136	64.3027
2120	64.2483
2104	64.2328
2088	64.1804
2072	64.1578
2056	64.186
2040	64.1949
2024	64.024
2008	64.104
1992	64.2087
1976	64.1736
1960	64.1295
1944	63.9811
1928	63.9258
1912	63.9649
1896	64.0258
1880	63.9704
1864	63.8911
1848	64.0159
1832	63.9756
1816	63.8393
1800	63.9083
1784	63.8201
1768	63.8083
1752	63.685
1736	63.4431
1720	63.6057
1704	63.8126
1688	63.7202
1672	63.6364
1656	63.7609
1640	63.7641
1624	63.5549
1608	63.6869
1592	63.6349
1576	63.5482
1560	63.5686
1544	63.6181
1528	63.4246
1512	63.542
1496	63.5154
1480	63.4865
1464	63.4238
1448	63.199
1432	63.2908
1416	63.3305
1400	63.3114
1384	63.3034
1368	63.1773
1352	63.2579
1336	63.0479
1320	63.251
1304	63.2368
1288	63.141
1272	63.1402
1256	62.9623
1240	62.9913
1224	63.0841
1208	62.9328
1192	62.975
1176	62.9661
1160	62.9693
1144	62.9404
1128	62.8967
1112	62.7752
1096	62.9198
1080	62.7679
1064	62.7715
1048	62.7479
1032	62.8091
1016	62.7781
1000	62.8268
984	 62.8468
968	 62.6909
952	 62.5127
936	 62.9232
920	 62.688
904	 62.6505
888	 62.6448
872	 62.6453
856	 62.8879
840	 62.5382
824	 62.6462
808	 62.757
792	 62.5172
776	 62.2774
760	 62.5194
744	 62.544
728	 62.3571
712	 62.1839
696	 62.0517
680	 62.0726
664	 62.0574
648	 62.2922
632	 62.261
616	 62.289
600	 61.9473
584	 61.5703
568	 61.5657
552	 60.5477
536	 61.9023
520	 61.9282
504	 61.5732
488	 62.5278
472	 61.4679
456	 61.5381
440	 59.9535
424	 61.2359
408	 58.1196
392	 59.1744
376	 59.9615
370	 62.5785

File: BZ1503107-1_t110.asc
PE IR       SPECTRUM    SPECTRUM    ASCII       PEDS        1.60
  -1
BZCAB2~1.ASC
17/04/07
22:14:24.00
17/04/07
22:14:50.00
tln
$BZ1503107-1_t0110$<tbV0>[-13.0,10.4,8.0,0.0,27,1,0]
27.028
64

2002,4.07
MIRTGS : RIGHTBACK : INTERNAL 2
MIR : ON : INTERNAL 2
OPTKBR

0.200000
8
8.000000
FILLER
RATIO
SPECTRUM
UNLOCKED 256

DOUBLE
64
COMBINED
1
0
0

0.002000
RATIO

1
0
TRUE
51149
0
LEFT NOT FITTED RIGHT NOT FITTED 0
NONE
NONE
15600
12
4.427000
51148
TRUE
1 0 8 72 0 0 0 0

15798

#HDR
-1
-1
#GR
µM
%T
2.38419e-05
0.0
2.000000
0.002000
12515
8
91.0606
57.6791
#DATA
2.000000	 64.329
2.084000	 64.8944
2.168000	 64.527
2.252000	 91.0606
2.336000	 64.4396
2.420000	 65.106
2.504000	 64.8663
2.588000	 65.006
2.672000	 64.8249
2.756000	 65.1451
2.840000	 64.9047
2.924000	 65.0231
3.008000	 64.9344
3.092000	 64.8948
3.176000	 64.7228
3.260000	 64.7066
3.344000	 64.7948
3.428000	 64.627
3.512000	 64.4526
3.596000	 64.7323
3.680000	 64.8319
3.764000	 64.6157
3.848000	 64.5621
3.932000	 64.4459
4.016000	 64.6491
4.100000	 64.506
4.184000	 64.5469
4.268000	 64.3776
4.352000	 64.506
4.436000	 64.4045
4.520000	 64.3605
4.604000	 64.3609
4.688000	 64.2734
4.772000	 64.305
4.856000	 64.3313
4.940000	 64.1817
5.024000	 64.2123
5.108000	 64.208
5.192000	 64.0361
5.276000	 64.095
5.359999	 64.0569
5.444000	 64.0932
5.528000	 64.0155
5.612000	 63.7716
5.696000	 63.7288
5.780000	 63.5418
5.864000	 63.74
5.948000	 63.7496
6.032000	 63.741
6.116000	 63.7105
6.200000	 63.7447
6.284000	 63.7331
6.368000	 63.5433
6.452000	 63.4588
6.536000	 63.5526
6.620000	 63.5179
6.704000	 63.6681
6.788000	 63.4366
6.872000	 63.36
6.956000	 63.4126
7.040000	 63.3824
7.124000	 63.4226
7.208000	 63.3354
7.292000	 63.2292
7.376000	 63.2905
7.460000	 63.2954
7.544000	 63.3195
7.628000	 63.2717
7.712000	 63.0955
7.796000	 63.1763
7.880000	 63.0683
7.964000	 63.2112
8.048000	 63.1388
8.132000	 63.0454
8.216000	 63.1778
8.300000	 63.073
8.384000	 63.0783
8.468000	 63.0079
8.552000	 62.8728
8.635999	 63.0644
8.719999	 63.09
8.804000	 63.0093
8.888000	 63.0419
8.972000	 62.9752
9.056000	 63.0464
9.140000	 63.0357
9.224000	 62.8893
9.308000	 62.8892
9.391999	 63.0059
9.475999	 62.9431
9.560000	 62.8674
9.644000	 62.8964
9.728000	 62.9518
9.812000	 62.8275
9.896000	 62.8388
9.980000	 62.8994
10.064	62.9277
10.148	62.9035
10.232	62.9162
10.316	62.8915
10.4	62.746
10.484	62.8781
10.568	63.0161
10.652	63.0192
10.736	62.9611
10.82	63.0717
10.904	63.0151
10.988	62.8833
11.072	62.6115
11.156	62.479
11.24	62.6703
11.324	62.7096
11.408	62.7497
11.492	62.9936
11.576	62.8348
11.66	62.6456
11.744	62.6824
11.828	62.7125
11.912	62.6639
11.996	62.6889
12.08	62.7442
12.164	62.9679
12.248	63.0397
12.332	62.8502
12.416	62.8129
12.5	62.9298
12.584	63.0536
12.668	63.0023
12.752	62.9073
12.836	62.694
12.92	62.5903
13.004	62.5993
13.088	62.6341
13.172	62.688
13.256	62.7103
13.34	62.8211
13.424	62.8857
13.508	62.7487
13.592	62.6193
13.676	62.6364
13.76	62.6773
13.844	62.6587
13.928	62.4738
14.012	62.2373
14.096	62.2145
14.18	62.2148
14.264	62.1459
14.348	62.0711
14.432	62.1153
14.516	62.2415
14.6	62.2635
14.684	62.2127
14.768	62.2998
14.852	62.4925
14.936	62.5139
15.02	62.4357
15.104	62.4853
15.188	62.5432
15.272	62.5036
15.356	62.4769
15.44	62.5436
15.524	62.6773
15.608	62.7693
15.692	62.697
15.776	62.4556
15.86	62.1512
15.944	61.9365
16.028	61.9279
16.112	62.0183
16.196	61.9401
16.28	61.7135
16.364	61.7222
16.448	62.0648
16.532	62.2973
16.616	62.2165
16.7	62.2128
16.784	62.4527
16.868	62.578
16.952	62.4648
17.036	62.3964
17.12	62.4145
17.204	62.3192
17.288	62.2187
17.372	62.381
17.456	62.7019
17.54	62.8589
17.624	62.8196
17.708	62.7814
17.792	62.7692
17.876	62.6281
17.96	62.3739
18.044	62.236
18.128	62.319
18.212	62.439
18.296	62.3515
18.38	62.03
18.464	61.7023
18.548	61.6509
18.632	61.9582
18.716	62.4324
18.8	62.7762
18.884	62.8324
18.968	62.6754
19.052	62.505
19.136	62.4174
19.22	62.3341
19.304	62.1559
19.388	61.9452
19.472	61.8828
19.556	62.0602
19.64	62.3487
19.724	62.4982
19.808	62.3524
19.892	61.9575
19.976	61.5115
20.06	61.232
20.144	61.2226
20.228	61.4432
20.312	61.7727
20.396	62.098
20.48	62.3363
20.564	62.424
20.648	62.3337
20.732	62.1203
20.816	61.9112
20.9	61.8137
20.984	61.8082
21.068	61.7343
21.152	61.4162
21.236	60.8301
21.32	60.1553
21.404	59.6697
21.488	59.5524
21.572	59.7783
21.656	60.1702
21.74	60.5352
21.824	60.7818
21.908	60.9273
21.992	60.9966
22.076	60.9552
22.16	60.7352
22.244	60.3357
22.328	59.8804
22.412	59.5561
22.496	59.5016
22.58	59.7277
22.664	60.1388
22.748	60.5914
22.832	60.9804
22.916	61.2503
23	61.382
23.084	61.3746
23.168	61.2391
23.252	61.008
23.336	60.7496
23.42	60.5529
23.504	60.5041
23.588	60.6366
23.672	60.9139
23.756	61.2398
23.84	61.4932
23.924	61.5599
24.008	61.3601
24.092	60.8669
24.176	60.1257
24.26	59.258
24.344	58.4513
24.428	57.8885
24.512	57.7116
24.596	57.9381
24.68	58.4674
24.764	59.1318
24.848	59.7717
24.932	60.3117
25.016	60.7939
25.1	61.334
25.184	62.0192
25.268	62.8332
25.352	63.6693
25.436	64.3635
25.52	64.7783
25.604	64.8655
25.688	64.716
25.772	64.5079
25.856	64.3953
25.94	64.444
26.024	64.6053
26.108	64.7412
26.192	64.7035
26.276	64.3797
26.36	63.7363
26.444	62.8025
26.528	61.6679
26.612	60.3915
26.696	59.119
26.78	58.0975
26.864	57.6791
26.948	58.2034
27.028	59.7376

File: BZ1503107-1_t110_cm-1.asc
PE IR       SPECTRUM    SPECTRUM    ASCII       PEDS        1.60
  -1
BZ3C70~1.ASC
17/04/07
22:14:24.00
17/04/07
22:14:24.00
tln
$BZ1503107-1_t0110$<tbV0>[-13.0,10.4,8.0,0.0,27,1,0]
370
64

2002,4.07
MIRTGS : RIGHTBACK : INTERNAL 2
MIR : ON : INTERNAL 2
OPTKBR

0.200000
8
8.000000
FILLER
RATIO
SPECTRUM
UNLOCKED 256

DOUBLE
64
COMBINED
1
0
0

1.000000
RATIO

1
0
TRUE
51149
0
LEFT NOT FITTED RIGHT NOT FITTED 0
NONE
NONE
15600
12
4.427000
51148
TRUE
1 0 8 72 0 0 0 0

15798

#HDR
-1
-1
#GR
CM-1
%T
2.38419e-05
0.0
5000
-1.000000
4631
8
91.1319
57.7039
#DATA
5000	64.329
4984	64.822
4968	63.972
4952	65.052
4936	64.5776
4920	64.4805
4904	64.9331
4888	64.8102
4872	64.8108
4856	64.3486
4840	64.8906
4824	64.906
4808	64.9486
4792	65.0024
4776	65.1399
4760	64.9294
4744	65.4394
4728	65.1947
4712	65.1982
4696	65.152
4680	65.4837
4664	65.2537
4648	65.1321
4632	64.9985
4616	64.783
4600	64.1028
4584	64.2771
4568	64.0371
4552	63.9086
4536	63.5283
4520	63.9693
4504	64.0723
4488	62.944
4472	63.0612
4456	64.6141
4440	90.7985
4424	67.5493
4408	63.9989
4392	63.1498
4376	63.6864
4360	64.2164
4344	63.8969
4328	63.9727
4312	64.0134
4296	64.4783
4280	64.4119
4264	64.2488
4248	64.9771
4232	64.8114
4216	64.8889
4200	65.0222
4184	65.0543
4168	65.0055
4152	65.2066
4136	65.1366
4120	65.22
4104	65.0944
4088	65.303
4072	65.2269
4056	65.0059
4040	65.2178
4024	65.1339
4008	64.8415
3992	64.8684
3976	64.8268
3960	64.8433
3944	64.9668
3928	65.1564
3912	64.641
3896	64.6927
3880	64.8212
3864	65.0061
3848	65.3288
3832	64.9302
3816	64.8941
3800	64.9792
3784	65.0627
3768	64.9143
3752	64.8607
3736	64.9441
3720	65.1351
3704	65.2221
3688	64.9899
3672	65.2262
3656	64.901
3640	65.2165
3624	65.0016
3608	65.0492
3592	65.1968
3576	64.9945
3560	64.9849
3544	65.0549
3528	65.0231
3512	65.0696
3496	64.8962
3480	65.0742
3464	64.9662
3448	64.8257
3432	64.9971
3416	65.0834
3400	64.7862
3384	64.9919
3368	64.8879
3352	64.914
3336	64.9242
3320	65.018
3304	64.9074
3288	64.8944
3272	64.8492
3256	65.2295
3240	65.053
3224	64.7512
3208	64.8597
3192	64.9011
3176	65.003
3160	64.8641
3144	64.741
3128	64.8054
3112	64.7693
3096	64.8772
3080	64.8038
3064	64.8181
3048	65.0236
3032	64.7675
3016	64.9135
3000	64.7581
2984	64.6639
2968	64.7684
2952	64.6175
2936	64.635
2920	64.6354
2904	64.6169
2888	64.6805
2872	64.5219
2856	64.6597
2840	64.6135
2824	64.7263
2808	64.8012
2792	64.7247
2776	64.6941
2760	64.8532
2744	64.7691
2728	64.7928
2712	64.8165
2696	64.7939
2680	64.6619
2664	64.6067
2648	64.7956
2632	64.7137
2616	64.605
2600	64.5466
2584	64.6394
2568	64.5875
2552	64.5645
2536	64.5796
2520	64.5296
2504	64.5511
2488	64.6147
2472	64.6057
2456	64.6991
2440	64.4995
2424	64.6372
2408	64.5075
2392	64.5898
2376	64.5739
2360	64.5524
2344	64.3746
2328	64.5416
2312	64.4903
2296	64.4963
2280	64.3362
2264	64.3903
2248	64.4081
2232	64.399
2216	64.3393
2200	64.2165
2184	64.3719
2168	64.412
2152	64.2279
2136	64.2653
2120	64.2669
2104	64.3309
2088	64.2272
2072	64.2248
2056	64.331
2040	64.1232
2024	64.1818
2008	64.2099
1992	64.2166
1976	64.175
1960	64.157
1944	64.1095
1928	64.0204
1912	64.0718
1896	64.0973
1880	63.9805
1864	64.0515
1848	63.9968
1832	64.0836
1816	64.0091
1800	63.986
1784	63.7743
1768	63.8748
1752	63.6502
1736	63.5481
1720	63.7751
1704	63.7657
1688	63.7371
1672	63.6161
1656	63.7375
1640	63.735
1624	63.7194
1608	63.7815
1592	63.7287
1576	63.4903
1560	63.5129
1544	63.4993
1528	63.5726
1512	63.5142
1496	63.6627
1480	63.4547
1464	63.4049
1448	63.4752
1432	63.3706
1416	63.368
1400	63.3705
1384	63.3872
1368	63.306
1352	63.3034
1336	63.2849
1320	63.2919
1304	63.1864
1288	63.1545
1272	63.0959
1256	63.2039
1240	63.1271
1224	63.17
1208	63.0516
1192	63.072
1176	62.9989
1160	63.0383
1144	63.1202
1128	63.0188
1112	62.9318
1096	63.0718
1080	62.8778
1064	63.0065
1048	62.8162
1032	62.8909
1016	62.802
1000	62.9098
984	 62.9003
968	 62.8556
952	 62.9296
936	 62.9545
920	 63.0331
904	 62.6398
888	 62.7315
872	 62.9565
856	 62.6429
840	 62.6687
824	 62.87
808	 62.8077
792	 63.0377
776	 62.608
760	 62.6821
744	 62.8712
728	 62.6704
712	 62.2067
696	 62.0673
680	 62.2158
664	 62.4438
648	 62.5334
632	 62.2846
616	 61.8371
600	 62.1785
584	 62.4136
568	 62.8345
552	 62.2983
536	 62.0942
520	 62.3173
504	 62.217
488	 62.3588
472	 61.2019
456	 60.9527
440	 60.4826
424	 60.6289
408	 57.711
392	 64.7473
376	 60.6427
370	 59.7376

File: BZ1503107-1_t111.asc
PE IR       SPECTRUM    SPECTRUM    ASCII       PEDS        1.60
  -1
BZCAB6~1.ASC
17/04/07
22:25:15.00
17/04/07
22:25:41.00
tln
$BZ1503107-1_t0111$<tbV0>[13.0,13.0,8.0,0.0,27,1,0]
27.028
64

2002,4.07
MIRTGS : RIGHTBACK : INTERNAL 2
MIR : ON : INTERNAL 2
OPTKBR

0.200000
8
8.000000
FILLER
RATIO
SPECTRUM
UNLOCKED 256

DOUBLE
64
COMBINED
1
0
0

0.002000
RATIO

1
0
TRUE
51149
0
LEFT NOT FITTED RIGHT NOT FITTED 0
NONE
NONE
15600
12
4.427000
51148
TRUE
1 0 8 72 0 0 0 0

15798

#HDR
-1
-1
#GR
µM
%T
2.38419e-05
0.0
2.000000
0.002000
12515
8
74.582
53.415
#DATA
2.000000	 64.359
2.084000	 63.2106
2.168000	 63.5675
2.252000	 57.0705
2.336000	 63.4462
2.420000	 63.2167
2.504000	 63.3472
2.588000	 63.1081
2.672000	 63.4419
2.756000	 63.5629
2.840000	 63.1655
2.924000	 63.3987
3.008000	 63.3888
3.092000	 63.0543
3.176000	 63.1765
3.260000	 63.219
3.344000	 63.1138
3.428000	 62.9286
3.512000	 63.0942
3.596000	 63.0432
3.680000	 62.9774
3.764000	 63.0255
3.848000	 63.2086
3.932000	 63.0623
4.016000	 62.8357
4.100000	 62.8788
4.184000	 62.8463
4.268000	 62.9443
4.352000	 62.9096
4.436000	 62.6719
4.520000	 62.8081
4.604000	 62.7529
4.688000	 62.8285
4.772000	 62.6978
4.856000	 62.5653
4.940000	 62.5167
5.024000	 62.3964
5.108000	 62.414
5.192000	 62.5469
5.276000	 62.56
5.359999	 62.448
5.444000	 62.4249
5.528000	 62.3855
5.612000	 62.43
5.696000	 62.2314
5.780000	 61.9116
5.864000	 62.0846
5.948000	 62.2729
6.032000	 62.1538
6.116000	 62.239
6.200000	 62.1268
6.284000	 62.0757
6.368000	 62.0237
6.452000	 62.0393
6.536000	 62.0539
6.620000	 61.957
6.704000	 61.9823
6.788000	 61.6612
6.872000	 61.8268
6.956000	 61.8454
7.040000	 61.8469
7.124000	 61.8437
7.208000	 61.6527
7.292000	 61.8675
7.376000	 61.7439
7.460000	 61.9414
7.544000	 61.9062
7.628000	 61.8626
7.712000	 61.7239
7.796000	 61.5698
7.880000	 61.5812
7.964000	 61.37
8.048000	 61.2813
8.132000	 61.1949
8.216000	 61.3327
8.300000	 61.2559
8.384000	 61.3405
8.468000	 61.2328
8.552000	 61.2389
8.635999	 61.1849
8.719999	 61.164
8.804000	 61.0817
8.888000	 61.1395
8.972000	 61.0807
9.056000	 61.1195
9.140000	 61.0191
9.224000	 60.903
9.308000	 60.8131
9.391999	 61.0513
9.475999	 60.962
9.560000	 61.0904
9.644000	 60.9478
9.728000	 60.863
9.812000	 60.8036
9.896000	 60.7108
9.980000	 60.8489
10.064	60.7511
10.148	60.8088
10.232	60.8157
10.316	60.62
10.4	60.5152
10.484	60.6436
10.568	60.5821
10.652	60.5153
10.736	60.6531
10.82	60.7435
10.904	60.8636
10.988	60.8004
11.072	60.8119
11.156	60.9003
11.24	60.7938
11.324	60.5755
11.408	60.7707
11.492	60.9089
11.576	60.9461
11.66	60.8072
11.744	60.7603
11.828	60.6977
11.912	60.6689
11.996	60.6017
12.08	60.8527
12.164	60.9994
12.248	60.9138
12.332	60.747
12.416	60.6763
12.5	60.7616
12.584	60.712
12.668	60.7588
12.752	60.7385
12.836	60.5827
12.92	60.6072
13.004	60.5135
13.088	60.3793
13.172	60.5231
13.256	60.6451
13.34	60.6331
13.424	60.6358
13.508	60.5707
13.592	60.4169
13.676	60.2582
13.76	60.1576
13.844	60.1154
13.928	60.2467
14.012	60.3971
14.096	60.3374
14.18	60.1978
14.264	60.1637
14.348	60.2243
14.432	60.3776
14.516	60.421
14.6	60.3187
14.684	60.2464
14.768	60.1017
14.852	59.9452
14.936	60.0366
15.02	60.3042
15.104	60.3206
15.188	59.959
15.272	59.6352
15.356	59.6448
15.44	59.8881
15.524	60.1251
15.608	60.1654
15.692	60.0163
15.776	59.85
15.86	59.8276
15.944	59.8754
16.028	59.7051
16.112	59.344
16.196	59.3069
16.28	59.8158
16.364	60.2934
16.448	60.1209
16.532	59.624
16.616	59.5513
16.7	59.9056
16.784	60.0898
16.868	59.8364
16.952	59.4536
17.036	59.3123
17.12	59.4331
17.204	59.5321
17.288	59.3306
17.372	58.8729
17.456	58.5974
17.54	58.94
17.624	59.7468
17.708	60.343
17.792	60.3257
17.876	60.0504
17.96	60.1062
18.044	60.5871
18.128	61.12
18.212	61.375
18.296	61.3021
18.38	61.0545
18.464	60.8278
18.548	60.7267
18.632	60.6895
18.716	60.5869
18.8	60.3748
18.884	60.09
18.968	59.7379
19.052	59.3063
19.136	58.8891
19.22	58.6808
19.304	58.8046
19.388	59.1679
19.472	59.5362
19.556	59.7103
19.64	59.6423
19.724	59.4195
19.808	59.1878
19.892	59.0693
19.976	59.1022
20.06	59.227
20.144	59.3508
20.228	59.4286
20.312	59.4816
20.396	59.5343
20.48	59.561
20.564	59.5091
20.648	59.3738
20.732	59.2222
20.816	59.1387
20.9	59.1521
20.984	59.2359
21.068	59.361
21.152	59.537
21.236	59.7799
21.32	60.0586
21.404	60.2753
21.488	60.3166
21.572	60.1406
21.656	59.8082
21.74	59.4544
21.824	59.2157
21.908	59.1619
21.992	59.28
22.076	59.4939
22.16	59.6925
22.244	59.7581
22.328	59.5998
22.412	59.1869
22.496	58.5779
22.58	57.9176
22.664	57.3931
22.748	57.1717
22.832	57.3321
22.916	57.8468
23	58.5942
23.084	59.413
23.168	60.1431
23.252	60.6854
23.336	61.0004
23.42	61.0929
23.504	61.0042
23.588	60.7865
23.672	60.4849
23.756	60.1358
23.84	59.7486
23.924	59.3323
24.008	58.9028
24.092	58.4878
24.176	58.1448
24.26	57.9181
24.344	57.8107
24.428	57.7762
24.512	57.7334
24.596	57.6053
24.68	57.3907
24.764	57.2047
24.848	57.2002
24.932	57.5326
25.016	58.2698
25.1	59.3461
25.184	60.5647
25.268	61.6951
25.352	62.5887
25.436	63.2716
25.52	63.9406
25.604	64.8456
25.688	66.1751
25.772	67.9507
25.856	70.0075
25.94	72.0301
26.024	73.6314
26.108	74.4884
26.192	74.4395
26.276	73.4616
26.36	71.6569
26.444	69.1579
26.528	66.1307
26.612	62.7239
26.696	59.2609
26.78	56.3026
26.864	54.501
26.948	54.3432
27.028	55.7547