Folder: Masteroppgave/Bakgrunnsmateriale/MATLAB/FTIR/ftir_data/subAa/Mapping_121 (part 10)

File: BZ1503107-1_t16_cm-1.asc
PE IR       SPECTRUM    SPECTRUM    ASCII       PEDS        1.60
  -1
BZ6EA1~1.ASC
17/04/07
14:30:22.00
17/04/07
14:30:22.00
tln
$BZ1503107-1_t0016$<tbV0>[2.6,-10.4,8.0,0.0,27,1,0]
370
64

2002,4.07
MIRTGS : RIGHTBACK : INTERNAL 2
MIR : ON : INTERNAL 2
OPTKBR

0.200000
8
8.000000
FILLER
RATIO
SPECTRUM
UNLOCKED 256

DOUBLE
64
COMBINED
1
0
0

1.000000
RATIO

1
0
TRUE
51149
0
LEFT NOT FITTED RIGHT NOT FITTED 0
NONE
NONE
15600
12
4.427000
51148
TRUE
1 0 8 72 0 0 0 0

15798

#HDR
-1
-1
#GR
CM-1
%T
2.38419e-05
0.0
5000
-1.000000
4631
8
75.3547
38.1804
#DATA
5000	64.2256
4984	65.4515
4968	64.2866
4952	66.3897
4936	63.5376
4920	65.4395
4904	64.5523
4888	65.5398
4872	64.4736
4856	64.8958
4840	65.4844
4824	65.4782
4808	64.8539
4792	65.4878
4776	64.8951
4760	65.533
4744	64.8422
4728	64.9911
4712	64.464
4696	64.885
4680	65.0366
4664	65.0455
4648	64.5862
4632	64.7776
4616	64.5976
4600	64.5842
4584	64.6201
4568	64.5827
4552	64.307
4536	64.5176
4520	64.5291
4504	65.0509
4488	67.7057
4472	65.1348
4456	62.3245
4440	68.6803
4424	67.4719
4408	64.8115
4392	65.1866
4376	65.0339
4360	64.4654
4344	65.4579
4328	64.8776
4312	65.0331
4296	65.0222
4280	64.9968
4264	65.0496
4248	65.1433
4232	65.1051
4216	65.16
4200	65.2353
4184	64.8539
4168	65.2779
4152	65.0653
4136	65.2747
4120	65.0222
4104	65.2632
4088	65.118
4072	65.2345
4056	65.165
4040	65.1471
4024	65.1273
4008	65.1352
3992	65.1368
3976	65.1191
3960	65.1814
3944	65.519
3928	64.8244
3912	64.9801
3896	65.0092
3880	65.0429
3864	65.1094
3848	65.4366
3832	65.3359
3816	65.3565
3800	65.1077
3784	65.1554
3768	65.25
3752	65.5269
3736	65.3523
3720	65.2375
3704	65.2853
3688	65.3182
3672	65.5545
3656	65.2844
3640	65.2657
3624	65.5569
3608	65.3203
3592	65.235
3576	65.3288
3560	65.1788
3544	65.0988
3528	65.0361
3512	65.2743
3496	65.0937
3480	65.3175
3464	64.9523
3448	65.104
3432	65.3017
3416	65.369
3400	65.2429
3384	65.1486
3368	65.1731
3352	65.1246
3336	65.3073
3320	65.3726
3304	65.1051
3288	65.3516
3272	65.2343
3256	65.2221
3240	64.9878
3224	65.1062
3208	65.222
3192	65.2433
3176	65.2692
3160	65.2259
3144	65.0476
3128	65.0812
3112	65.0365
3096	65.2895
3080	65.0906
3064	65.2024
3048	65.1443
3032	65.2041
3016	65.1589
3000	65.076
2984	65.1027
2968	65.1874
2952	64.9224
2936	65.1278
2920	65.0083
2904	65.0455
2888	65.0643
2872	65.1159
2856	65.0119
2840	65.096
2824	64.9762
2808	65.0509
2792	65.0861
2776	65.1628
2760	65.0671
2744	65.0854
2728	65.0875
2712	65.1409
2696	65.1196
2680	65.0842
2664	65.047
2648	65.048
2632	65.0977
2616	65.0995
2600	65.0312
2584	65.1519
2568	65.0373
2552	65.1208
2536	65.0829
2520	65.1415
2504	65.1398
2488	65.0989
2472	65.0862
2456	65.0647
2440	64.9556
2424	65.0218
2408	65.0282
2392	64.9266
2376	65.0999
2360	65.1085
2344	65.0711
2328	65.0091
2312	64.9616
2296	64.9279
2280	65.0178
2264	64.9461
2248	64.9718
2232	64.9374
2216	64.9468
2200	64.9506
2184	64.9469
2168	65.036
2152	64.7335
2136	64.8338
2120	65.0132
2104	64.8389
2088	64.9046
2072	64.8962
2056	64.8668
2040	64.8273
2024	64.8831
2008	64.9528
1992	64.8445
1976	64.8284
1960	64.8811
1944	64.8785
1928	64.7506
1912	64.8456
1896	64.9209
1880	64.7841
1864	64.8182
1848	64.8109
1832	64.762
1816	64.8792
1800	64.8488
1784	64.8069
1768	64.896
1752	64.7037
1736	64.4413
1720	64.6614
1704	64.7396
1688	64.7584
1672	64.7591
1656	64.7761
1640	64.7177
1624	64.75
1608	64.6426
1592	64.7068
1576	64.818
1560	64.9416
1544	64.8539
1528	64.7113
1512	64.8055
1496	64.7869
1480	64.5863
1464	64.4974
1448	64.5426
1432	64.5974
1416	64.4472
1400	64.5301
1384	64.4012
1368	64.4813
1352	64.4453
1336	64.4952
1320	64.3324
1304	64.2388
1288	64.4322
1272	64.1876
1256	64.242
1240	64.2317
1224	64.252
1208	64.2428
1192	64.3889
1176	64.088
1160	64.1205
1144	64.219
1128	64.5187
1112	64.175
1096	64.0837
1080	64.4006
1064	64.1062
1048	64.1836
1032	64.2838
1016	64.2233
1000	64.1579
984	 63.915
968	 64.2407
952	 64.2814
936	 64.2135
920	 64.3421
904	 64.1368
888	 64.0274
872	 64.1667
856	 64.3011
840	 64.1955
824	 64.0912
808	 64.2111
792	 64.1851
776	 64.2246
760	 64.0983
744	 63.9965
728	 64.1206
712	 64.2174
696	 64.193
680	 63.7838
664	 63.5299
648	 64.0686
632	 63.9971
616	 63.8976
600	 64.2604
584	 64.4325
568	 63.8409
552	 65.0163
536	 64.4759
520	 63.4984
504	 63.0894
488	 63.3914
472	 63.4379
456	 63.6085
440	 64.459
424	 65.5068
408	 65.065
392	 61.6711
376	 73.4749
370	 51.1831

File: BZ1503107-1_t17.asc
PE IR       SPECTRUM    SPECTRUM    ASCII       PEDS        1.60
  -1
BZ256B~1.ASC
17/04/07
14:34:59.00
17/04/07
14:35:25.00
tln
$BZ1503107-1_t0017$<tbV0>[0.0,-10.4,8.0,0.0,27,1,0]
27.028
64

2002,4.07
MIRTGS : RIGHTBACK : INTERNAL 2
MIR : ON : INTERNAL 2
OPTKBR

0.200000
8
8.000000
FILLER
RATIO
SPECTRUM
UNLOCKED 256

DOUBLE
64
COMBINED
1
0
0

0.002000
RATIO

1
0
TRUE
51149
0
LEFT NOT FITTED RIGHT NOT FITTED 0
NONE
NONE
15600
12
4.427000
51148
TRUE
1 0 8 72 0 0 0 0

15798

#HDR
-1
-1
#GR
µM
%T
2.38419e-05
0.0
2.000000
0.002000
12515
8
75.2596
44.9393
#DATA
2.000000	 66.7837
2.084000	 66.1447
2.168000	 64.8968
2.252000	 51.5522
2.336000	 65.193
2.420000	 65.0199
2.504000	 64.8943
2.588000	 65.0307
2.672000	 65.4242
2.756000	 65.4338
2.840000	 65.1356
2.924000	 65.2467
3.008000	 65.217
3.092000	 65.1056
3.176000	 65.122
3.260000	 65.2689
3.344000	 65.0052
3.428000	 64.9198
3.512000	 64.982
3.596000	 65.0914
3.680000	 65.0964
3.764000	 65.0521
3.848000	 65.0324
3.932000	 65.0329
4.016000	 65.0346
4.100000	 64.956
4.184000	 65.0829
4.268000	 65.0423
4.352000	 64.9607
4.436000	 65.0223
4.520000	 64.9008
4.604000	 64.9462
4.688000	 64.9028
4.772000	 64.8455
4.856000	 64.9461
4.940000	 64.9135
5.024000	 64.836
5.108000	 64.9358
5.192000	 64.7945
5.276000	 64.8084
5.359999	 64.8884
5.444000	 64.7862
5.528000	 64.8028
5.612000	 64.8433
5.696000	 64.6512
5.780000	 64.1798
5.864000	 64.6498
5.948000	 64.7611
6.032000	 64.735
6.116000	 64.7662
6.200000	 64.6614
6.284000	 64.6798
6.368000	 64.6477
6.452000	 64.6801
6.536000	 64.6103
6.620000	 64.7232
6.704000	 64.644
6.788000	 64.6345
6.872000	 64.5262
6.956000	 64.5752
7.040000	 64.4441
7.124000	 64.4726
7.208000	 64.4698
7.292000	 64.366
7.376000	 64.5087
7.460000	 64.443
7.544000	 64.4215
7.628000	 64.3403
7.712000	 64.3244
7.796000	 64.297
7.880000	 64.1746
7.964000	 64.2171
8.048000	 64.1321
8.132000	 64.1733
8.216000	 64.2025
8.300000	 64.2879
8.384000	 64.256
8.468000	 64.0197
8.552000	 64.257
8.635999	 64.0721
8.719999	 64.012
8.804000	 64.1343
8.888000	 64.1937
8.972000	 64.1825
9.056000	 64.1391
9.140000	 64.2388
9.224000	 64.2699
9.308000	 64.3231
9.391999	 64.0626
9.475999	 64.1032
9.560000	 64.0257
9.644000	 64.017
9.728000	 64.0502
9.812000	 63.9611
9.896000	 64.141
9.980000	 64.2019
10.064	64.2532
10.148	64.0866
10.232	64.0048
10.316	64.0647
10.4	64.1491
10.484	64.1342
10.568	64.2404
10.652	64.2391
10.736	64.1627
10.82	64.2812
10.904	64.3453
10.988	64.2033
11.072	64.2275
11.156	64.3511
11.24	64.3149
11.324	64.3936
11.408	64.4015
11.492	64.274
11.576	64.2348
11.66	64.336
11.744	64.3618
11.828	64.4025
11.912	64.2162
11.996	63.9411
12.08	63.8085
12.164	63.936
12.248	63.9286
12.332	63.791
12.416	63.7485
12.5	63.9528
12.584	64.2514
12.668	64.322
12.752	64.4226
12.836	64.2342
12.92	64.1251
13.004	64.1753
13.088	64.1113
13.172	64.0651
13.256	63.9724
13.34	63.9425
13.424	63.8933
13.508	63.7368
13.592	63.7629
13.676	63.8782
13.76	63.9906
13.844	64.0673
13.928	64.0185
14.012	63.9391
14.096	64.0254
14.18	64.1567
14.264	64.0808
14.348	63.8016
14.432	63.6128
14.516	63.7279
14.6	63.8423
14.684	63.7489
14.768	63.7096
14.852	63.8414
14.936	64.0153
15.02	64.0568
15.104	63.9428
15.188	63.8145
15.272	63.798
15.356	63.9512
15.44	64.1509
15.524	64.1598
15.608	63.9192
15.692	63.5807
15.776	63.3441
15.86	63.3823
15.944	63.633
16.028	63.85
16.112	64.0146
16.196	64.2096
16.28	64.2797
16.364	64.1532
16.448	64.0449
16.532	64.0125
16.616	63.8717
16.7	63.6061
16.784	63.3993
16.868	63.419
16.952	63.7508
17.036	64.2892
17.12	64.636
17.204	64.4577
17.288	63.9727
17.372	63.716
17.456	63.8482
17.54	64.0689
17.624	64.184
17.708	64.2855
17.792	64.3956
17.876	64.3883
17.96	64.2728
18.044	64.1778
18.128	64.1015
18.212	63.992
18.296	63.954
18.38	64.047
18.464	64.047
18.548	63.7135
18.632	63.1857
18.716	62.8328
18.8	62.7819
18.884	62.8503
18.968	62.9116
19.052	63.0703
19.136	63.4093
19.22	63.7817
19.304	63.9631
19.388	63.935
19.472	63.8681
19.556	63.8671
19.64	63.8415
19.724	63.6536
19.808	63.3141
19.892	62.9622
19.976	62.7148
20.06	62.5903
20.144	62.5813
20.228	62.7304
20.312	63.0753
20.396	63.5458
20.48	63.9682
20.564	64.1871
20.648	64.1881
20.732	64.0915
20.816	64.0435
20.9	64.0939
20.984	64.1549
21.068	64.079
21.152	63.7967
21.236	63.3904
21.32	63.0412
21.404	62.9138
21.488	63.0557
21.572	63.3798
21.656	63.7145
21.74	63.8874
21.824	63.8069
21.908	63.5054
21.992	63.1026
22.076	62.7269
22.16	62.4436
22.244	62.2312
22.328	62.0386
22.412	61.8616
22.496	61.7771
22.58	61.8772
22.664	62.1952
22.748	62.6537
22.832	63.1011
22.916	63.403
23	63.5168
23.084	63.5055
23.168	63.4851
23.252	63.5368
23.336	63.6801
23.42	63.8502
23.504	63.95
23.588	63.8932
23.672	63.6436
23.756	63.2414
23.84	62.7999
23.924	62.4902
24.008	62.4963
24.092	62.9537
24.176	63.8643
24.26	65.0949
24.344	66.3853
24.428	67.4762
24.512	68.2417
24.596	68.7361
24.68	69.1636
24.764	69.7742
24.848	70.7323
24.932	72.0029
25.016	73.3446
25.1	74.4753
25.184	75.1366
25.268	75.2402
25.352	74.9189
25.436	74.3258
25.52	73.5679
25.604	72.7025
25.688	71.6153
25.772	70.1588
25.856	68.2387
25.94	66.1727
26.024	63.9275
26.108	60.5789
26.192	55.6941
26.276	49.9304
26.36	45.8332
26.444	45.0902
26.528	47.6744
26.612	50.1274
26.696	49.8505
26.78	47.5694
26.864	48.3761
26.948	57.7739
27.028	73.5371

File: BZ1503107-1_t17_cm-1.asc
PE IR       SPECTRUM    SPECTRUM    ASCII       PEDS        1.60
  -1
BZ6FA1~1.ASC
17/04/07
14:34:59.00
17/04/07
14:34:59.00
tln
$BZ1503107-1_t0017$<tbV0>[0.0,-10.4,8.0,0.0,27,1,0]
370
64

2002,4.07
MIRTGS : RIGHTBACK : INTERNAL 2
MIR : ON : INTERNAL 2
OPTKBR

0.200000
8
8.000000
FILLER
RATIO
SPECTRUM
UNLOCKED 256

DOUBLE
64
COMBINED
1
0
0

1.000000
RATIO

1
0
TRUE
51149
0
LEFT NOT FITTED RIGHT NOT FITTED 0
NONE
NONE
15600
12
4.427000
51148
TRUE
1 0 8 72 0 0 0 0

15798

#HDR
-1
-1
#GR
CM-1
%T
2.38419e-05
0.0
5000
-1.000000
4631
8
75.2573
45.2211
#DATA
5000	66.7837
4984	64.2121
4968	66.154
4952	64.6622
4936	64.7569
4920	64.21
4904	64.8913
4888	64.9409
4872	65.2529
4856	65.3574
4840	65.2614
4824	65.135
4808	65.0732
4792	65.4319
4776	64.8033
4760	65.3308
4744	64.7377
4728	64.853
4712	64.9737
4696	64.8368
4680	65.1343
4664	65.134
4648	65.1867
4632	64.7381
4616	64.7008
4600	64.7158
4584	64.8711
4568	64.6327
4552	64.6081
4536	64.6632
4520	64.3162
4504	65.2954
4488	68.0326
4472	65.5201
4456	63.3796
4440	52.3626
4424	66.4053
4408	65.7962
4392	65.4438
4376	64.8602
4360	64.8838
4344	65.0095
4328	64.8429
4312	64.845
4296	64.8148
4280	65.1992
4264	65.0481
4248	64.9743
4232	64.9604
4216	65.0451
4200	65.3382
4184	65.1214
4168	64.7625
4152	65.025
4136	65.2213
4120	65.0791
4104	65.0765
4088	65.3577
4072	65.2465
4056	65.3198
4040	65.0401
4024	65.0261
4008	65.1307
3992	64.8888
3976	65.269
3960	65.0285
3944	65.0167
3928	64.8213
3912	65.0615
3896	65.0547
3880	65.454
3864	65.0303
3848	65.2706
3832	65.2432
3816	65.0962
3800	65.2132
3784	65.1932
3768	65.175
3752	65.4334
3736	65.2576
3720	65.1531
3704	65.3539
3688	65.2863
3672	65.4303
3656	65.3361
3640	65.3085
3624	65.4815
3608	65.4286
3592	65.2779
3576	65.3026
3560	65.2424
3544	65.1602
3528	65.2944
3512	65.1201
3496	65.1216
3480	65.1064
3464	65.1125
3448	65.129
3432	65.1337
3416	65.2403
3400	65.1284
3384	65.1098
3368	65.0887
3352	65.0386
3336	65.2101
3320	65.2502
3304	65.096
3288	65.0923
3272	65.1449
3256	65.0794
3240	65.0063
3224	65.194
3208	65.2098
3192	65.0849
3176	65.177
3160	65.248
3144	65.0774
3128	65.1711
3112	65.0819
3096	65.1324
3080	65.1448
3064	65.2578
3048	65.2021
3032	65.1578
3016	65.2834
3000	65.1883
2984	65.0262
2968	65.0097
2952	64.9308
2936	64.8752
2920	64.9127
2904	65.0086
2888	65.0829
2872	65.08
2856	64.9998
2840	65.1046
2824	64.9896
2808	64.9469
2792	65.0259
2776	65.1192
2760	65.0216
2744	65.0905
2728	65.1138
2712	65.2013
2696	65.1367
2680	65.0158
2664	64.9843
2648	65.0719
2632	65.0953
2616	65.0857
2600	65.0365
2584	65.1607
2568	65.0376
2552	65.1327
2536	65.044
2520	65.1495
2504	65.0172
2488	65.0441
2472	64.9909
2456	64.924
2440	64.9703
2424	64.8577
2408	65.0552
2392	65.0782
2376	64.9844
2360	65.0023
2344	65.0552
2328	64.93
2312	64.9959
2296	64.9483
2280	64.9581
2264	64.962
2248	64.9934
2232	64.8414
2216	64.9204
2200	64.8981
2184	64.8959
2168	65.0596
2152	64.7663
2136	64.8681
2120	64.9542
2104	64.809
2088	64.8177
2072	64.7992
2056	64.9784
2040	64.8357
2024	64.913
2008	64.868
1992	64.8082
1976	64.8533
1960	64.9464
1944	64.8443
1928	64.7925
1912	64.8743
1896	64.8062
1880	64.7814
1864	64.858
1848	64.8055
1832	64.7563
1816	64.7766
1800	64.7506
1784	64.8612
1768	64.708
1752	64.6408
1736	64.2598
1720	64.525
1704	64.696
1688	64.7723
1672	64.7058
1656	64.7426
1640	64.7381
1624	64.7089
1608	64.7033
1592	64.6891
1576	64.7418
1560	64.8991
1544	64.6768
1528	64.6391
1512	64.6966
1496	64.7848
1480	64.6271
1464	64.5101
1448	64.5337
1432	64.6162
1416	64.4111
1400	64.4149
1384	64.4328
1368	64.4324
1352	64.5648
1336	64.405
1320	64.3767
1304	64.2889
1288	64.3828
1272	64.179
1256	64.2165
1240	64.1566
1224	64.2172
1208	64.2903
1192	64.2528
1176	64.0378
1160	64.1017
1144	64.0199
1128	64.2252
1112	64.2092
1096	64.2101
1080	64.4108
1064	64.0614
1048	64.0635
1032	64.0514
1016	64.0457
1000	64.2437
984	 64.0738
968	 64.1009
952	 64.1655
936	 64.235
920	 64.3322
904	 64.2038
888	 64.3274
872	 64.3315
856	 64.3481
840	 64.2422
824	 63.8808
808	 63.7581
792	 64.2826
776	 64.131
760	 64.0733
744	 63.8611
728	 63.9583
712	 63.9508
696	 63.7348
680	 63.7224
664	 64.0142
648	 64.1371
632	 63.3274
616	 64.2692
600	 63.716
584	 64.6396
568	 64.165
552	 64.1149
536	 63.0494
520	 63.8187
504	 63.1674
488	 64.0135
472	 63.6354
456	 63.4046
440	 62.5355
424	 63.8987
408	 68.2255
392	 73.6613
376	 49.8674
370	 73.5371

File: BZ1503107-1_t18.asc
PE IR       SPECTRUM    SPECTRUM    ASCII       PEDS        1.60
  -1
BZ296B~1.ASC
17/04/07
14:39:36.00
17/04/07
14:40:02.00
tln
$BZ1503107-1_t0018$<tbV0>[-2.6,-10.4,8.0,0.0,27,1,0]
27.028
64

2002,4.07
MIRTGS : RIGHTBACK : INTERNAL 2
MIR : ON : INTERNAL 2
OPTKBR

0.200000
8
8.000000
FILLER
RATIO
SPECTRUM
UNLOCKED 256

DOUBLE
64
COMBINED
1
0
0

0.002000
RATIO

1
0
TRUE
51149
0
LEFT NOT FITTED RIGHT NOT FITTED 0
NONE
NONE
15600
12
4.427000
51148
TRUE
1 0 8 72 0 0 0 0

15798

#HDR
-1
-1
#GR
µM
%T
2.38419e-05
0.0
2.000000
0.002000
12515
8
70.5214
47.9483
#DATA
2.000000	 66.1167
2.084000	 65.982
2.168000	 64.5614
2.252000	 57.5919
2.336000	 65.0957
2.420000	 64.9516
2.504000	 64.8678
2.588000	 65.1347
2.672000	 65.2522
2.756000	 65.2876
2.840000	 65.0785
2.924000	 65.2404
3.008000	 65.3541
3.092000	 65.0076
3.176000	 65.1818
3.260000	 65.1587
3.344000	 64.9866
3.428000	 64.9521
3.512000	 65.0372
3.596000	 64.9498
3.680000	 65.0028
3.764000	 64.9253
3.848000	 64.9601
3.932000	 64.9113
4.016000	 64.9797
4.100000	 65.0108
4.184000	 65.0054
4.268000	 64.9027
4.352000	 64.8662
4.436000	 64.8832
4.520000	 64.8208
4.604000	 64.8874
4.688000	 64.844
4.772000	 64.76
4.856000	 64.8361
4.940000	 64.8173
5.024000	 64.6463
5.108000	 64.7565
5.192000	 64.7304
5.276000	 64.8538
5.359999	 64.7676
5.444000	 64.7153
5.528000	 64.7668
5.612000	 64.7123
5.696000	 64.7399
5.780000	 64.1489
5.864000	 64.6693
5.948000	 64.6975
6.032000	 64.6947
6.116000	 64.7664
6.200000	 64.5746
6.284000	 64.6443
6.368000	 64.6663
6.452000	 64.6533
6.536000	 64.6688
6.620000	 64.7512
6.704000	 64.6241
6.788000	 64.8037
6.872000	 64.4092
6.956000	 64.4647
7.040000	 64.3993
7.124000	 64.2383
7.208000	 64.3293
7.292000	 64.123
7.376000	 64.3671
7.460000	 64.3787
7.544000	 64.3021
7.628000	 64.2348
7.712000	 64.1866
7.796000	 64.2726
7.880000	 64.076
7.964000	 64.1998
8.048000	 64.0747
8.132000	 64.0362
8.216000	 64.1806
8.300000	 64.2423
8.384000	 64.1775
8.468000	 63.9504
8.552000	 63.8793
8.635999	 63.9149
8.719999	 64.1206
8.804000	 64.1422
8.888000	 64.2048
8.972000	 64.1494
9.056000	 64.0797
9.140000	 64.4701
9.224000	 64.3479
9.308000	 64.4428
9.391999	 63.9545
9.475999	 64.0761
9.560000	 64.0485
9.644000	 63.9556
9.728000	 64.0548
9.812000	 64.0773
9.896000	 64.0861
9.980000	 64.0935
10.064	64.1075
10.148	64.124
10.232	64.1062
10.316	64.2455
10.4	64.2927
10.484	64.1678
10.568	64.2048
10.652	64.0901
10.736	64.0802
10.82	64.0954
10.904	64.1279
10.988	64.1925
11.072	64.1847
11.156	64.1317
11.24	64.0466
11.324	64.1392
11.408	64.1671
11.492	64.0927
11.576	64.1622
11.66	64.1643
11.744	64.1866
11.828	64.2068
11.912	64.1266
11.996	63.9473
12.08	63.7878
12.164	63.9151
12.248	63.8038
12.332	63.8237
12.416	63.8768
12.5	63.8685
12.584	64.0778
12.668	64.181
12.752	64.285
12.836	64.1342
12.92	63.9695
13.004	63.9275
13.088	63.9111
13.172	63.9227
13.256	63.7103
13.34	63.7425
13.424	64.083
13.508	64.1585
13.592	64.1226
13.676	64.1218
13.76	64.1398
13.844	64.1718
13.928	64.0672
14.012	63.9658
14.096	63.8937
14.18	63.6192
14.264	63.3155
14.348	63.1737
14.432	63.2113
14.516	63.3931
14.6	63.5361
14.684	63.5535
14.768	63.6259
14.852	63.8544
14.936	64.0165
15.02	64.0493
15.104	64.0921
15.188	64.0137
15.272	63.7844
15.356	63.6105
15.44	63.596
15.524	63.7068
15.608	63.731
15.692	63.643
15.776	63.694
15.86	63.7913
15.944	63.6775
16.028	63.4903
16.112	63.4344
16.196	63.4708
16.28	63.5326
16.364	63.5664
16.448	63.4907
16.532	63.3653
16.616	63.3495
16.7	63.4416
16.784	63.5224
16.868	63.594
16.952	63.6758
17.036	63.6961
17.12	63.6462
17.204	63.6339
17.288	63.7881
17.372	64.105
17.456	64.3781
17.54	64.3695
17.624	64.1349
17.708	64.0417
17.792	64.3297
17.876	64.7693
17.96	64.8435
18.044	64.321
18.128	63.5799
18.212	63.2336
18.296	63.5426
18.38	64.2438
18.464	64.8321
18.548	64.9015
18.632	64.3778
18.716	63.5493
18.8	62.871
18.884	62.6383
18.968	62.8261
19.052	63.214
19.136	63.6564
19.22	64.1407
19.304	64.5868
19.388	64.7763
19.472	64.563
19.556	64.0884
19.64	63.691
19.724	63.6125
19.808	63.8134
19.892	64.0526
19.976	64.1317
20.06	64.0487
20.144	63.9482
20.228	63.9504
20.312	64.0419
20.396	64.1064
20.48	64.0468
20.564	63.8698
20.648	63.6823
20.732	63.608
20.816	63.7053
20.9	63.9371
20.984	64.1784
21.068	64.2853
21.152	64.1727
21.236	63.8587
21.32	63.4559
21.404	63.1045
21.488	62.9005
21.572	62.8541
21.656	62.8947
21.74	62.9228
21.824	62.8857
21.908	62.8249
21.992	62.8451
22.076	63.0374
22.16	63.4038
22.244	63.84
22.328	64.1916
22.412	64.3253
22.496	64.1932
22.58	63.8393
22.664	63.361
22.748	62.8733
22.832	62.471
22.916	62.228
23	62.174
23.084	62.2939
23.168	62.5287
23.252	62.7854
23.336	62.9431
23.42	62.9008
23.504	62.5998
23.588	62.082
23.672	61.4908
23.756	61.031
23.84	60.87
23.924	61.0529
24.008	61.4973
24.092	62.0438
24.176	62.5284
24.26	62.8662
24.344	63.0815
24.428	63.2668
24.512	63.4889
24.596	63.7394
24.68	63.9156
24.764	63.8577
24.848	63.4287
24.932	62.5633
25.016	61.3288
25.1	59.9113
25.184	58.6081
25.268	57.6894
25.352	57.2675
25.436	57.2747
25.52	57.477
25.604	57.5911
25.688	57.1896
25.772	56.1037
25.856	54.6274
25.94	53.7061
26.024	53.9143
26.108	54.5574
26.192	55.0562
26.276	55.5188
26.36	57.7959
26.444	62.4017
26.528	67.9709
26.612	69.8074
26.696	65.0168
26.78	55.4488
26.864	48.3384
26.948	51.0176
27.028	61.4735

File: BZ1503107-1_t18_cm-1.asc
PE IR       SPECTRUM    SPECTRUM    ASCII       PEDS        1.60
  -1
BZ60B1~1.ASC
17/04/07
14:39:36.00
17/04/07
14:39:36.00
tln
$BZ1503107-1_t0018$<tbV0>[-2.6,-10.4,8.0,0.0,27,1,0]
370
64

2002,4.07
MIRTGS : RIGHTBACK : INTERNAL 2
MIR : ON : INTERNAL 2
OPTKBR

0.200000
8
8.000000
FILLER
RATIO
SPECTRUM
UNLOCKED 256

DOUBLE
64
COMBINED
1
0
0

1.000000
RATIO

1
0
TRUE
51149
0
LEFT NOT FITTED RIGHT NOT FITTED 0
NONE
NONE
15600
12
4.427000
51148
TRUE
1 0 8 72 0 0 0 0

15798

#HDR
-1
-1
#GR
CM-1
%T
2.38419e-05
0.0
5000
-1.000000
4631
8
70.4983
47.9527
#DATA
5000	66.1167
4984	61.7428
4968	65.4749
4952	64.8317
4936	65.8178
4920	64.3135
4904	64.8087
4888	65.524
4872	64.9729
4856	65.3087
4840	65.0463
4824	64.9463
4808	64.8224
4792	65.2091
4776	64.7518
4760	65.2737
4744	64.6054
4728	64.5541
4712	64.8454
4696	64.4021
4680	65.1235
4664	64.9112
4648	65.151
4632	64.6921
4616	64.4959
4600	65.0473
4584	65.1815
4568	64.7631
4552	64.2773
4536	64.9522
4520	65.1493
4504	65.4659
4488	68.6191
4472	65.5649
4456	63.9869
4440	56.9327
4424	61.0077
4408	66.1098
4392	64.8744
4376	65.3881
4360	65.5176
4344	65.6814
4328	65.1433
4312	65.6292
4296	65.1676
4280	65.0818
4264	64.9347
4248	65.0559
4232	65.0956
4216	65.0908
4200	65.2881
4184	64.7572
4168	65.1914
4152	65.0195
4136	64.9627
4120	64.9692
4104	65.2456
4088	65.029
4072	64.9381
4056	65.2905
4040	65.0824
4024	64.949
4008	64.662
3992	64.8854
3976	65.1489
3960	65.2957
3944	65.0869
3928	64.8491
3912	65.2315
3896	65.1158
3880	65.1791
3864	65.1343
3848	65.1971
3832	65.243
3816	64.9357
3800	65.2704
3784	65.0267
3768	64.9602
3752	65.396
3736	65.2071
3720	65.1736
3704	65.187
3688	65.2313
3672	65.4404
3656	65.1538
3640	65.1552
3624	65.2905
3608	65.3311
3592	65.1714
3576	65.2588
3560	64.9553
3544	65.1498
3528	64.9487
3512	65.141
3496	65.0773
3480	65.2259
3464	64.8993
3448	65.1695
3432	65.1827
3416	65.213
3400	65.0787
3384	65.1747
3368	65.1205
3352	65.0803
3336	65.1385
3320	65.2893
3304	65.0903
3288	65.0925
3272	65.016
3256	64.9729
3240	64.8805
3224	65.0548
3208	65.0704
3192	65.0239
3176	65.1263
3160	65.3292
3144	65.1235
3128	65.1213
3112	64.9915
3096	65.0702
3080	65.0742
3064	65.0746
3048	65.0697
3032	65.0688
3016	65.2148
3000	65.2465
2984	64.9624
2968	64.9738
2952	64.9542
2936	64.929
2920	64.9346
2904	64.8265
2888	64.9864
2872	64.9131
2856	64.8808
2840	65.0638
2824	64.9615
2808	64.9792
2792	64.9385
2776	64.9503
2760	65.0134
2744	65.0102
2728	65.0535
2712	65.0084
2696	65.0699
2680	64.9695
2664	64.9293
2648	64.8136
2632	64.9544
2616	64.9543
2600	64.9406
2584	65.0041
2568	65.0467
2552	65.0639
2536	64.9998
2520	65.0356
2504	65.1052
2488	65.0434
2472	65.0551
2456	65.0044
2440	65.0027
2424	65.1123
2408	65.0113
2392	64.9981
2376	64.9356
2360	64.942
2344	64.9162
2328	64.8605
2312	65.0463
2296	64.8776
2280	64.9076
2264	64.8855
2248	64.9545
2232	64.826
2216	64.8563
2200	64.8345
2184	64.829
2168	64.936
2152	64.7181
2136	64.8381
2120	64.8188
2104	64.7742
2088	64.7317
2072	64.8038
2056	64.7725
2040	64.8372
2024	64.82
2008	64.8611
1992	64.6586
1976	64.7984
1960	64.7294
1944	64.8617
1928	64.7285
1912	64.7519
1896	64.8531
1880	64.677
1864	64.7296
1848	64.8307
1832	64.75
1816	64.7891
1800	64.801
1784	64.7224
1768	64.745
1752	64.6902
1736	64.1569
1720	64.4057
1704	64.7386
1688	64.7059
1672	64.6817
1656	64.7207
1640	64.7203
1624	64.6389
1608	64.5188
1592	64.6386
1576	64.7889
1560	64.8635
1544	64.6627
1528	64.7032
1512	64.7138
1496	64.6572
1480	64.6339
1464	64.577
1448	64.3081
1432	64.3549
1416	64.4085
1400	64.293
1384	64.3332
1368	64.1368
1352	64.3578
1336	64.3308
1320	64.2378
1304	64.2771
1288	64.2995
1272	64.1383
1256	64.1978
1240	64.0948
1224	64.177
1208	64.206
1192	64.1722
1176	63.8894
1160	63.8846
1144	64.1349
1128	64.1777
1112	64.1363
1096	64.4108
1080	64.4316
1064	63.9429
1048	64.1281
1032	64.0369
1016	64.0516
1000	64.0602
984	 64.1186
968	 64.266
952	 64.1793
936	 64.0983
920	 64.1282
904	 64.1962
888	 64.0571
872	 64.0987
856	 64.1774
840	 64.1406
824	 63.8726
808	 63.8807
792	 64.138
776	 64.0095
760	 63.9348
744	 64.1253
728	 64.1288
712	 63.9508
696	 63.1659
680	 63.5575
664	 64.0705
648	 63.59
632	 63.7654
616	 63.4972
600	 63.4011
584	 63.6441
568	 64.189
552	 63.6743
536	 64.1456
520	 64.2034
504	 63.9186
488	 64.0276
472	 64.0633
456	 62.8176
440	 62.989
424	 62.1031
408	 63.4826
392	 57.4529
376	 69.9927
370	 61.4735