Folder: Masteroppgave/Bakgrunnsmateriale/MATLAB/FTIR/ftir_data/subAa/Mapping_121 (part 19)

File: BZ1503107-1_t39.asc
PE IR       SPECTRUM    SPECTRUM    ASCII       PEDS        1.60
  -1
BZ2D67~1.ASC
17/04/07
16:24:22.00
17/04/07
16:24:49.00
tln
$BZ1503107-1_t0039$<tbV0>[0.0,-5.2,8.0,0.0,27,1,0]
27.028
64

2002,4.07
MIRTGS : RIGHTBACK : INTERNAL 2
MIR : ON : INTERNAL 2
OPTKBR

0.200000
8
8.000000
FILLER
RATIO
SPECTRUM
UNLOCKED 256

DOUBLE
64
COMBINED
1
0
0

0.002000
RATIO

1
0
TRUE
51149
0
LEFT NOT FITTED RIGHT NOT FITTED 0
NONE
NONE
15600
12
4.427000
51148
TRUE
1 0 8 72 0 0 0 0

15798

#HDR
-1
-1
#GR
µM
%T
2.38419e-05
0.0
2.000000
0.002000
12515
8
77.5648
36.1422
#DATA
2.000000	 65.7692
2.084000	 64.9027
2.168000	 64.5585
2.252000	 66.4866
2.336000	 64.8031
2.420000	 65.0789
2.504000	 65.1615
2.588000	 64.9772
2.672000	 65.0263
2.756000	 65.261
2.840000	 64.9976
2.924000	 65.2655
3.008000	 65.2798
3.092000	 65.0148
3.176000	 65.1395
3.260000	 65.0754
3.344000	 65.0546
3.428000	 65.007
3.512000	 64.9677
3.596000	 65.0106
3.680000	 64.9736
3.764000	 65.0289
3.848000	 64.9694
3.932000	 64.8204
4.016000	 64.8025
4.100000	 64.88
4.184000	 64.8666
4.268000	 64.905
4.352000	 64.8125
4.436000	 64.7767
4.520000	 64.7318
4.604000	 64.802
4.688000	 64.8013
4.772000	 64.7522
4.856000	 64.7852
4.940000	 64.6446
5.024000	 64.6956
5.108000	 64.6821
5.192000	 64.5969
5.276000	 64.5282
5.359999	 64.5947
5.444000	 64.5751
5.528000	 64.4963
5.612000	 64.5219
5.696000	 64.3161
5.780000	 64.1557
5.864000	 64.3675
5.948000	 64.3703
6.032000	 64.2707
6.116000	 64.3758
6.200000	 64.1883
6.284000	 64.3295
6.368000	 64.1836
6.452000	 64.2968
6.536000	 64.2875
6.620000	 64.3673
6.704000	 64.3355
6.788000	 64.2562
6.872000	 64.1902
6.956000	 64.2744
7.040000	 64.2273
7.124000	 64.1025
7.208000	 64.1508
7.292000	 64.1915
7.376000	 64.1121
7.460000	 64.1823
7.544000	 64.0819
7.628000	 64.0445
7.712000	 64.075
7.796000	 64.1163
7.880000	 63.9843
7.964000	 64.0776
8.048000	 64.0356
8.132000	 63.9365
8.216000	 64.0263
8.300000	 63.7393
8.384000	 63.9607
8.468000	 64.0385
8.552000	 63.8254
8.635999	 63.8982
8.719999	 63.864
8.804000	 63.8642
8.888000	 63.8721
8.972000	 63.8851
9.056000	 63.8827
9.140000	 63.756
9.224000	 63.81
9.308000	 64.025
9.391999	 64.0078
9.475999	 63.8637
9.560000	 63.7208
9.644000	 63.8363
9.728000	 64.1748
9.812000	 63.8999
9.896000	 63.8092
9.980000	 63.952
10.064	63.8504
10.148	63.9063
10.232	63.9728
10.316	63.9182
10.4	63.9823
10.484	63.7905
10.568	63.8329
10.652	63.9083
10.736	64.0182
10.82	64.1056
10.904	64.1587
10.988	63.873
11.072	63.9323
11.156	63.9293
11.24	63.8483
11.324	63.9542
11.408	63.9914
11.492	64.0283
11.576	64.1653
11.66	63.9036
11.744	63.7923
11.828	63.8498
11.912	63.7685
11.996	63.8263
12.08	64.0088
12.164	63.7706
12.248	63.6847
12.332	63.8839
12.416	63.8902
12.5	63.7784
12.584	64.0075
12.668	63.8526
12.752	63.8197
12.836	63.7879
12.92	63.7729
13.004	63.7166
13.088	63.5835
13.172	63.6715
13.256	63.5685
13.34	63.4324
13.424	63.4389
13.508	63.5517
13.592	63.6839
13.676	63.796
13.76	63.8425
13.844	63.7224
13.928	63.5671
14.012	63.4527
14.096	63.4759
14.18	63.4494
14.264	63.2778
14.348	63.1717
14.432	63.6128
14.516	64.1168
14.6	63.9203
14.684	63.6828
14.768	63.7965
14.852	63.7884
14.936	63.6875
15.02	63.642
15.104	63.4758
15.188	63.2006
15.272	63.1997
15.356	63.4326
15.44	63.3415
15.524	63.2087
15.608	63.6268
15.692	64.2041
15.776	64.2499
15.86	63.7012
15.944	63.2247
16.028	63.3213
16.112	63.6121
16.196	63.6723
16.28	63.6105
16.364	63.5181
16.448	63.456
16.532	63.6516
16.616	64.1119
16.7	64.4769
16.784	64.4752
16.868	64.2429
16.952	64.0574
17.036	63.956
17.12	63.8197
17.204	63.6906
17.288	63.6947
17.372	63.8168
17.456	63.9168
17.54	63.857
17.624	63.6234
17.708	63.3715
17.792	63.3093
17.876	63.4926
17.96	63.8046
18.044	64.1011
18.128	64.2698
18.212	64.2456
18.296	64.0362
18.38	63.711
18.464	63.3802
18.548	63.1704
18.632	63.1647
18.716	63.3331
18.8	63.5549
18.884	63.735
18.968	63.8489
19.052	63.8804
19.136	63.7919
19.22	63.581
19.304	63.3168
19.388	63.1075
19.472	63.0497
19.556	63.1882
19.64	63.4843
19.724	63.8047
19.808	63.9774
19.892	63.9134
19.976	63.6789
20.06	63.4463
20.144	63.3567
20.228	63.428
20.312	63.5688
20.396	63.6804
20.48	63.7431
20.564	63.8088
20.648	63.9074
20.732	63.9844
20.816	63.9263
20.9	63.6639
20.984	63.2438
21.068	62.8002
21.152	62.4598
21.236	62.2672
21.32	62.1928
21.404	62.1889
21.488	62.2345
21.572	62.3231
21.656	62.4406
21.74	62.56
21.824	62.6635
21.908	62.7614
21.992	62.8787
22.076	63.0253
22.16	63.1776
22.244	63.2876
22.328	63.328
22.412	63.3002
22.496	63.2298
22.58	63.1209
22.664	62.9428
22.748	62.6581
22.832	62.269
22.916	61.8389
23	61.4769
23.084	61.2568
23.168	61.1881
23.252	61.2176
23.336	61.2592
23.42	61.2826
23.504	61.3334
23.588	61.5
23.672	61.8527
23.756	62.4075
23.84	63.1026
23.924	63.8381
24.008	64.5088
24.092	65.0244
24.176	65.3455
24.26	65.4628
24.344	65.3739
24.428	65.0589
24.512	64.4657
24.596	63.514
24.68	62.1363
24.764	60.3571
24.848	58.31
24.932	56.3381
25.016	54.912
25.1	54.3944
25.184	55.037
25.268	56.8378
25.352	59.4993
25.436	62.5554
25.52	65.5586
25.604	68.2326
25.688	70.5171
25.772	72.5104
25.856	74.3112
25.94	75.8937
26.024	77.0689
26.108	77.5627
26.192	77.1697
26.276	75.85
26.36	73.8418
26.444	71.5074
26.528	69.0922
26.612	66.6374
26.696	63.7541
26.78	59.7185
26.864	53.7841
26.948	45.6075
27.028	36.1422

File: BZ1503107-1_t39_cm-1.asc
PE IR       SPECTRUM    SPECTRUM    ASCII       PEDS        1.60
  -1
BZ61B0~1.ASC
17/04/07
16:24:22.00
17/04/07
16:24:22.00
tln
$BZ1503107-1_t0039$<tbV0>[0.0,-5.2,8.0,0.0,27,1,0]
370
64

2002,4.07
MIRTGS : RIGHTBACK : INTERNAL 2
MIR : ON : INTERNAL 2
OPTKBR

0.200000
8
8.000000
FILLER
RATIO
SPECTRUM
UNLOCKED 256

DOUBLE
64
COMBINED
1
0
0

1.000000
RATIO

1
0
TRUE
51149
0
LEFT NOT FITTED RIGHT NOT FITTED 0
NONE
NONE
15600
12
4.427000
51148
TRUE
1 0 8 72 0 0 0 0

15798

#HDR
-1
-1
#GR
CM-1
%T
2.38419e-05
0.0
5000
-1.000000
4631
8
77.5638
36.1422
#DATA
5000	65.7692
4984	64.9482
4968	64.5648
4952	64.7246
4936	64.2405
4920	64.0608
4904	64.7668
4888	64.6245
4872	64.6846
4856	64.9132
4840	65.0367
4824	64.439
4808	65.0628
4792	64.7674
4776	64.6419
4760	65.2973
4744	65.0645
4728	64.8723
4712	65.12
4696	65.1111
4680	64.7423
4664	64.9276
4648	64.9518
4632	64.789
4616	64.6072
4600	64.6579
4584	65.0301
4568	64.5346
4552	64.5642
4536	64.4026
4520	64.7526
4504	64.1602
4488	64.5931
4472	64.5822
4456	64.6501
4440	66.5566
4424	55.9167
4408	72.077
4392	65.0334
4376	64.8879
4360	64.6595
4344	64.5076
4328	64.4857
4312	64.5849
4296	65.1174
4280	64.7437
4264	64.9025
4248	64.7236
4232	65.1481
4216	65.062
4200	65.1845
4184	64.7998
4168	64.9597
4152	65.1314
4136	65.1581
4120	65.0604
4104	65.0791
4088	65.0047
4072	65.2561
4056	65.1947
4040	65.0372
4024	65.3072
4008	65.2882
3992	65.1613
3976	65.099
3960	64.9133
3944	65.1424
3928	65.1638
3912	65.1003
3896	65.1603
3880	64.8426
3864	64.9772
3848	65.0349
3832	64.8394
3816	65.0547
3800	65.2659
3784	65.097
3768	65.3528
3752	65.0068
3736	64.5684
3720	65.3796
3704	65.0747
3688	65.1547
3672	65.115
3656	65.1754
3640	65.0577
3624	65.2814
3608	65.3474
3592	65.2538
3576	65.1018
3560	65.0058
3544	65.0289
3528	65.1077
3512	65.2603
3496	65.2097
3480	64.8829
3464	65.1874
3448	65.0314
3432	65.0064
3416	65.1932
3400	65.1585
3384	65.2195
3368	65.0893
3352	65.0674
3336	65.1799
3320	65.1603
3304	65.1238
3288	64.9807
3272	65.2361
3256	64.9763
3240	65.1096
3224	65.1235
3208	65.1551
3192	64.9095
3176	65.0512
3160	65.0898
3144	64.9752
3128	65.0281
3112	65.0652
3096	65.0143
3080	65.0759
3064	65.1563
3048	65.0882
3032	65.0078
3016	65.2043
3000	65.1052
2984	65.094
2968	64.8654
2952	64.9733
2936	64.7998
2920	64.9636
2904	64.9969
2888	65.0149
2872	64.957
2856	65.0944
2840	64.9615
2824	65.1207
2808	64.9625
2792	65.2149
2776	65.0077
2760	65.0002
2744	64.9424
2728	64.9094
2712	65.0022
2696	65.0355
2680	65.0561
2664	64.8535
2648	64.9532
2632	64.949
2616	64.8715
2600	64.9882
2584	64.9884
2568	64.8944
2552	64.8706
2536	64.9316
2520	64.8449
2504	65.0489
2488	64.8471
2472	64.9341
2456	64.7711
2440	64.8521
2424	64.9538
2408	64.9137
2392	64.8747
2376	64.7006
2360	64.8326
2344	64.9162
2328	64.8962
2312	64.786
2296	64.8225
2280	64.7851
2264	64.7644
2248	64.7791
2232	64.8303
2216	64.7534
2200	64.8791
2184	64.8203
2168	64.7943
2152	64.7145
2136	64.796
2120	64.6999
2104	64.6855
2088	64.7434
2072	64.6884
2056	64.7767
2040	64.6727
2024	64.6418
2008	64.6768
1992	64.693
1976	64.6389
1960	64.6792
1944	64.7233
1928	64.6195
1912	64.5395
1896	64.5249
1880	64.5984
1864	64.5818
1848	64.6726
1832	64.4787
1816	64.5421
1800	64.5622
1784	64.4962
1768	64.4409
1752	64.3046
1736	64.1674
1720	64.4816
1704	64.3893
1688	64.432
1672	64.482
1656	64.2547
1640	64.3035
1624	64.3122
1608	64.2495
1592	64.3347
1576	64.1348
1560	64.2487
1544	64.3439
1528	64.2623
1512	64.3665
1496	64.3061
1480	64.2772
1464	64.2507
1448	64.2719
1432	64.1824
1416	64.2094
1400	64.1333
1384	64.12
1368	64.0952
1352	64.1033
1336	64.1406
1320	64.1072
1304	64.0735
1288	64.0699
1272	64.0131
1256	64.0684
1240	64.0326
1224	63.8704
1208	63.8054
1192	63.9627
1176	63.9566
1160	63.9264
1144	63.8837
1128	63.8978
1112	63.8255
1096	63.7793
1080	63.849
1064	63.9936
1048	63.7678
1032	64.0152
1016	63.7628
1000	63.9465
984	 63.9318
968	 63.9149
952	 63.7748
936	 63.9971
920	 64.2161
904	 63.9212
888	 63.8268
872	 63.9636
856	 63.8487
840	 63.7789
824	 63.8763
808	 63.9395
792	 63.9762
776	 63.751
760	 63.6614
744	 63.4528
728	 63.849
712	 63.4513
696	 63.2193
680	 63.6949
664	 63.5864
648	 63.3642
632	 63.9864
616	 63.6483
600	 64.3695
584	 63.8137
568	 63.6839
552	 64.2566
536	 63.2007
520	 63.5481
504	 63.9804
488	 63.7509
472	 62.3636
456	 62.7891
440	 62.7393
424	 61.4908
408	 64.4856
392	 65.2235
376	 67.1311
370	 36.1422

File: BZ1503107-1_t40.asc
PE IR       SPECTRUM    SPECTRUM    ASCII       PEDS        1.60
  -1
BZ294D~1.ASC
17/04/07
16:29:00.00
17/04/07
16:29:26.00
tln
$BZ1503107-1_t0040$<tbV0>[-2.6,-5.2,8.0,0.0,27,1,0]
27.028
64

2002,4.07
MIRTGS : RIGHTBACK : INTERNAL 2
MIR : ON : INTERNAL 2
OPTKBR

0.200000
8
8.000000
FILLER
RATIO
SPECTRUM
UNLOCKED 256

DOUBLE
64
COMBINED
1
0
0

0.002000
RATIO

1
0
TRUE
51149
0
LEFT NOT FITTED RIGHT NOT FITTED 0
NONE
NONE
15600
12
4.427000
51148
TRUE
1 0 8 72 0 0 0 0

15798

#HDR
-1
-1
#GR
µM
%T
2.38419e-05
0.0
2.000000
0.002000
12515
8
76.0443
46.1894
#DATA
2.000000	 65.4353
2.084000	 64.5807
2.168000	 64.6446
2.252000	 64.9662
2.336000	 64.7259
2.420000	 65.3425
2.504000	 65.4187
2.588000	 65.175
2.672000	 65.0718
2.756000	 65.1624
2.840000	 64.9707
2.924000	 65.1013
3.008000	 65.1695
3.092000	 64.9352
3.176000	 64.9613
3.260000	 65.0892
3.344000	 65.1902
3.428000	 65.1125
3.512000	 64.8617
3.596000	 65.009
3.680000	 65.1826
3.764000	 65.1248
3.848000	 64.9509
3.932000	 64.9705
4.016000	 64.8786
4.100000	 65.0247
4.184000	 64.9524
4.268000	 64.9667
4.352000	 64.8725
4.436000	 64.9543
4.520000	 64.8453
4.604000	 64.7058
4.688000	 64.7049
4.772000	 64.7103
4.856000	 64.7918
4.940000	 64.815
5.024000	 64.6044
5.108000	 64.7662
5.192000	 64.721
5.276000	 64.6999
5.359999	 64.6123
5.444000	 64.6721
5.528000	 64.6348
5.612000	 64.5865
5.696000	 64.4319
5.780000	 64.1644
5.864000	 64.4714
5.948000	 64.524
6.032000	 64.5359
6.116000	 64.4977
6.200000	 64.236
6.284000	 64.3638
6.368000	 64.2806
6.452000	 64.2639
6.536000	 64.4292
6.620000	 64.3816
6.704000	 64.4246
6.788000	 64.194
6.872000	 64.3485
6.956000	 64.3193
7.040000	 64.4653
7.124000	 64.2626
7.208000	 64.131
7.292000	 64.3293
7.376000	 64.215
7.460000	 64.1704
7.544000	 64.2716
7.628000	 64.114
7.712000	 64.1163
7.796000	 64.0334
7.880000	 64.0312
7.964000	 64.1098
8.048000	 64.0093
8.132000	 64.1202
8.216000	 64.1656
8.300000	 64.0505
8.384000	 64.0281
8.468000	 64.1251
8.552000	 63.9636
8.635999	 64.0919
8.719999	 64.0515
8.804000	 63.9996
8.888000	 63.8001
8.972000	 64.0954
9.056000	 63.9352
9.140000	 63.9344
9.224000	 63.9448
9.308000	 63.9244
9.391999	 63.89
9.475999	 63.9404
9.560000	 63.8149
9.644000	 63.7974
9.728000	 63.9479
9.812000	 63.8783
9.896000	 63.8064
9.980000	 63.9435
10.064	64.0524
10.148	63.9818
10.232	63.9311
10.316	63.8954
10.4	63.9243
10.484	63.9528
10.568	63.7252
10.652	63.9256
10.736	63.9866
10.82	64.1395
10.904	64.1287
10.988	63.8748
11.072	63.8212
11.156	63.8995
11.24	63.8705
11.324	63.8772
11.408	64.1312
11.492	64.1413
11.576	63.9886
11.66	63.9715
11.744	63.9698
11.828	63.7507
11.912	63.8735
11.996	63.8876
12.08	63.8543
12.164	63.909
12.248	63.7445
12.332	63.6857
12.416	63.8547
12.5	64.0902
12.584	64.0106
12.668	63.9378
12.752	64.1465
12.836	64.1377
12.92	63.8908
13.004	63.6808
13.088	63.6435
13.172	63.6247
13.256	63.6247
13.34	63.6224
13.424	63.8024
13.508	64.0674
13.592	63.9051
13.676	63.7284
13.76	63.888
13.844	63.9545
13.928	63.8363
14.012	63.5895
14.096	63.4909
14.18	63.933
14.264	64.1275
14.348	63.6959
14.432	63.4257
14.516	63.5705
14.6	63.6483
14.684	63.5464
14.768	63.6339
14.852	63.7257
14.936	63.5845
15.02	63.3118
15.104	63.0734
15.188	63.2189
15.272	63.5187
15.356	63.5437
15.44	63.4921
15.524	63.529
15.608	63.5251
15.692	63.3762
15.776	63.0948
15.86	62.8885
15.944	63.0935
16.028	63.5957
16.112	63.7448
16.196	63.2871
16.28	62.7592
16.364	62.6123
16.448	62.7258
16.532	62.9433
16.616	63.3323
16.7	63.8228
16.784	64.1369
16.868	64.1278
16.952	63.9003
17.036	63.633
17.12	63.4802
17.204	63.5643
17.288	63.8511
17.372	64.0799
17.456	63.966
17.54	63.5031
17.624	62.9934
17.708	62.7586
17.792	62.8679
17.876	63.1443
17.96	63.4247
18.044	63.6893
18.128	63.9056
18.212	63.9743
18.296	63.8733
18.38	63.704
18.464	63.578
18.548	63.525
18.632	63.503
18.716	63.472
18.8	63.4464
18.884	63.4771
18.968	63.5913
19.052	63.7462
19.136	63.8435
19.22	63.8052
19.304	63.651
19.388	63.477
19.472	63.3707
19.556	63.3741
19.64	63.4988
19.724	63.7232
19.808	63.9744
19.892	64.1621
19.976	64.2293
20.06	64.1741
20.144	64.0377
20.228	63.8763
20.312	63.7348
20.396	63.6351
20.48	63.5792
20.564	63.5509
20.648	63.5178
20.732	63.4359
20.816	63.2783
20.9	63.0644
20.984	62.8691
21.068	62.7808
21.152	62.8402
21.236	63.0102
21.32	63.2107
21.404	63.3816
21.488	63.5179
21.572	63.6427
21.656	63.7481
21.74	63.7757
21.824	63.6475
21.908	63.3306
21.992	62.8789
22.076	62.4121
22.16	62.0592
22.244	61.8932
22.328	61.9164
22.412	62.0789
22.496	62.3102
22.58	62.5416
22.664	62.7122
22.748	62.7887
22.832	62.7854
22.916	62.7528
23	62.7665
23.084	62.8625
23.168	63.0164
23.252	63.1581
23.336	63.2039
23.42	63.1412
23.504	63.0284
23.588	62.9772
23.672	63.0853
23.756	63.3764
23.84	63.8109
23.924	64.3049
24.008	64.7529
24.092	65.0503
24.176	65.139
24.26	64.96
24.344	64.4676
24.428	63.6539
24.512	62.5388
24.596	61.151
24.68	59.5473
24.764	57.8353
24.848	56.129
24.932	54.551
25.016	53.1928
25.1	52.0826
25.184	51.1472
25.268	50.2568
25.352	49.3203
25.436	48.2938
25.52	47.2898
25.604	46.6217
25.688	46.8111
25.772	48.4309
25.856	51.8418
25.94	56.9592
26.024	63.1002
26.108	69.075
26.192	73.6599
26.276	75.9053
26.36	75.3683
26.444	72.2305
26.528	67.2059
26.612	61.1911
26.696	55.2017
26.78	50.1987
26.864	47.014
26.948	46.2428
27.028	47.9493

File: BZ1503107-1_t40_cm-1.asc
PE IR       SPECTRUM    SPECTRUM    ASCII       PEDS        1.60
  -1
BZ6824~1.ASC
17/04/07
16:29:00.00
17/04/07
16:29:00.00
tln
$BZ1503107-1_t0040$<tbV0>[-2.6,-5.2,8.0,0.0,27,1,0]
370
64

2002,4.07
MIRTGS : RIGHTBACK : INTERNAL 2
MIR : ON : INTERNAL 2
OPTKBR

0.200000
8
8.000000
FILLER
RATIO
SPECTRUM
UNLOCKED 256

DOUBLE
64
COMBINED
1
0
0

1.000000
RATIO

1
0
TRUE
51149
0
LEFT NOT FITTED RIGHT NOT FITTED 0
NONE
NONE
15600
12
4.427000
51148
TRUE
1 0 8 72 0 0 0 0

15798

#HDR
-1
-1
#GR
CM-1
%T
2.38419e-05
0.0
5000
-1.000000
4631
8
76.0082
46.2908
#DATA
5000	65.4353
4984	65.2116
4968	64.7333
4952	64.3918
4936	64.5999
4920	64.2943
4904	64.7498
4888	64.9598
4872	65.1396
4856	65.2569
4840	64.8201
4824	65.1222
4808	65.0732
4792	64.7567
4776	65.527
4760	65.273
4744	65.1141
4728	65.0752
4712	65.5567
4696	65.2892
4680	64.9841
4664	64.938
4648	65.0985
4632	65.0477
4616	64.8848
4600	64.4896
4584	64.5623
4568	64.8014
4552	64.8574
4536	64.7147
4520	63.9122
4504	64.4098
4488	64.4262
4472	64.3842
4456	65.1298
4440	65.1827
4424	73.2977
4408	69.5192
4392	64.9069
4376	65.0719
4360	64.9196
4344	64.6039
4328	64.1841
4312	64.5062
4296	65.0131
4280	64.7175
4264	65.0533
4248	64.9076
4232	65.1292
4216	65.1672
4200	65.0658
4184	65.1055
4168	65.1176
4152	65.1598
4136	65.2173
4120	65.0499
4104	65.2374
4088	65.2735
4072	65.3294
4056	64.9843
4040	65.0352
4024	65.1005
4008	65.3898
3992	65.4428
3976	65.2859
3960	65.1429
3944	65.2946
3928	64.7032
3912	65.0971
3896	65.3042
3880	64.9765
3864	65.1753
3848	65.1461
3832	65.2383
3816	65.1555
3800	65.3879
3784	65.0475
3768	65.3209
3752	65.1915
3736	65.3438
3720	65.3538
3704	65.4109
3688	65.1626
3672	65.3358
3656	65.2069
3640	65.2168
3624	65.0777
3608	65.2348
3592	65.3661
3576	65.2003
3560	65.2822
3544	65.1632
3528	64.9229
3512	65.212
3496	65.1773
3480	65.0685
3464	65.1961
3448	65.1366
3432	65.1357
3416	65.1137
3400	65.29
3384	65.243
3368	65.238
3352	65.2669
3336	65.2176
3320	65.0902
3304	65.1067
3288	65.0537
3272	65.2834
3256	65.0402
3240	65.0486
3224	65.2168
3208	65.136
3192	64.9209
3176	65.1575
3160	65.1796
3144	64.9022
3128	65.135
3112	65.1603
3096	65.2603
3080	65.1248
3064	65.1106
3048	65.1527
3032	64.9313
3016	64.9734
3000	65.2499
2984	65.1597
2968	65.0275
2952	65.0793
2936	64.9821
2920	65.1329
2904	65.1785
2888	65.0999
2872	65.1299
2856	64.9981
2840	64.9894
2824	65.0373
2808	65.0367
2792	65.1476
2776	65.0743
2760	65.1935
2744	65.2012
2728	65.1051
2712	65.1117
2696	65.0776
2680	65.0075
2664	65.0058
2648	65.0742
2632	65.0528
2616	64.9847
2600	64.9498
2584	64.952
2568	64.9321
2552	64.9106
2536	64.9987
2520	64.9918
2504	64.936
2488	64.8696
2472	64.8934
2456	64.8092
2440	65.0178
2424	64.8019
2408	65.0544
2392	64.9289
2376	64.9216
2360	64.8793
2344	64.9543
2328	64.8777
2312	64.8758
2296	64.8687
2280	64.9843
2264	64.8459
2248	64.8525
2232	64.9727
2216	64.8235
2200	64.9538
2184	64.8611
2168	64.6772
2152	64.724
2136	64.713
2120	64.8292
2104	64.7459
2088	64.6705
2072	64.7212
2056	64.783
2040	64.7782
2024	64.8199
2008	64.8216
1992	64.6154
1976	64.6864
1960	64.7797
1944	64.6799
1928	64.7146
1912	64.7369
1896	64.6925
1880	64.6927
1864	64.615
1848	64.6446
1832	64.6944
1816	64.7031
1800	64.6549
1784	64.5923
1768	64.5468
1752	64.429
1736	64.218
1720	64.3349
1704	64.4789
1688	64.5684
1672	64.4988
1656	64.5695
1640	64.4647
1624	64.3158
1608	64.3953
1592	64.3691
1576	64.1243
1560	64.3247
1544	64.2898
1528	64.426
1512	64.42
1496	64.4029
1480	64.3986
1464	64.3294
1448	64.3719
1432	64.2669
1416	64.3715
1400	64.304
1384	64.178
1368	64.3073
1352	64.1641
1336	64.2596
1320	64.1738
1304	64.1851
1288	64.1337
1272	64.0214
1256	64.1125
1240	64.0339
1224	64.0148
1208	64.1115
1192	64.0222
1176	64.0792
1160	64.0798
1144	64.0592
1128	63.8157
1112	64.0658
1096	63.9304
1080	63.9313
1064	63.8902
1048	63.8899
1032	63.8313
1016	63.7899
1000	63.9946
984	 63.9755
968	 63.878
952	 63.8624
936	 63.9533
920	 64.1654
904	 63.8121
888	 63.8472
872	 64.155
856	 64.0059
840	 63.8541
824	 63.9276
808	 63.7437
792	 63.9297
776	 64.0047
760	 63.626
744	 63.8676
728	 63.8322
712	 63.495
696	 63.5897
680	 63.5443
664	 63.1693
648	 63.4926
632	 62.9467
616	 63.0175
600	 63.6331
584	 63.4786
568	 63.09
552	 63.8815
536	 63.4955
520	 63.7904
504	 64.0608
488	 63.5741
472	 62.901
456	 63.2223
440	 62.7785
424	 62.9765
408	 62.5715
392	 47.3956
376	 62.3746
370	 47.9493

File: BZ1503107-1_t41.asc
PE IR       SPECTRUM    SPECTRUM    ASCII       PEDS        1.60
  -1
BZ2D4D~1.ASC
17/04/07
16:33:37.00
17/04/07
16:34:03.00
tln
$BZ1503107-1_t0041$<tbV0>[-5.2,-5.2,8.0,0.0,27,1,0]
27.028
64

2002,4.07
MIRTGS : RIGHTBACK : INTERNAL 2
MIR : ON : INTERNAL 2
OPTKBR

0.200000
8
8.000000
FILLER
RATIO
SPECTRUM
UNLOCKED 256

DOUBLE
64
COMBINED
1
0
0

0.002000
RATIO

1
0
TRUE
51149
0
LEFT NOT FITTED RIGHT NOT FITTED 0
NONE
NONE
15600
12
4.427000
51148
TRUE
1 0 8 72 0 0 0 0

15798

#HDR
-1
-1
#GR
µM
%T
2.38419e-05
0.0
2.000000
0.002000
12515
8
81.2935
37.7527
#DATA
2.000000	 65.3207
2.084000	 65.0164
2.168000	 64.966
2.252000	 65.5666
2.336000	 65.3272
2.420000	 64.9932
2.504000	 65.2474
2.588000	 65.2292
2.672000	 65.3551
2.756000	 65.4185
2.840000	 65.2836
2.924000	 65.6585
3.008000	 65.1122
3.092000	 65.084
3.176000	 65.1694
3.260000	 65.0696
3.344000	 65.0545
3.428000	 65.0576
3.512000	 64.954
3.596000	 65.0493
3.680000	 65.112
3.764000	 65.0785
3.848000	 64.9935
3.932000	 65.0307
4.016000	 64.9422
4.100000	 64.9156
4.184000	 65.0317
4.268000	 65.0308
4.352000	 64.8682
4.436000	 64.7966
4.520000	 64.8397
4.604000	 64.7021
4.688000	 64.8265
4.772000	 64.7924
4.856000	 64.7062
4.940000	 64.8988
5.024000	 64.6938
5.108000	 64.6818
5.192000	 64.7668
5.276000	 64.6073
5.359999	 64.6975
5.444000	 64.6309
5.528000	 64.6324
5.612000	 64.5461
5.696000	 64.4484
5.780000	 64.3605
5.864000	 64.5305
5.948000	 64.3918
6.032000	 64.4751
6.116000	 64.4288
6.200000	 64.3398
6.284000	 64.3517
6.368000	 64.2439
6.452000	 64.3649
6.536000	 64.3242
6.620000	 64.464
6.704000	 64.3773
6.788000	 64.3318
6.872000	 64.4381
6.956000	 64.4506
7.040000	 64.3272
7.124000	 64.333
7.208000	 64.1985
7.292000	 64.2199
7.376000	 64.2109
7.460000	 64.262
7.544000	 64.2694
7.628000	 64.3308
7.712000	 64.0937
7.796000	 64.1279
7.880000	 64.1486
7.964000	 64.0244
8.048000	 64.1066
8.132000	 64.0395
8.216000	 64.1056
8.300000	 63.8943
8.384000	 64.1474
8.468000	 64.1114
8.552000	 63.8606
8.635999	 63.9549
8.719999	 64.0281
8.804000	 63.9698
8.888000	 63.8622
8.972000	 64.2866
9.056000	 64.2424
9.140000	 63.9324
9.224000	 63.9418
9.308000	 63.9344
9.391999	 63.9839
9.475999	 63.9498
9.560000	 63.855
9.644000	 63.9065
9.728000	 63.9935
9.812000	 63.8673
9.896000	 63.9057
9.980000	 63.9883
10.064	64.1951
10.148	64.0108
10.232	64.2711
10.316	64.0105
10.4	63.9939
10.484	64.0895
10.568	63.9555
10.652	63.9951
10.736	64.0252
10.82	63.8894
10.904	63.9095
10.988	63.8664
11.072	63.9504
11.156	63.9912
11.24	64.0972
11.324	64.2832
11.408	64.1772
11.492	63.9284
11.576	63.9882
11.66	63.9514
11.744	64.0703
11.828	63.8769
11.912	64.0254
11.996	64.1101
12.08	64.004
12.164	63.8411
12.248	63.6995
12.332	63.8546
12.416	63.8313
12.5	63.829
12.584	64.053
12.668	64.1487
12.752	64.1263
12.836	64.0105
12.92	63.9604
13.004	63.9464
13.088	63.8184
13.172	63.8312
13.256	63.8527
13.34	63.6413
13.424	63.578
13.508	63.7292
13.592	63.8082
13.676	63.8015
13.76	63.7213
13.844	63.4853
13.928	63.5206
14.012	63.8128
14.096	63.9938
14.18	64.1654
14.264	64.0688
14.348	63.8714
14.432	64.1023
14.516	64.3197
14.6	63.941
14.684	63.327
14.768	63.1115
14.852	63.4134
14.936	63.7563
15.02	63.6516
15.104	63.1819
15.188	63.0242
15.272	63.421
15.356	63.7278
15.44	63.6459
15.524	63.5925
15.608	63.6606
15.692	63.5929
15.776	63.5146
15.86	63.6723
15.944	63.9518
16.028	64.1187
16.112	64.0136
16.196	63.6193
16.28	63.3094
16.364	63.485
16.448	63.8869
16.532	63.9701
16.616	63.7847
16.7	63.7015
16.784	63.6826
16.868	63.5511
16.952	63.3796
17.036	63.2765
17.12	63.2657
17.204	63.4157
17.288	63.7477
17.372	64.0892
17.456	64.2182
17.54	64.0884
17.624	63.8439
17.708	63.6607
17.792	63.6182
17.876	63.6856
17.96	63.787
18.044	63.8649
18.128	63.8915
18.212	63.8583
18.296	63.7552
18.38	63.5637
18.464	63.3153
18.548	63.1223
18.632	63.0854
18.716	63.1981
18.8	63.362
18.884	63.4643
18.968	63.4484
19.052	63.3469
19.136	63.2381
19.22	63.1655
19.304	63.101
19.388	63.0187
19.472	62.9738
19.556	63.0686
19.64	63.3293
19.724	63.6465
19.808	63.8549
19.892	63.8541
19.976	63.6527
20.06	63.3343
20.144	63.0136
20.228	62.8155
20.312	62.8344
20.396	63.0791
20.48	63.4547
20.564	63.8194
20.648	64.0832
20.732	64.2295
20.816	64.2638
20.9	64.1658
20.984	63.9131
21.068	63.5428
21.152	63.1552
21.236	62.8592
21.32	62.7223
21.404	62.7575
21.488	62.9404
21.572	63.2162
21.656	63.4857
21.74	63.6121
21.824	63.4748
21.908	63.0595
21.992	62.4996
22.076	62.0246
22.16	61.8507
22.244	62.0548
22.328	62.5362
22.412	63.0755
22.496	63.4392
22.58	63.5099
22.664	63.3082
22.748	62.9633
22.832	62.6214
22.916	62.3874
23	62.2939
23.084	62.3245
23.168	62.4502
23.252	62.6485
23.336	62.89
23.42	63.1457
23.504	63.3689
23.588	63.5097
23.672	63.5406
23.756	63.4646
23.84	63.28
23.924	62.9913
24.008	62.5958
24.092	62.0832
24.176	61.4787
24.26	60.8647
24.344	60.3651
24.428	60.0806
24.512	60.0604
24.596	60.239
24.68	60.4394
24.764	60.4331
24.848	60.0114
24.932	59.0718
25.016	57.6947
25.1	56.09
25.184	54.6073
25.268	53.6427
25.352	53.544
25.436	54.5253
25.52	56.5953
25.604	59.5812
25.688	63.0703
25.772	66.4701
25.856	69.1644
25.94	70.663
26.024	70.7056
26.108	69.3372
26.192	66.8661
26.276	63.7237
26.36	60.3733
26.444	57.1555
26.528	54.2095
26.612	51.5203
26.696	48.924
26.78	46.1969
26.864	43.2312
26.948	40.2083
27.028	37.7527