Folder: Masteroppgave/Bakgrunnsmateriale/MATLAB/FTIR/ftir_data/subAa/Mapping_121 (part 20)

File: BZ1503107-1_t41_cm-1.asc
PE IR       SPECTRUM    SPECTRUM    ASCII       PEDS        1.60
  -1
BZ6924~1.ASC
17/04/07
16:33:37.00
17/04/07
16:33:37.00
tln
$BZ1503107-1_t0041$<tbV0>[-5.2,-5.2,8.0,0.0,27,1,0]
370
64

2002,4.07
MIRTGS : RIGHTBACK : INTERNAL 2
MIR : ON : INTERNAL 2
OPTKBR

0.200000
8
8.000000
FILLER
RATIO
SPECTRUM
UNLOCKED 256

DOUBLE
64
COMBINED
1
0
0

1.000000
RATIO

1
0
TRUE
51149
0
LEFT NOT FITTED RIGHT NOT FITTED 0
NONE
NONE
15600
12
4.427000
51148
TRUE
1 0 8 72 0 0 0 0

15798

#HDR
-1
-1
#GR
CM-1
%T
2.38419e-05
0.0
5000
-1.000000
4631
8
81.2141
37.7527
#DATA
5000	65.3207
4984	64.997
4968	64.1978
4952	64.3157
4936	64.2094
4920	65.0492
4904	65.1902
4888	64.7058
4872	65.2056
4856	64.884
4840	64.9911
4824	64.8137
4808	65.1589
4792	64.7664
4776	65.0182
4760	65.4873
4744	64.7284
4728	65.2776
4712	65.6068
4696	65.0321
4680	65.0063
4664	64.8159
4648	65.0697
4632	64.9042
4616	64.9592
4600	64.5094
4584	64.6686
4568	64.9637
4552	64.756
4536	64.6057
4520	64.9441
4504	64.6114
4488	64.934
4472	64.3037
4456	64.7126
4440	65.6731
4424	70.2747
4408	79.9884
4392	65.7502
4376	64.763
4360	64.6148
4344	65.0531
4328	64.9611
4312	65.0413
4296	64.8184
4280	65.3104
4264	64.9418
4248	64.7284
4232	64.9042
4216	65.0333
4200	65.3631
4184	65.1345
4168	65.1486
4152	65.099
4136	65.0699
4120	65.2389
4104	65.2291
4088	65.1515
4072	65.2487
4056	65.0061
4040	65.0778
4024	65.1234
4008	65.2462
3992	65.2771
3976	65.1572
3960	65.3727
3944	65.285
3928	64.9383
3912	65.105
3896	65.2682
3880	64.9997
3864	65.2296
3848	65.2256
3832	65.0969
3816	65.1422
3800	65.3702
3784	65.1984
3768	65.1229
3752	65.0889
3736	65.1896
3720	65.2409
3704	65.1882
3688	65.2525
3672	65.2892
3656	65.2396
3640	65.1636
3624	65.3847
3608	65.2387
3592	65.3702
3576	64.9616
3560	65.0579
3544	65.0301
3528	65.208
3512	65.3481
3496	65.0989
3480	65.1407
3464	65.1013
3448	65.1125
3432	65.1804
3416	65.4639
3400	65.2854
3384	65.3943
3368	65.0864
3352	65.2839
3336	65.3242
3320	65.0377
3304	65.0892
3288	65.0805
3272	65.1397
3256	65.1521
3240	65.2388
3224	65.1592
3208	65.003
3192	65.2033
3176	65.1433
3160	65.1287
3144	65.116
3128	65.089
3112	65.1066
3096	65.2716
3080	65.1012
3064	65.1633
3048	65.0606
3032	64.9108
3016	65.0855
3000	64.9863
2984	65.1018
2968	64.9072
2952	65.0685
2936	64.9656
2920	65.154
2904	65.0365
2888	65.0729
2872	65.134
2856	64.9877
2840	65.0309
2824	64.9776
2808	65.0075
2792	65.1545
2776	65.1547
2760	65.1575
2744	65.0721
2728	65.0885
2712	64.9965
2696	65.1431
2680	65.0298
2664	64.9758
2648	65.0942
2632	64.9074
2616	65.0065
2600	64.9836
2584	65.0622
2568	65.0388
2552	65.0263
2536	65.046
2520	64.9647
2504	65.0113
2488	64.9516
2472	64.9457
2456	64.8979
2440	64.9155
2424	64.9693
2408	65.0025
2392	65.0271
2376	64.8448
2360	64.9768
2344	65.0281
2328	65.0067
2312	64.9356
2296	64.8638
2280	64.8713
2264	64.6954
2248	64.7703
2232	64.9093
2216	64.8444
2200	64.9751
2184	64.9031
2168	64.7444
2152	64.7494
2136	64.817
2120	64.8561
2104	64.8264
2088	64.7861
2072	64.7755
2056	64.7639
2040	64.7177
2024	64.9003
2008	64.8702
1992	64.6832
1976	64.7632
1960	64.7064
1944	64.7507
1928	64.7353
1912	64.6279
1896	64.6058
1880	64.7405
1864	64.693
1848	64.6908
1832	64.6652
1816	64.6298
1800	64.695
1784	64.5439
1768	64.6456
1752	64.4015
1736	64.3128
1720	64.4893
1704	64.5425
1688	64.5039
1672	64.4811
1656	64.4698
1640	64.4058
1624	64.3393
1608	64.4003
1592	64.362
1576	64.2044
1560	64.4149
1544	64.2435
1528	64.2845
1512	64.4611
1496	64.396
1480	64.4014
1464	64.3285
1448	64.3085
1432	64.3701
1416	64.3463
1400	64.3739
1384	64.174
1368	64.2179
1352	64.1853
1336	64.2854
1320	64.2158
1304	64.2902
1288	64.1836
1272	64.1639
1256	64.0249
1240	64.0856
1224	64.0624
1208	63.9551
1192	64.1304
1176	64.0045
1160	63.9558
1144	64.0313
1128	63.871
1112	64.2699
1096	63.9779
1080	63.9851
1064	63.985
1048	63.9114
1032	63.9415
1016	63.8926
1000	64.0635
984	 64.0432
968	 63.9734
952	 64.0536
936	 64.0213
920	 63.8685
904	 63.9399
888	 64.1377
872	 63.9522
856	 63.9959
840	 64.0032
824	 63.9222
808	 63.8717
792	 64.1266
776	 63.9597
760	 63.817
744	 63.6019
728	 63.7622
712	 63.8925
696	 63.8841
680	 63.2146
664	 63.437
648	 63.6594
632	 63.5728
616	 63.4362
600	 63.7143
584	 63.268
568	 63.8972
552	 63.8913
536	 63.1063
520	 63.1577
504	 63.8815
488	 63.5094
472	 63.0175
456	 62.9199
440	 63.0532
424	 63.5064
408	 60.058
392	 56.3025
376	 52.0274
370	 37.7527

File: BZ1503107-1_t42.asc
PE IR       SPECTRUM    SPECTRUM    ASCII       PEDS        1.60
  -1
BZ215D~1.ASC
17/04/07
16:38:14.00
17/04/07
16:38:40.00
tln
$BZ1503107-1_t0042$<tbV0>[-7.8,-5.2,8.0,0.0,27,1,0]
27.028
64

2002,4.07
MIRTGS : RIGHTBACK : INTERNAL 2
MIR : ON : INTERNAL 2
OPTKBR

0.200000
8
8.000000
FILLER
RATIO
SPECTRUM
UNLOCKED 256

DOUBLE
64
COMBINED
1
0
0

0.002000
RATIO

1
0
TRUE
51149
0
LEFT NOT FITTED RIGHT NOT FITTED 0
NONE
NONE
15600
12
4.427000
51148
TRUE
1 0 8 72 0 0 0 0

15798

#HDR
-1
-1
#GR
µM
%T
2.38419e-05
0.0
2.000000
0.002000
12515
8
83.8433
53.6337
#DATA
2.000000	 65.1069
2.084000	 64.8251
2.168000	 64.6904
2.252000	 64.8044
2.336000	 64.3624
2.420000	 65.2302
2.504000	 65.4431
2.588000	 64.8553
2.672000	 65.4005
2.756000	 65.2844
2.840000	 65.1084
2.924000	 65.1782
3.008000	 65.1401
3.092000	 65.1682
3.176000	 65.0682
3.260000	 65.0514
3.344000	 65.077
3.428000	 65.0371
3.512000	 65.0784
3.596000	 65.0647
3.680000	 65.1753
3.764000	 65.0968
3.848000	 65.0497
3.932000	 65.0077
4.016000	 64.9151
4.100000	 64.9503
4.184000	 65.1091
4.268000	 64.9326
4.352000	 64.8846
4.436000	 64.8012
4.520000	 64.8563
4.604000	 64.846
4.688000	 64.8803
4.772000	 64.7846
4.856000	 64.8942
4.940000	 64.8015
5.024000	 64.7059
5.108000	 64.7522
5.192000	 64.8161
5.276000	 64.6128
5.359999	 64.695
5.444000	 64.7087
5.528000	 64.5589
5.612000	 64.5388
5.696000	 64.5374
5.780000	 64.3184
5.864000	 64.5056
5.948000	 64.4688
6.032000	 64.4808
6.116000	 64.4222
6.200000	 64.3463
6.284000	 64.3889
6.368000	 64.3374
6.452000	 64.1602
6.536000	 64.2891
6.620000	 64.367
6.704000	 64.2522
6.788000	 64.3436
6.872000	 64.4985
6.956000	 64.4554
7.040000	 64.3426
7.124000	 64.2393
7.208000	 64.2942
7.292000	 64.3271
7.376000	 64.1413
7.460000	 64.2773
7.544000	 64.1255
7.628000	 64.1393
7.712000	 64.1644
7.796000	 64.1314
7.880000	 64.1525
7.964000	 64.1095
8.048000	 64.0282
8.132000	 64.2449
8.216000	 64.1467
8.300000	 64.0418
8.384000	 64.0381
8.468000	 64.0813
8.552000	 64.0088
8.635999	 64.0065
8.719999	 64.0043
8.804000	 63.9006
8.888000	 63.9688
8.972000	 63.9531
9.056000	 64.0139
9.140000	 64.0519
9.224000	 64.0016
9.308000	 63.8965
9.391999	 63.9986
9.475999	 63.9299
9.560000	 63.9636
9.644000	 63.9792
9.728000	 64.0145
9.812000	 64.0086
9.896000	 63.9517
9.980000	 64.011
10.064	64.0735
10.148	63.9926
10.232	64.1596
10.316	64.0877
10.4	64.0226
10.484	64.0855
10.568	64.1763
10.652	64.0584
10.736	64.0768
10.82	63.9898
10.904	64.0576
10.988	64.1478
11.072	64.0349
11.156	64.1417
11.24	64.1593
11.324	64.0056
11.408	64.0941
11.492	64.134
11.576	64.0985
11.66	63.9646
11.744	64.0371
11.828	63.9526
11.912	64.0375
11.996	64.0904
12.08	63.9779
12.164	63.8493
12.248	63.7744
12.332	63.8253
12.416	64.0252
12.5	64.0872
12.584	64.3294
12.668	64.2367
12.752	64.0036
12.836	63.7167
12.92	63.839
13.004	63.9577
13.088	63.6444
13.172	63.6626
13.256	63.8157
13.34	63.7862
13.424	63.8034
13.508	63.8219
13.592	63.8576
13.676	63.7073
13.76	63.2057
13.844	62.9489
13.928	63.1269
14.012	63.329
14.096	63.7536
14.18	64.4301
14.264	64.6136
14.348	64.0027
14.432	63.4323
14.516	63.2273
14.6	63.336
14.684	63.9275
14.768	64.3856
14.852	64.2892
14.936	64.214
15.02	64.3033
15.104	63.9686
15.188	63.4676
15.272	63.4017
15.356	63.4714
15.44	63.4104
15.524	63.5679
15.608	63.9682
15.692	64.1611
15.776	64.0395
15.86	63.9151
15.944	63.9971
16.028	64.1342
16.112	64.0042
16.196	63.6082
16.28	63.3568
16.364	63.4747
16.448	63.7542
16.532	63.9861
16.616	64.2093
16.7	64.4078
16.784	64.3419
16.868	63.9386
16.952	63.5145
17.036	63.3346
17.12	63.3048
17.204	63.328
17.288	63.5036
17.372	63.7718
17.456	63.8079
17.54	63.4878
17.624	63.1213
17.708	63.048
17.792	63.2743
17.876	63.5865
17.96	63.8497
18.044	64.0278
18.128	64.0297
18.212	63.7601
18.296	63.2873
18.38	62.8071
18.464	62.4657
18.548	62.2929
18.632	62.2849
18.716	62.4455
18.8	62.7268
18.884	63.0029
18.968	63.1497
19.052	63.1533
19.136	63.1084
19.22	63.1197
19.304	63.2092
19.388	63.3227
19.472	63.4074
19.556	63.4627
19.64	63.5195
19.724	63.5769
19.808	63.5843
19.892	63.4882
19.976	63.2916
20.06	63.0624
20.144	62.8811
20.228	62.7877
20.312	62.7794
20.396	62.8483
20.48	62.9993
20.564	63.2341
20.648	63.5301
20.732	63.8275
20.816	64.0444
20.9	64.1167
20.984	64.0423
21.068	63.8809
21.152	63.7118
21.236	63.577
21.32	63.4702
21.404	63.3743
21.488	63.3012
21.572	63.2896
21.656	63.3537
21.74	63.4486
21.824	63.4912
21.908	63.4235
21.992	63.2561
22.076	63.0474
22.16	62.8496
22.244	62.6613
22.328	62.4361
22.412	62.1354
22.496	61.7793
22.58	61.4527
22.664	61.2609
22.748	61.2788
22.832	61.5189
22.916	61.9281
23	62.4092
23.084	62.857
23.168	63.1997
23.252	63.423
23.336	63.5415
23.42	63.5859
23.504	63.5808
23.588	63.5272
23.672	63.4254
23.756	63.3091
23.84	63.1931
23.924	63.0945
24.008	62.9937
24.092	62.8115
24.176	62.4702
24.26	61.9723
24.344	61.4033
24.428	60.8674
24.512	60.4363
24.596	60.0587
24.68	59.5668
24.764	58.7699
24.848	57.5763
24.932	56.0998
25.016	54.6795
25.1	53.7546
25.184	53.7918
25.268	55.095
25.352	57.7164
25.436	61.5248
25.52	66.2012
25.604	71.2796
25.688	76.1348
25.772	80.0485
25.856	82.3521
25.94	82.5852
26.024	80.6459
26.108	76.9007
26.192	72.0718
26.276	67.0402
26.36	62.6775
26.444	59.6083
26.528	58.0965
26.612	58.0392
26.696	59.0877
26.78	60.8072
26.864	62.73
26.948	64.4306
27.028	65.5193

File: BZ1503107-1_t42_cm-1.asc
PE IR       SPECTRUM    SPECTRUM    ASCII       PEDS        1.60
  -1
BZ6A24~1.ASC
17/04/07
16:38:14.00
17/04/07
16:38:14.00
tln
$BZ1503107-1_t0042$<tbV0>[-7.8,-5.2,8.0,0.0,27,1,0]
370
64

2002,4.07
MIRTGS : RIGHTBACK : INTERNAL 2
MIR : ON : INTERNAL 2
OPTKBR

0.200000
8
8.000000
FILLER
RATIO
SPECTRUM
UNLOCKED 256

DOUBLE
64
COMBINED
1
0
0

1.000000
RATIO

1
0
TRUE
51149
0
LEFT NOT FITTED RIGHT NOT FITTED 0
NONE
NONE
15600
12
4.427000
51148
TRUE
1 0 8 72 0 0 0 0

15798

#HDR
-1
-1
#GR
CM-1
%T
2.38419e-05
0.0
5000
-1.000000
4631
8
83.8529
53.6477
#DATA
5000	65.1069
4984	64.8721
4968	64.1208
4952	64.4085
4936	64.1098
4920	64.7742
4904	64.6959
4888	64.451
4872	64.8613
4856	65.3182
4840	65.0634
4824	65.1721
4808	65.1051
4792	65.3229
4776	64.8059
4760	65.1699
4744	65.5439
4728	65.4743
4712	65.7758
4696	65.356
4680	65.1066
4664	65.1689
4648	65.4207
4632	64.7427
4616	64.6151
4600	64.552
4584	64.4189
4568	64.2936
4552	63.904
4536	64.2007
4520	63.9365
4504	64.1073
4488	63.5736
4472	63.0299
4456	64.0724
4440	64.9307
4424	80.9714
4408	78.5445
4392	65.6825
4376	64.2208
4360	63.8855
4344	64.0164
4328	64.1228
4312	64.0292
4296	64.4125
4280	64.3291
4264	64.6792
4248	64.5064
4232	64.8808
4216	65.2219
4200	64.9087
4184	64.996
4168	64.8998
4152	65.1838
4136	65.487
4120	65.2425
4104	65.5298
4088	65.2036
4072	65.434
4056	65.3376
4040	65.2073
4024	65.1963
4008	65.3901
3992	65.4412
3976	65.1797
3960	65.1858
3944	65.1787
3928	65.2139
3912	65.2225
3896	65.0929
3880	64.9186
3864	64.8555
3848	64.9795
3832	65.0843
3816	65.1074
3800	65.3343
3784	65.2068
3768	65.1426
3752	64.9897
3736	65.1952
3720	65.1881
3704	65.3558
3688	65.2178
3672	65.3982
3656	65.3788
3640	65.1545
3624	65.361
3608	65.3599
3592	65.2856
3576	65.0907
3560	65.2304
3544	64.9936
3528	65.1334
3512	65.0481
3496	65.0773
3480	64.9428
3464	65.138
3448	65.0249
3432	65.0296
3416	65.1432
3400	65.2552
3384	65.3284
3368	65.0887
3352	65.2702
3336	65.2297
3320	65.1542
3304	65.0948
3288	64.9335
3272	65.162
3256	65.1102
3240	65.1007
3224	65.2309
3208	65.1867
3192	65.0519
3176	65.1252
3160	65.2267
3144	65.0743
3128	65.3309
3112	65.0233
3096	65.2899
3080	64.9668
3064	65.015
3048	65.073
3032	64.9765
3016	65.0169
3000	65.1116
2984	65.083
2968	64.8847
2952	65.092
2936	65.0638
2920	65.135
2904	64.9812
2888	65.0712
2872	64.9538
2856	65.1824
2840	65.0067
2824	65.1869
2808	65.0906
2792	65.1953
2776	65.0548
2760	65.165
2744	65.1766
2728	65.03
2712	65.0738
2696	65.1548
2680	65.0365
2664	64.9975
2648	65.0722
2632	65.0004
2616	64.8599
2600	65.0406
2584	64.9922
2568	64.9924
2552	65.0297
2536	65.0449
2520	64.8513
2504	65.0857
2488	64.9475
2472	64.9799
2456	64.9456
2440	64.9402
2424	64.8564
2408	65.0571
2392	65.1086
2376	64.8686
2360	64.9207
2344	64.9343
2328	64.8974
2312	64.9936
2296	64.8771
2280	64.8712
2264	64.8621
2248	64.8813
2232	65.0322
2216	64.8342
2200	65.0063
2184	64.942
2168	64.9091
2152	64.8267
2136	64.857
2120	64.6982
2104	64.7911
2088	64.7526
2072	64.8642
2056	64.9141
2040	64.7636
2024	64.8019
2008	64.8545
1992	64.7197
1976	64.7466
1960	64.7455
1944	64.6862
1928	64.7736
1912	64.6573
1896	64.6168
1880	64.7279
1864	64.6693
1848	64.8025
1832	64.6722
1816	64.6549
1800	64.6729
1784	64.5229
1768	64.5524
1752	64.5145
1736	64.3048
1720	64.51
1704	64.543
1688	64.4992
1672	64.5725
1656	64.4705
1640	64.423
1624	64.3773
1608	64.3872
1592	64.3889
1576	64.2028
1560	64.3415
1544	64.2083
1528	64.2838
1512	64.3906
1496	64.3542
1480	64.4353
1464	64.2993
1448	64.4074
1432	64.3728
1416	64.2784
1400	64.2627
1384	64.2799
1368	64.2684
1352	64.1639
1336	64.2954
1320	64.09
1304	64.215
1288	64.1356
1272	64.1692
1256	64.1091
1240	64.0407
1224	64.106
1208	64.0978
1192	64.0301
1176	64.0638
1160	64.0092
1144	63.9793
1128	63.9662
1112	63.8972
1096	64.0712
1080	63.9216
1064	63.9942
1048	63.9865
1032	64.0128
1016	63.9914
1000	64.0855
984	 64.0215
968	 64.1027
952	 64.174
936	 64.0806
920	 63.9867
904	 64.0507
888	 64.0826
872	 64.1177
856	 63.9883
840	 64.0267
824	 63.885
808	 63.9445
792	 64.3394
776	 63.724
760	 63.6312
744	 63.8099
728	 63.356
712	 63.4479
696	 63.8313
680	 64.0949
664	 64.2103
648	 63.413
632	 63.9496
616	 63.4525
600	 64.3454
584	 63.3045
568	 63.1841
552	 64.0452
536	 62.315
520	 63.1273
504	 63.5602
488	 63.0274
472	 63.6519
456	 63.3877
440	 61.2528
424	 63.5301
408	 60.4466
392	 65.6276
376	 57.9548
370	 65.5193

File: BZ1503107-1_t43.asc
PE IR       SPECTRUM    SPECTRUM    ASCII       PEDS        1.60
  -1
BZ255D~1.ASC
17/04/07
16:42:51.00
17/04/07
16:43:17.00
tln
$BZ1503107-1_t0043$<tbV0>[-10.4,-5.2,8.0,0.0,27,1,0]
27.028
64

2002,4.07
MIRTGS : RIGHTBACK : INTERNAL 2
MIR : ON : INTERNAL 2
OPTKBR

0.200000
8
8.000000
FILLER
RATIO
SPECTRUM
UNLOCKED 256

DOUBLE
64
COMBINED
1
0
0

0.002000
RATIO

1
0
TRUE
51149
0
LEFT NOT FITTED RIGHT NOT FITTED 0
NONE
NONE
15600
12
4.427000
51148
TRUE
1 0 8 72 0 0 0 0

15798

#HDR
-1
-1
#GR
µM
%T
2.38419e-05
0.0
2.000000
0.002000
12515
8
84.689
59.5403
#DATA
2.000000	 65.2682
2.084000	 64.9516
2.168000	 64.8925
2.252000	 64.3573
2.336000	 64.3807
2.420000	 65.3597
2.504000	 65.1934
2.588000	 65.0382
2.672000	 65.1718
2.756000	 65.4404
2.840000	 65.1111
2.924000	 65.1553
3.008000	 65.1692
3.092000	 65.1612
3.176000	 65.1113
3.260000	 65.1015
3.344000	 65.1004
3.428000	 65.014
3.512000	 64.9811
3.596000	 65.0602
3.680000	 65.1782
3.764000	 65.0911
3.848000	 65.03
3.932000	 65.0139
4.016000	 64.8961
4.100000	 65.0491
4.184000	 65.0137
4.268000	 65.0104
4.352000	 64.9529
4.436000	 64.8446
4.520000	 64.8419
4.604000	 64.8838
4.688000	 64.8058
4.772000	 64.8222
4.856000	 64.7688
4.940000	 64.7572
5.024000	 64.7764
5.108000	 64.796
5.192000	 64.7831
5.276000	 64.6551
5.359999	 64.6509
5.444000	 64.6252
5.528000	 64.6761
5.612000	 64.6124
5.696000	 64.3882
5.780000	 64.2762
5.864000	 64.5347
5.948000	 64.4735
6.032000	 64.476
6.116000	 64.4923
6.200000	 64.305
6.284000	 64.4039
6.368000	 64.3887
6.452000	 64.3873
6.536000	 64.3473
6.620000	 64.4187
6.704000	 64.3211
6.788000	 64.3834
6.872000	 64.2632
6.956000	 64.4144
7.040000	 64.3833
7.124000	 64.4108
7.208000	 64.1492
7.292000	 64.3051
7.376000	 64.2024
7.460000	 64.308
7.544000	 64.3127
7.628000	 64.1861
7.712000	 64.2008
7.796000	 64.204
7.880000	 64.1859
7.964000	 64.2418
8.048000	 64.1434
8.132000	 64.0474
8.216000	 64.2376
8.300000	 64.1499
8.384000	 64.1211
8.468000	 63.9545
8.552000	 64.0009
8.635999	 64.011
8.719999	 63.9531
8.804000	 63.9875
8.888000	 63.9049
8.972000	 64.1632
9.056000	 64.0987
9.140000	 63.8586
9.224000	 63.9176
9.308000	 64.0929
9.391999	 63.942
9.475999	 63.9832
9.560000	 64.1112
9.644000	 63.9539
9.728000	 64.1342
9.812000	 64.0906
9.896000	 64.1521
9.980000	 64.1112
10.064	63.9836
10.148	63.9885
10.232	64.1881
10.316	63.9514
10.4	63.8922
10.484	63.9545
10.568	64.0312
10.652	63.9448
10.736	63.8813
10.82	64.1137
10.904	64.3371
10.988	64.1283
11.072	64.1181
11.156	64.0452
11.24	64.18
11.324	64.1046
11.408	64.1256
11.492	64.0552
11.576	64.1111
11.66	64.1458
11.744	64.2024
11.828	64.0966
11.912	64.2133
11.996	64.088
12.08	63.8445
12.164	63.9609
12.248	63.8937
12.332	63.7778
12.416	63.9626
12.5	64.0706
12.584	64.0714
12.668	64.0323
12.752	64.0789
12.836	64.0867
12.92	63.9086
13.004	63.9262
13.088	63.9733
13.172	63.9806
13.256	63.669
13.34	63.6908
13.424	64.1249
13.508	63.9656
13.592	63.666
13.676	63.6259
13.76	63.7212
13.844	63.7265
13.928	63.6917
14.012	63.4391
14.096	63.1929
14.18	63.4449
14.264	64.061
14.348	64.3378
14.432	64.1018
14.516	63.9949
14.6	64.0383
14.684	63.8329
14.768	63.4841
14.852	63.3462
14.936	63.579
15.02	63.9477
15.104	64.1429
15.188	64.2491
15.272	64.3236
15.356	64.1519
15.44	63.8272
15.524	63.8207
15.608	64.1317
15.692	64.1526
15.776	63.8039
15.86	63.6486
15.944	63.7897
16.028	63.7575
16.112	63.4103
16.196	63.1362
16.28	63.2274
16.364	63.5649
16.448	63.9219
16.532	64.1794
16.616	64.3249
16.7	64.4071
16.784	64.4189
16.868	64.3224
16.952	64.199
17.036	64.1421
17.12	64.0995
17.204	64.0451
17.288	64.0918
17.372	64.2754
17.456	64.3852
17.54	64.1813
17.624	63.7568
17.708	63.4771
17.792	63.5335
17.876	63.7302
17.96	63.8323
18.044	63.8672
18.128	63.9253
18.212	63.9273
18.296	63.7414
18.38	63.3749
18.464	62.9946
18.548	62.811
18.632	62.9376
18.716	63.2898
18.8	63.635
18.884	63.8009
18.968	63.7993
19.052	63.7388
19.136	63.6743
19.22	63.5918
19.304	63.479
19.388	63.3699
19.472	63.3184
19.556	63.3445
19.64	63.4191
19.724	63.481
19.808	63.4688
19.892	63.3545
19.976	63.1589
20.06	62.9446
20.144	62.7848
20.228	62.7208
20.312	62.7325
20.396	62.7667
20.48	62.8103
20.564	62.9168
20.648	63.1358
20.732	63.4221
20.816	63.6352
20.9	63.6526
20.984	63.4933
21.068	63.3079
21.152	63.2412
21.236	63.3048
21.32	63.3808
21.404	63.3455
21.488	63.1792
21.572	62.9707
21.656	62.837
21.74	62.8362
21.824	62.9374
21.908	63.0529
21.992	63.0995
22.076	63.0367
22.16	62.8729
22.244	62.6478
22.328	62.4097
22.412	62.2103
22.496	62.0948
22.58	62.0892
22.664	62.1955
22.748	62.3893
22.832	62.628
22.916	62.8523
23	62.9946
23.084	62.9981
23.168	62.8404
23.252	62.5578
23.336	62.2428
23.42	62.0061
23.504	61.9303
23.588	62.0081
23.672	62.1475
23.756	62.2231
23.84	62.1494
23.924	61.9339
24.008	61.6514
24.092	61.3858
24.176	61.1932
24.26	61.068
24.344	60.9711
24.428	60.8728
24.512	60.7747
24.596	60.6792
24.68	60.5857
24.764	60.4962
24.848	60.4125
24.932	60.3639
25.016	60.4175
25.1	60.6803
25.184	61.2223
25.268	62.0327
25.352	63.0398
25.436	64.1035
25.52	65.0753
25.604	65.8711
25.688	66.5638
25.772	67.3511
25.856	68.416
25.94	69.8152
26.024	71.3647
26.108	72.6367
26.192	73.193
26.276	72.7227
26.36	71.1533
26.444	68.6785
26.528	65.7387
26.612	62.8345
26.696	60.5727
26.78	59.5552
26.864	60.3017
26.948	63.0773
27.028	67.4391

File: BZ1503107-1_t43_cm-1.asc
PE IR       SPECTRUM    SPECTRUM    ASCII       PEDS        1.60
  -1
BZ6B24~1.ASC
17/04/07
16:42:51.00
17/04/07
16:42:51.00
tln
$BZ1503107-1_t0043$<tbV0>[-10.4,-5.2,8.0,0.0,27,1,0]
370
64

2002,4.07
MIRTGS : RIGHTBACK : INTERNAL 2
MIR : ON : INTERNAL 2
OPTKBR

0.200000
8
8.000000
FILLER
RATIO
SPECTRUM
UNLOCKED 256

DOUBLE
64
COMBINED
1
0
0

1.000000
RATIO

1
0
TRUE
51149
0
LEFT NOT FITTED RIGHT NOT FITTED 0
NONE
NONE
15600
12
4.427000
51148
TRUE
1 0 8 72 0 0 0 0

15798

#HDR
-1
-1
#GR
CM-1
%T
2.38419e-05
0.0
5000
-1.000000
4631
8
85.6494
59.5953
#DATA
5000	65.2682
4984	64.8313
4968	64.2604
4952	64.6798
4936	64.485
4920	65.0029
4904	64.886
4888	64.8364
4872	64.7106
4856	64.8331
4840	64.9534
4824	65.3576
4808	65.2013
4792	65.1331
4776	65.1095
4760	65.4118
4744	65.2172
4728	65.3048
4712	65.9904
4696	65.3815
4680	65.1825
4664	65.0394
4648	65.2596
4632	64.7724
4616	65.1476
4600	64.3282
4584	64.3345
4568	64.4886
4552	64.1144
4536	64.3283
4520	63.9057
4504	64.1128
4488	64.2304
4472	63.6489
4456	63.9076
4440	64.5825
4424	85.4221
4408	64.9426
4392	63.2465
4376	64.5558
4360	63.9393
4344	63.7471
4328	63.9353
4312	63.8714
4296	64.364
4280	64.3498
4264	64.5818
4248	64.3137
4232	64.8422
4216	65.0992
4200	65.2445
4184	65.1334
4168	65.2802
4152	65.3831
4136	65.3791
4120	65.1651
4104	65.5053
4088	65.3313
4072	65.3351
4056	65.2034
4040	65.1742
4024	65.3549
4008	65.2248
3992	65.1917
3976	65.1485
3960	64.9463
3944	65.0522
3928	65.0076
3912	65.142
3896	65.0864
3880	64.8371
3864	65.0379
3848	64.9878
3832	65.1783
3816	65.0037
3800	65.432
3784	65.3294
3768	65.1212
3752	65.2966
3736	65.1133
3720	65.2067
3704	65.3696
3688	65.2621
3672	65.3226
3656	65.3229
3640	65.218
3624	65.4246
3608	65.3361
3592	65.3884
3576	65.0969
3560	65.1745
3544	65.2377
3528	64.9724
3512	65.142
3496	65.1649
3480	65.0792
3464	65.1017
3448	65.0265
3432	64.9287
3416	65.0167
3400	65.0565
3384	65.325
3368	65.1983
3352	65.2436
3336	65.1715
3320	65.1873
3304	65.1258
3288	65.0049
3272	65.1805
3256	65.0369
3240	65.3064
3224	65.2924
3208	65.0654
3192	65.1598
3176	65.1746
3160	65.1119
3144	65.0016
3128	65.1647
3112	65.0537
3096	65.2835
3080	65.161
3064	65.0769
3048	65.139
3032	65.092
3016	65.0928
3000	65.2059
2984	65.0431
2968	64.9218
2952	65.0181
2936	64.9306
2920	64.9972
2904	65.1378
2888	65.1502
2872	65.0032
2856	65.052
2840	65.0633
2824	65.1008
2808	65.102
2792	65.3231
2776	65.0809
2760	65.0703
2744	65.1215
2728	65.1309
2712	65.0564
2696	65.1405
2680	65.0056
2664	65.0009
2648	65.0511
2632	64.9601
2616	64.8673
2600	65.0167
2584	65.0222
2568	64.9516
2552	64.9695
2536	65.016
2520	64.9914
2504	64.9911
2488	64.9322
2472	64.9765
2456	64.9646
2440	65.0507
2424	65.0643
2408	65.0406
2392	65.0233
2376	64.9926
2360	65.0127
2344	65.0034
2328	65.0537
2312	65.0035
2296	64.924
2280	64.9635
2264	64.8957
2248	64.8939
2232	64.9683
2216	64.8494
2200	64.966
2184	64.8727
2168	64.9013
2152	64.8267
2136	64.7611
2120	64.7638
2104	64.829
2088	64.7783
2072	64.7948
2056	64.7734
2040	64.8007
2024	64.7575
2008	64.8276
1992	64.7708
1976	64.7832
1960	64.7917
1944	64.7233
1928	64.7383
1912	64.5989
1896	64.6513
1880	64.62
1864	64.6417
1848	64.6882
1832	64.5939
1816	64.6689
1800	64.7153
1784	64.6436
1768	64.5057
1752	64.3862
1736	64.2604
1720	64.3021
1704	64.5821
1688	64.5651
1672	64.5271
1656	64.446
1640	64.4329
1624	64.4043
1608	64.371
1592	64.4124
1576	64.3026
1560	64.537
1544	64.3766
1528	64.3096
1512	64.4226
1496	64.3565
1480	64.3018
1464	64.2382
1448	64.3413
1432	64.3792
1416	64.3373
1400	64.287
1384	64.1514
1368	64.2252
1352	64.1634
1336	64.3178
1320	64.2931
1304	64.2085
1288	64.2633
1272	64.1761
1256	64.2363
1240	64.127
1224	64.1412
1208	64.1586
1192	64.1067
1176	63.9806
1160	64.0365
1144	64.0227
1128	63.9002
1112	64.1158
1096	63.8636
1080	63.9424
1064	63.9216
1048	64.1254
1032	64.0534
1016	64.1114
1000	64.1025
984	 64.037
968	 63.9349
952	 63.9736
936	 63.9193
920	 64.3126
904	 64.1218
888	 64.1681
872	 64.0708
856	 64.1838
840	 64.2055
824	 63.9121
808	 63.8451
792	 64.0677
776	 63.9626
760	 63.9979
744	 64.1469
728	 63.6984
712	 63.3068
696	 64.3079
680	 63.7409
664	 64.0664
648	 63.851
632	 63.6661
616	 63.1316
600	 64.3804
584	 64.0972
568	 63.8508
552	 63.917
536	 63.0268
520	 63.5789
504	 63.4358
488	 62.82
472	 63.2565
456	 63.0743
440	 62.3353
424	 62.0037
408	 60.7772
392	 64.9712
376	 63.3597
370	 67.4391