Folder: Masteroppgave/Bakgrunnsmateriale/MATLAB/FTIR/ftir_data/subAa/Mapping_121 (part 32)

File: BZ1503107-1_t71_cm-1.asc
PE IR       SPECTRUM    SPECTRUM    ASCII       PEDS        1.60
  -1
BZ69A6~1.ASC
17/04/07
19:06:31.00
17/04/07
19:06:31.00
tln
$BZ1503107-1_t0071$<tbV0>[2.6,2.6,8.0,0.0,27,1,0]
370
64

2002,4.07
MIRTGS : RIGHTBACK : INTERNAL 2
MIR : ON : INTERNAL 2
OPTKBR

0.200000
8
8.000000
FILLER
RATIO
SPECTRUM
UNLOCKED 256

DOUBLE
64
COMBINED
1
0
0

1.000000
RATIO

1
0
TRUE
51149
0
LEFT NOT FITTED RIGHT NOT FITTED 0
NONE
NONE
15600
12
4.427000
51148
TRUE
1 0 8 72 0 0 0 0

15798

#HDR
-1
-1
#GR
CM-1
%T
2.38419e-05
0.0
5000
-1.000000
4631
8
71.0231
32.2752
#DATA
5000	65.4047
4984	65.4864
4968	64.6327
4952	64.9747
4936	64.6165
4920	64.5503
4904	64.3938
4888	65.058
4872	65.0531
4856	64.7627
4840	64.3521
4824	64.409
4808	64.7449
4792	65.0815
4776	64.8264
4760	64.9512
4744	64.8346
4728	65.0318
4712	64.9128
4696	65.0699
4680	64.6511
4664	64.8337
4648	64.7949
4632	64.8574
4616	65.0269
4600	64.6939
4584	64.6569
4568	64.6422
4552	64.587
4536	64.848
4520	64.6951
4504	64.6645
4488	65.2692
4472	64.467
4456	64.5208
4440	64.1383
4424	62.9368
4408	67.8235
4392	65.6551
4376	65.5196
4360	65.9344
4344	65.0748
4328	64.7859
4312	64.9831
4296	65.0337
4280	64.947
4264	64.5072
4248	64.9905
4232	65.0797
4216	64.5156
4200	65.0707
4184	64.7149
4168	65.2226
4152	64.6042
4136	64.7594
4120	64.7129
4104	65.0998
4088	64.9487
4072	65.0106
4056	64.7945
4040	64.9705
4024	64.9523
4008	65.1179
3992	64.8252
3976	64.7907
3960	64.889
3944	64.9611
3928	64.8802
3912	65.0227
3896	65.0533
3880	64.9163
3864	65.0923
3848	64.9017
3832	65.0168
3816	65.0744
3800	65.0796
3784	65.041
3768	65.0061
3752	65.1317
3736	65.1568
3720	65.1669
3704	65.0455
3688	65.2761
3672	65.2784
3656	65.1364
3640	65.1656
3624	64.9306
3608	65.1459
3592	64.8294
3576	65.0119
3560	65.05
3544	64.9365
3528	64.965
3512	65.1262
3496	65.0943
3480	64.9091
3464	65.0371
3448	65.0253
3432	64.9752
3416	65.0416
3400	65.082
3384	64.9014
3368	64.9914
3352	65.0041
3336	65.0984
3320	65.0311
3304	65.0545
3288	64.9415
3272	64.9833
3256	64.8874
3240	65.1586
3224	65.028
3208	65.0369
3192	65.0281
3176	65.0259
3160	65.0503
3144	65.0706
3128	64.9214
3112	64.9014
3096	64.9582
3080	64.8767
3064	65.0407
3048	64.9101
3032	64.8915
3016	64.9368
3000	64.9362
2984	64.722
2968	64.8993
2952	64.7091
2936	64.7438
2920	64.9436
2904	64.7369
2888	64.754
2872	64.8299
2856	64.8674
2840	64.8335
2824	64.8121
2808	64.9566
2792	64.8763
2776	64.9162
2760	64.8899
2744	64.8172
2728	64.9593
2712	64.9565
2696	64.752
2680	64.9425
2664	64.768
2648	64.7782
2632	64.7246
2616	64.8596
2600	64.6883
2584	64.6977
2568	64.7419
2552	64.662
2536	64.8066
2520	64.793
2504	64.6461
2488	64.738
2472	64.7346
2456	64.787
2440	64.6667
2424	64.695
2408	64.7865
2392	64.5661
2376	64.6664
2360	64.6185
2344	64.6728
2328	64.6869
2312	64.628
2296	64.559
2280	64.6298
2264	64.6867
2248	64.5631
2232	64.5404
2216	64.6158
2200	64.4579
2184	64.6137
2168	64.5735
2152	64.4156
2136	64.5731
2120	64.4606
2104	64.5992
2088	64.5192
2072	64.5648
2056	64.481
2040	64.3305
2024	64.361
2008	64.4965
1992	64.32
1976	64.4276
1960	64.4254
1944	64.3506
1928	64.2865
1912	64.2769
1896	64.2669
1880	64.34
1864	64.2987
1848	64.2844
1832	64.2686
1816	64.2229
1800	64.1634
1784	64.1719
1768	64.2892
1752	64.0387
1736	63.818
1720	64.0598
1704	64.039
1688	64.0746
1672	64.0188
1656	63.9849
1640	63.9657
1624	64.2251
1608	63.97
1592	63.9546
1576	63.9405
1560	63.902
1544	63.8666
1528	63.8574
1512	64.0053
1496	63.8094
1480	63.9578
1464	63.7833
1448	63.8636
1432	63.8991
1416	63.8244
1400	63.7595
1384	63.6855
1368	63.6799
1352	63.6709
1336	63.8099
1320	63.7725
1304	63.8253
1288	63.6341
1272	63.546
1256	63.5787
1240	63.6214
1224	63.5448
1208	63.6782
1192	63.6225
1176	63.4532
1160	63.4306
1144	63.5206
1128	63.4595
1112	63.5244
1096	63.3316
1080	63.4691
1064	63.5317
1048	63.6328
1032	63.349
1016	63.3161
1000	63.4547
984	 63.6541
968	 63.4613
952	 63.3725
936	 63.3271
920	 63.6259
904	 63.5093
888	 63.6276
872	 63.5467
856	 63.3324
840	 63.4939
824	 63.3326
808	 63.3351
792	 62.9487
776	 64.1732
760	 63.2022
744	 62.5799
728	 63.5576
712	 62.6012
696	 63.2402
680	 63.2578
664	 62.7122
648	 62.412
632	 62.2699
616	 63.0677
600	 63.2734
584	 62.6662
568	 63.6499
552	 62.9394
536	 62.9442
520	 63.0105
504	 62.5583
488	 63.419
472	 61.7681
456	 61.7528
440	 62.2873
424	 63.2277
408	 60.8751
392	 54.465
376	 56.771
370	 32.2752

File: BZ1503107-1_t72.asc
PE IR       SPECTRUM    SPECTRUM    ASCII       PEDS        1.60
  -1
BZ215F~1.ASC
17/04/07
19:11:09.00
17/04/07
19:11:35.00
tln
$BZ1503107-1_t0072$<tbV0>[0.0,2.6,8.0,0.0,27,1,0]
27.028
64

2002,4.07
MIRTGS : RIGHTBACK : INTERNAL 2
MIR : ON : INTERNAL 2
OPTKBR

0.200000
8
8.000000
FILLER
RATIO
SPECTRUM
UNLOCKED 256

DOUBLE
64
COMBINED
1
0
0

0.002000
RATIO

1
0
TRUE
51149
0
LEFT NOT FITTED RIGHT NOT FITTED 0
NONE
NONE
15600
12
4.427000
51148
TRUE
1 0 8 72 0 0 0 0

15798

#HDR
-1
-1
#GR
µM
%T
2.38419e-05
0.0
2.000000
0.002000
12515
8
73.2549
51.2085
#DATA
2.000000	 64.8177
2.084000	 64.2922
2.168000	 64.8737
2.252000	 65.383
2.336000	 64.7195
2.420000	 64.5284
2.504000	 64.679
2.588000	 64.9973
2.672000	 64.8305
2.756000	 64.8516
2.840000	 64.9773
2.924000	 64.7879
3.008000	 64.8091
3.092000	 64.9545
3.176000	 64.8277
3.260000	 64.8534
3.344000	 64.6684
3.428000	 64.6959
3.512000	 64.6544
3.596000	 64.7005
3.680000	 64.7106
3.764000	 64.5485
3.848000	 64.5452
3.932000	 64.6092
4.016000	 64.5164
4.100000	 64.5837
4.184000	 64.3904
4.268000	 64.505
4.352000	 64.341
4.436000	 64.4151
4.520000	 64.3818
4.604000	 64.1354
4.688000	 64.3089
4.772000	 64.2984
4.856000	 64.2556
4.940000	 64.1652
5.024000	 64.1129
5.108000	 64.2763
5.192000	 64.2146
5.276000	 64.0706
5.359999	 64.1174
5.444000	 63.9739
5.528000	 64.0751
5.612000	 63.9979
5.696000	 63.9763
5.780000	 63.8876
5.864000	 63.8902
5.948000	 63.7501
6.032000	 63.8001
6.116000	 63.675
6.200000	 63.9174
6.284000	 63.7128
6.368000	 63.786
6.452000	 63.6558
6.536000	 63.7492
6.620000	 63.8206
6.704000	 63.6912
6.788000	 63.6445
6.872000	 63.7259
6.956000	 63.6167
7.040000	 63.6644
7.124000	 63.5408
7.208000	 63.5856
7.292000	 63.4879
7.376000	 63.5229
7.460000	 63.5764
7.544000	 63.6686
7.628000	 63.5445
7.712000	 63.4868
7.796000	 63.5369
7.880000	 63.4804
7.964000	 63.391
8.048000	 63.3866
8.132000	 63.4619
8.216000	 63.3925
8.300000	 63.4267
8.384000	 63.3366
8.468000	 63.3583
8.552000	 63.2328
8.635999	 63.2183
8.719999	 63.272
8.804000	 63.4283
8.888000	 63.2953
8.972000	 63.2676
9.056000	 63.1451
9.140000	 63.1442
9.224000	 63.2735
9.308000	 63.0981
9.391999	 63.2228
9.475999	 63.1621
9.560000	 63.1146
9.644000	 63.1064
9.728000	 63.2929
9.812000	 63.0678
9.896000	 63.1531
9.980000	 63.1438
10.064	63.0426
10.148	63.3343
10.232	63.2466
10.316	63.0663
10.4	63.2962
10.484	63.1769
10.568	62.898
10.652	63.2286
10.736	63.2845
10.82	63.1885
10.904	63.0479
10.988	63.0454
11.072	63.0672
11.156	63.0882
11.24	63.0964
11.324	62.9136
11.408	63.1696
11.492	63.3724
11.576	63.1579
11.66	63.1526
11.744	63.1302
11.828	63.1416
11.912	63.2829
11.996	63.308
12.08	63.1674
12.164	63.5056
12.248	63.5785
12.332	63.4475
12.416	63.3022
12.5	63.2116
12.584	63.1011
12.668	63.0027
12.752	62.9777
12.836	63.0725
12.92	63.0004
13.004	62.7252
13.088	62.6379
13.172	62.4743
13.256	62.2764
13.34	62.0908
13.424	62.2908
13.508	62.4841
13.592	62.4484
13.676	62.5437
13.76	62.664
13.844	62.6648
13.928	62.4318
14.012	62.212
14.096	62.2556
14.18	62.6771
14.264	63.2998
14.348	63.2413
14.432	63.0953
14.516	63.6035
14.6	63.838
14.684	63.6582
14.768	63.4644
14.852	63.1383
14.936	62.727
15.02	62.463
15.104	62.6188
15.188	62.8383
15.272	62.6359
15.356	62.331
15.44	62.2582
15.524	62.2528
15.608	62.0721
15.692	61.7969
15.776	61.8443
15.86	62.2543
15.944	62.5521
16.028	62.5676
16.112	62.566
16.196	62.7114
16.28	62.9327
16.364	63.0473
16.448	62.9247
16.532	62.664
16.616	62.4242
16.7	62.2018
16.784	61.9779
16.868	61.817
16.952	61.7675
17.036	61.8543
17.12	62.087
17.204	62.3814
17.288	62.6143
17.372	62.7535
17.456	62.8413
17.54	62.9084
17.624	62.9364
17.708	62.8993
17.792	62.812
17.876	62.7236
17.96	62.6751
18.044	62.6488
18.128	62.5653
18.212	62.4023
18.296	62.262
18.38	62.2536
18.464	62.3422
18.548	62.4032
18.632	62.4065
18.716	62.4382
18.8	62.5644
18.884	62.7617
18.968	62.9511
19.052	63.0343
19.136	62.9574
19.22	62.771
19.304	62.594
19.388	62.4938
19.472	62.4305
19.556	62.3307
19.64	62.1906
19.724	62.0754
19.808	62.0321
19.892	62.0622
19.976	62.1499
20.06	62.2924
20.144	62.4837
20.228	62.6825
20.312	62.8053
20.396	62.7789
20.48	62.6124
20.564	62.4056
20.648	62.2638
20.732	62.2102
20.816	62.1719
20.9	62.062
20.984	61.8715
21.068	61.6822
21.152	61.5989
21.236	61.675
21.32	61.8935
21.404	62.1938
21.488	62.5001
21.572	62.7346
21.656	62.8455
21.74	62.8341
21.824	62.7608
21.908	62.7165
21.992	62.7605
22.076	62.88
22.16	63.0016
22.244	63.0488
22.328	63.0012
22.412	62.9087
22.496	62.8601
22.58	62.9153
22.664	63.066
22.748	63.2249
22.832	63.2796
22.916	63.1491
23	62.8486
23.084	62.4775
23.168	62.199
23.252	62.1456
23.336	62.3509
23.42	62.7182
23.504	63.0708
23.588	63.2404
23.672	63.1504
23.756	62.8459
23.84	62.4413
23.924	62.0501
24.008	61.7258
24.092	61.4575
24.176	61.2108
24.26	60.9861
24.344	60.8131
24.428	60.7035
24.512	60.602
24.596	60.3966
24.68	59.9544
24.764	59.1944
24.848	58.1742
24.932	57.1156
25.016	56.3147
25.1	55.9749
25.184	56.1592
25.268	56.7449
25.352	57.4755
25.436	58.1049
25.52	58.5123
25.604	58.711
25.688	58.7632
25.772	58.686
25.856	58.4117
25.94	57.7752
26.024	56.6722
26.108	55.2298
26.192	53.7957
26.276	52.8603
26.36	52.9334
26.444	54.2964
26.528	56.8063
26.612	59.9208
26.696	62.7237
26.78	64.1654
26.864	63.4309
26.948	60.2283
27.028	55.2502

File: BZ1503107-1_t72_cm-1.asc
PE IR       SPECTRUM    SPECTRUM    ASCII       PEDS        1.60
  -1
BZ6AA6~1.ASC
17/04/07
19:11:09.00
17/04/07
19:11:09.00
tln
$BZ1503107-1_t0072$<tbV0>[0.0,2.6,8.0,0.0,27,1,0]
370
64

2002,4.07
MIRTGS : RIGHTBACK : INTERNAL 2
MIR : ON : INTERNAL 2
OPTKBR

0.200000
8
8.000000
FILLER
RATIO
SPECTRUM
UNLOCKED 256

DOUBLE
64
COMBINED
1
0
0

1.000000
RATIO

1
0
TRUE
51149
0
LEFT NOT FITTED RIGHT NOT FITTED 0
NONE
NONE
15600
12
4.427000
51148
TRUE
1 0 8 72 0 0 0 0

15798

#HDR
-1
-1
#GR
CM-1
%T
2.38419e-05
0.0
5000
-1.000000
4631
8
73.2925
51.1179
#DATA
5000	64.8177
4984	65.005
4968	64.4866
4952	64.7019
4936	64.7102
4920	64.6183
4904	64.3576
4888	65.0046
4872	64.968
4856	64.644
4840	64.2039
4824	64.4838
4808	64.5703
4792	64.3691
4776	64.0927
4760	64.5534
4744	64.2466
4728	64.5794
4712	64.6631
4696	64.5545
4680	64.268
4664	64.5318
4648	64.3275
4632	64.543
4616	64.6871
4600	64.8797
4584	64.7772
4568	64.9099
4552	64.676
4536	64.813
4520	65.079
4504	65.2399
4488	65.6385
4472	64.4741
4456	64.7512
4440	65.4267
4424	61.679
4408	59.1789
4392	65.1437
4376	65.1532
4360	65.2927
4344	65.0932
4328	64.9016
4312	65.1165
4296	64.8238
4280	64.6835
4264	64.7889
4248	64.8981
4232	64.7874
4216	64.7474
4200	64.6342
4184	64.6204
4168	65.0085
4152	64.7209
4136	64.2434
4120	65.1084
4104	64.7725
4088	64.8106
4072	64.953
4056	64.8616
4040	64.712
4024	64.7611
4008	64.9991
3992	64.6668
3976	65.0778
3960	64.7584
3944	64.8968
3928	64.5153
3912	64.7835
3896	65.0321
3880	64.7918
3864	64.9972
3848	64.7763
3832	64.7439
3816	64.7858
3800	64.8273
3784	64.898
3768	64.8897
3752	64.7352
3736	65.0467
3720	64.6551
3704	64.9398
3688	64.95
3672	64.8659
3656	64.8342
3640	64.9371
3624	64.8197
3608	64.9834
3592	65.0503
3576	64.8444
3560	64.8239
3544	64.908
3528	64.9705
3512	65.0561
3496	64.8449
3480	64.7828
3464	65.0122
3448	64.9401
3432	64.784
3416	64.7583
3400	64.8541
3384	64.8173
3368	64.8167
3352	64.8302
3336	64.9173
3320	64.732
3304	64.692
3288	64.7224
3272	64.6943
3256	64.7149
3240	64.8534
3224	64.7835
3208	64.784
3192	64.8796
3176	64.7256
3160	64.926
3144	64.8088
3128	64.5948
3112	64.9876
3096	64.6589
3080	64.7125
3064	64.8946
3048	64.7327
3032	64.8417
3016	64.6973
3000	64.6869
2984	64.7174
2968	64.632
2952	64.5796
2936	64.565
2920	64.7578
2904	64.6881
2888	64.7123
2872	64.6581
2856	64.7336
2840	64.4778
2824	64.7358
2808	64.7198
2792	64.6339
2776	64.6686
2760	64.8156
2744	64.6692
2728	64.7025
2712	64.7452
2696	64.7192
2680	64.6904
2664	64.5939
2648	64.623
2632	64.6506
2616	64.6682
2600	64.5528
2584	64.5238
2568	64.5181
2552	64.5825
2536	64.6149
2520	64.6317
2504	64.5118
2488	64.477
2472	64.6458
2456	64.6764
2440	64.5838
2424	64.6214
2408	64.5231
2392	64.3802
2376	64.479
2360	64.4638
2344	64.4967
2328	64.4259
2312	64.56
2296	64.2998
2280	64.5034
2264	64.4133
2248	64.3485
2232	64.3787
2216	64.3575
2200	64.2678
2184	64.3137
2168	64.2281
2152	64.2879
2136	64.3011
2120	64.2341
2104	64.2948
2088	64.2455
2072	64.349
2056	64.2035
2040	64.2739
2024	64.1658
2008	64.0966
1992	64.108
1976	64.1617
1960	64.2798
1944	64.0808
1928	64.2277
1912	64.1999
1896	64.0641
1880	64.1388
1864	64.1255
1848	64.1043
1832	64.0093
1816	64.0619
1800	64.1136
1784	63.9828
1768	64.1132
1752	63.8632
1736	63.8191
1720	63.8842
1704	63.8631
1688	63.8608
1672	63.7415
1656	63.8028
1640	63.7
1624	63.992
1608	63.7621
1592	63.7163
1576	63.7617
1560	63.6834
1544	63.7723
1528	63.7406
1512	63.8227
1496	63.6674
1480	63.6901
1464	63.5622
1448	63.6372
1432	63.6729
1416	63.6127
1400	63.5566
1384	63.5241
1368	63.5627
1352	63.5267
1336	63.6124
1320	63.6224
1304	63.5523
1288	63.5236
1272	63.4823
1256	63.3859
1240	63.4068
1224	63.4785
1208	63.4401
1192	63.3203
1176	63.328
1160	63.1974
1144	63.305
1128	63.3192
1112	63.2426
1096	63.1334
1080	63.1832
1064	63.2314
1048	63.1052
1032	63.2392
1016	63.108
1000	63.113
984	 63.3663
968	 63.1211
952	 63.0695
936	 63.2594
920	 63.0661
904	 63.0583
888	 63.0385
872	 63.3604
856	 63.1715
840	 63.2695
824	 63.374
808	 63.3579
792	 63.0467
776	 63.0817
760	 62.5044
744	 62.3537
728	 62.638
712	 62.1975
696	 63.1587
680	 63.6106
664	 62.4872
648	 62.2576
632	 62.0555
616	 62.8109
600	 62.2916
584	 62.0982
568	 62.9354
552	 62.5832
536	 62.4081
520	 62.7455
504	 62.0363
488	 62.5832
472	 61.6103
456	 62.7183
440	 63.1912
424	 63.2388
408	 60.6057
392	 58.4764
376	 59.3188
370	 55.2502

File: BZ1503107-1_t73.asc
PE IR       SPECTRUM    SPECTRUM    ASCII       PEDS        1.60
  -1
BZ255F~1.ASC
17/04/07
19:15:46.00
17/04/07
19:16:12.00
tln
$BZ1503107-1_t0073$<tbV0>[-2.6,2.6,8.0,0.0,27,1,0]
27.028
64

2002,4.07
MIRTGS : RIGHTBACK : INTERNAL 2
MIR : ON : INTERNAL 2
OPTKBR

0.200000
8
8.000000
FILLER
RATIO
SPECTRUM
UNLOCKED 256

DOUBLE
64
COMBINED
1
0
0

0.002000
RATIO

1
0
TRUE
51149
0
LEFT NOT FITTED RIGHT NOT FITTED 0
NONE
NONE
15600
12
4.427000
51148
TRUE
1 0 8 72 0 0 0 0

15798

#HDR
-1
-1
#GR
µM
%T
2.38419e-05
0.0
2.000000
0.002000
12515
8
89.7969
54.2767
#DATA
2.000000	 65.5807
2.084000	 64.7705
2.168000	 65.0726
2.252000	 64.546
2.336000	 64.3644
2.420000	 64.6622
2.504000	 64.5432
2.588000	 65
2.672000	 65.2567
2.756000	 65.0611
2.840000	 65.0568
2.924000	 64.8135
3.008000	 65.0513
3.092000	 65.3936
3.176000	 64.9442
3.260000	 64.9596
3.344000	 64.7983
3.428000	 64.7038
3.512000	 64.864
3.596000	 64.8971
3.680000	 65.0149
3.764000	 64.8526
3.848000	 64.5575
3.932000	 64.7773
4.016000	 64.5146
4.100000	 64.5814
4.184000	 64.6405
4.268000	 64.6649
4.352000	 64.5502
4.436000	 64.596
4.520000	 64.5689
4.604000	 64.8536
4.688000	 64.5176
4.772000	 64.5096
4.856000	 64.476
4.940000	 64.4441
5.024000	 64.3917
5.108000	 64.3181
5.192000	 64.408
5.276000	 64.2842
5.359999	 64.2293
5.444000	 64.2582
5.528000	 64.2053
5.612000	 64.2549
5.696000	 64.099
5.780000	 64.0778
5.864000	 63.9158
5.948000	 64.104
6.032000	 64.0226
6.116000	 63.8095
6.200000	 64.1345
6.284000	 63.8298
6.368000	 63.8887
6.452000	 63.8762
6.536000	 63.9268
6.620000	 63.9156
6.704000	 63.8607
6.788000	 63.8939
6.872000	 63.7166
6.956000	 63.731
7.040000	 63.7578
7.124000	 63.7286
7.208000	 63.8328
7.292000	 63.6217
7.376000	 63.6813
7.460000	 63.7449
7.544000	 63.9212
7.628000	 63.6768
7.712000	 63.5741
7.796000	 63.614
7.880000	 63.5844
7.964000	 63.6752
8.048000	 63.5375
8.132000	 63.5573
8.216000	 63.488
8.300000	 63.6237
8.384000	 63.6675
8.468000	 63.6071
8.552000	 63.553
8.635999	 63.334
8.719999	 63.5173
8.804000	 63.5601
8.888000	 63.6619
8.972000	 63.4815
9.056000	 63.3489
9.140000	 63.2467
9.224000	 65.3556
9.308000	 63.1187
9.391999	 63.5027
9.475999	 63.4177
9.560000	 63.0668
9.644000	 63.2892
9.728000	 63.3513
9.812000	 63.405
9.896000	 63.4568
9.980000	 63.234
10.064	63.1851
10.148	63.4075
10.232	63.4656
10.316	63.3922
10.4	63.4244
10.484	63.3904
10.568	63.2604
10.652	63.4188
10.736	63.2206
10.82	63.1003
10.904	63.0654
10.988	63.1565
11.072	63.4674
11.156	63.4785
11.24	63.5057
11.324	63.4395
11.408	63.0667
11.492	63.3608
11.576	63.5097
11.66	63.3343
11.744	63.4164
11.828	63.31
11.912	63.3578
11.996	63.5259
12.08	63.6626
12.164	63.5166
12.248	63.6332
12.332	63.4765
12.416	63.1817
12.5	63.126
12.584	63.0745
12.668	63.0397
12.752	62.9109
12.836	62.8564
12.92	62.9948
13.004	63.091
13.088	62.791
13.172	62.6934
13.256	62.9451
13.34	62.8417
13.424	62.6214
13.508	62.7402
13.592	62.7234
13.676	62.6622
13.76	62.9499
13.844	63.1903
13.928	63.161
14.012	62.9527
14.096	62.5609
14.18	62.0702
14.264	61.7604
14.348	61.7645
14.432	62.0068
14.516	62.6017
14.6	63.0413
14.684	63.0526
14.768	63.2177
14.852	63.5037
14.936	63.3487
15.02	62.8531
15.104	62.802
15.188	63.1863
15.272	63.1672
15.356	62.7427
15.44	62.5134
15.524	62.4587
15.608	62.1596
15.692	61.7152
15.776	61.7862
15.86	62.2738
15.944	62.3574
16.028	62.1655
16.112	62.4101
16.196	62.9576
16.28	63.2671
16.364	63.3108
16.448	63.4532
16.532	63.7871
16.616	63.904
16.7	63.5146
16.784	62.9455
16.868	62.6309
16.952	62.6558
17.036	62.9135
17.12	63.2337
17.204	63.3798
17.288	63.2064
17.372	62.8543
17.456	62.6406
17.54	62.7233
17.624	62.9268
17.708	62.9873
17.792	62.859
17.876	62.6601
17.96	62.5073
18.044	62.4839
18.128	62.6072
18.212	62.7648
18.296	62.7939
18.38	62.6664
18.464	62.5132
18.548	62.4652
18.632	62.5291
18.716	62.6135
18.8	62.6193
18.884	62.5228
18.968	62.376
19.052	62.2521
19.136	62.2153
19.22	62.3034
19.304	62.5049
19.388	62.7526
19.472	62.9681
19.556	63.1076
19.64	63.158
19.724	63.1041
19.808	62.9599
19.892	62.8396
19.976	62.8991
20.06	63.1636
20.144	63.4589
20.228	63.5603
20.312	63.4086
20.396	63.1598
20.48	63.0191
20.564	63.0556
20.648	63.1736
20.732	63.2192
20.816	63.0992
20.9	62.8259
20.984	62.5048
21.068	62.2779
21.152	62.2357
21.236	62.3575
21.32	62.5271
21.404	62.6205
21.488	62.6161
21.572	62.5957
21.656	62.6689
21.74	62.8624
21.824	63.0754
21.908	63.1601
21.992	63.0513
22.076	62.8212
22.16	62.6397
22.244	62.6372
22.328	62.8264
22.412	63.1031
22.496	63.3287
22.58	63.4174
22.664	63.3393
22.748	63.086
22.832	62.6357
22.916	61.9691
23	61.1271
23.084	60.2383
23.168	59.5128
23.252	59.144
23.336	59.2447
23.42	59.7944
23.504	60.6895
23.588	61.8046
23.672	63.0373
23.756	64.297
23.84	65.4842
23.924	66.4421
24.008	67.0096
24.092	67.1051
24.176	66.7728
24.26	66.182
24.344	65.5813
24.428	65.1692
24.512	65.0139
24.596	65.056
24.68	65.173
24.764	65.2635
24.848	65.3483
24.932	65.5349
25.016	65.9368
25.1	66.6234
25.184	67.5072
25.268	68.3341
25.352	68.7811
25.436	68.521
25.52	67.3354
25.604	65.174
25.688	62.2896
25.772	59.1967
25.856	56.4986
25.94	54.738
26.024	54.3065
26.108	55.3557
26.192	57.6725
26.276	60.8205
26.36	64.3028
26.444	67.6986
26.528	70.7901
26.612	73.4949
26.696	75.9855
26.78	78.6377
26.864	81.817
26.948	85.671
27.028	89.7969

File: BZ1503107-1_t73_cm-1.asc
PE IR       SPECTRUM    SPECTRUM    ASCII       PEDS        1.60
  -1
BZ6BA6~1.ASC
17/04/07
19:15:46.00
17/04/07
19:15:46.00
tln
$BZ1503107-1_t0073$<tbV0>[-2.6,2.6,8.0,0.0,27,1,0]
370
64

2002,4.07
MIRTGS : RIGHTBACK : INTERNAL 2
MIR : ON : INTERNAL 2
OPTKBR

0.200000
8
8.000000
FILLER
RATIO
SPECTRUM
UNLOCKED 256

DOUBLE
64
COMBINED
1
0
0

1.000000
RATIO

1
0
TRUE
51149
0
LEFT NOT FITTED RIGHT NOT FITTED 0
NONE
NONE
15600
12
4.427000
51148
TRUE
1 0 8 72 0 0 0 0

15798

#HDR
-1
-1
#GR
CM-1
%T
2.38419e-05
0.0
5000
-1.000000
4631
8
89.7969
54.3866
#DATA
5000	65.5807
4984	64.1468
4968	64.5926
4952	64.823
4936	64.419
4920	64.5518
4904	64.6999
4888	64.615
4872	64.5781
4856	64.545
4840	64.7061
4824	64.4099
4808	64.7532
4792	64.5367
4776	64.575
4760	64.8992
4744	64.9474
4728	64.7537
4712	64.839
4696	64.8156
4680	64.2944
4664	64.706
4648	64.7214
4632	65.2517
4616	64.8802
4600	64.5438
4584	64.7226
4568	65.218
4552	64.3621
4536	64.7542
4520	64.4346
4504	65.1151
4488	65.0909
4472	64.665
4456	64.385
4440	64.5562
4424	60.4724
4408	75.8723
4392	65.3897
4376	64.4524
4360	65.3416
4344	64.7929
4328	63.6855
4312	62.1992
4296	64.8249
4280	64.3493
4264	64.6203
4248	64.7905
4232	64.6804
4216	64.8942
4200	64.8174
4184	65.0206
4168	64.8989
4152	64.6116
4136	64.4488
4120	64.9314
4104	64.5036
4088	64.8771
4072	64.9282
4056	65.02
4040	64.8837
4024	65.0173
4008	65.069
3992	64.54
3976	65.1478
3960	64.9894
3944	65.0526
3928	64.856
3912	65.1054
3896	65.1825
3880	65.1668
3864	65.0004
3848	64.7613
3832	64.9791
3816	65.0505
3800	65.3718
3784	64.9801
3768	64.9789
3752	65.1465
3736	65.0087
3720	64.81
3704	65.1565
3688	65.0659
3672	64.9318
3656	64.7494
3640	64.9568
3624	64.989
3608	65.1573
3592	64.923
3576	65.0756
3560	65.0304
3544	65.1041
3528	65.1254
3512	64.9099
3496	64.7089
3480	64.9421
3464	65.1611
3448	64.981
3432	64.6952
3416	64.7727
3400	64.843
3384	64.8026
3368	65.1731
3352	64.9722
3336	65.0852
3320	64.9067
3304	64.9999
3288	64.8675
3272	64.9662
3256	64.561
3240	66.1901
3224	65.2232
3208	64.7489
3192	65.0416
3176	65.091
3160	65.1102
3144	65.0631
3128	64.8446
3112	64.9748
3096	64.795
3080	64.7855
3064	65.077
3048	64.9861
3032	64.8767
3016	64.7897
3000	64.7885
2984	64.7545
2968	64.9559
2952	64.7103
2936	64.6485
2920	64.6547
2904	64.8088
2888	64.7274
2872	64.8425
2856	64.8045
2840	64.9155
2824	64.7759
2808	64.8779
2792	64.8606
2776	64.9492
2760	64.963
2744	64.9047
2728	64.9412
2712	64.841
2696	64.7234
2680	64.968
2664	64.8819
2648	64.7659
2632	64.7619
2616	64.847
2600	64.5756
2584	64.6077
2568	64.6762
2552	64.6179
2536	64.6973
2520	64.7812
2504	64.7538
2488	64.5085
2472	64.7377
2456	64.689
2440	64.5643
2424	64.8114
2408	64.4805
2392	64.6537
2376	64.5756
2360	64.6755
2344	64.6299
2328	64.6211
2312	64.7673
2296	64.5679
2280	64.5726
2264	64.5886
2248	64.536
2232	64.4713
2216	64.5648
2200	64.5181
2184	64.4884
2168	65.1113
2152	63.7466
2136	64.3626
2120	64.4669
2104	64.5325
2088	64.5335
2072	64.4841
2056	64.4537
2040	64.3022
2024	64.4461
2008	64.3246
1992	64.4119
1976	64.2601
1960	64.3343
1944	64.3164
1928	64.3904
1912	64.4454
1896	64.2921
1880	64.2483
1864	64.2401
1848	64.35
1832	64.2162
1816	64.2257
1800	64.3064
1784	64.3178
1768	64.2041
1752	64.0035
1736	63.9776
1720	64.0322
1704	63.8954
1688	64.0765
1672	63.9949
1656	64.0284
1640	63.8662
1624	64.1133
1608	64.0053
1592	63.8406
1576	63.9272
1560	63.8214
1544	63.9154
1528	63.9292
1512	63.9042
1496	63.6822
1480	63.9652
1464	63.6792
1448	63.9567
1432	63.8175
1416	63.8143
1400	63.8065
1384	63.7496
1368	63.6526
1352	63.6489
1336	63.8152
1320	63.8861
1304	63.7197
1288	63.4996
1272	63.5253
1256	63.6769
1240	63.513
1224	63.6153
1208	63.558
1192	63.6395
1176	63.5233
1160	63.2715
1144	63.5009
1128	63.6299
1112	63.4601
1096	63.1971
1080	66.806
1064	63.4758
1048	63.1152
1032	63.2677
1016	63.4218
1000	63.2004
984	 63.403
968	 63.3863
952	 63.3282
936	 63.3537
920	 63.092
904	 63.45
888	 63.5309
872	 63.2172
856	 63.3606
840	 63.3495
824	 63.55
808	 63.2923
792	 63.0532
776	 62.9296
760	 62.6669
744	 62.6238
728	 62.8483
712	 62.8197
696	 61.7954
680	 63.0628
664	 62.7387
648	 62.5216
632	 62.0638
616	 63.1438
600	 63.72
584	 63.2442
568	 62.8875
552	 62.5835
536	 62.5571
520	 62.3238
504	 62.8995
488	 63.014
472	 62.2713
456	 63.1505
440	 63.1657
424	 61.7611
408	 65.0151
392	 67.5255
376	 72.9962
370	 89.7969