Folder: Masteroppgave/Bakgrunnsmateriale/MATLAB/FTIR/ftir_data/subAa/Mapping_121 (part 36)

File: BZ1503107-1_t81_cm-1.asc
PE IR       SPECTRUM    SPECTRUM    ASCII       PEDS        1.60
  -1
BZ6926~1.ASC
17/04/07
19:53:20.00
17/04/07
19:53:20.00
tln
$BZ1503107-1_t0081$<tbV0>[5.2,5.2,8.0,0.0,27,1,0]
370
64

2002,4.07
MIRTGS : RIGHTBACK : INTERNAL 2
MIR : ON : INTERNAL 2
OPTKBR

0.200000
8
8.000000
FILLER
RATIO
SPECTRUM
UNLOCKED 256

DOUBLE
64
COMBINED
1
0
0

1.000000
RATIO

1
0
TRUE
51149
0
LEFT NOT FITTED RIGHT NOT FITTED 0
NONE
NONE
15600
12
4.427000
51148
TRUE
1 0 8 72 0 0 0 0

15798

#HDR
-1
-1
#GR
CM-1
%T
2.38419e-05
0.0
5000
-1.000000
4631
8
71.5462
47.4423
#DATA
5000	66.1013
4984	65.8083
4968	65.2039
4952	62.9093
4936	64.7587
4920	65.3125
4904	65.3057
4888	65.5499
4872	64.9515
4856	65.0199
4840	64.549
4824	64.5874
4808	64.5633
4792	64.7009
4776	64.7336
4760	65.061
4744	64.5433
4728	64.7805
4712	64.776
4696	64.8277
4680	64.5165
4664	64.6707
4648	65.0251
4632	64.9981
4616	64.9625
4600	64.7456
4584	65.0868
4568	64.9877
4552	64.9062
4536	64.5839
4520	65.0137
4504	65.4519
4488	65.1355
4472	64.5982
4456	64.2098
4440	50.9682
4424	64.9198
4408	67.3502
4392	64.1776
4376	64.4595
4360	65.2871
4344	65.4562
4328	64.8726
4312	64.9707
4296	64.7907
4280	64.9152
4264	64.8226
4248	64.9075
4232	64.8672
4216	64.9971
4200	65.0994
4184	65.0018
4168	65.2111
4152	64.8472
4136	64.7829
4120	64.9276
4104	64.8048
4088	64.8394
4072	64.8216
4056	64.974
4040	64.8452
4024	65.0241
4008	65.0184
3992	64.8113
3976	64.813
3960	64.977
3944	65.1302
3928	64.882
3912	65.0575
3896	64.8003
3880	65.0497
3864	65.0176
3848	64.8856
3832	65.1158
3816	64.9789
3800	65.1494
3784	65.2648
3768	64.9937
3752	65.0946
3736	65.056
3720	65.0284
3704	64.9964
3688	65.0777
3672	65.1304
3656	65.0062
3640	64.9867
3624	64.8149
3608	64.9891
3592	64.9846
3576	65.0084
3560	65.0553
3544	65.0025
3528	65.0443
3512	65.0495
3496	64.9555
3480	64.9915
3464	65.0428
3448	65.0451
3432	64.7533
3416	64.9761
3400	64.87
3384	64.9518
3368	64.932
3352	64.8919
3336	64.9276
3320	64.8069
3304	64.885
3288	64.8222
3272	64.8835
3256	64.7554
3240	64.8874
3224	64.9019
3208	64.9885
3192	64.9176
3176	64.9238
3160	64.9552
3144	64.9994
3128	64.8435
3112	64.8767
3096	64.7943
3080	64.8873
3064	64.9454
3048	65.029
3032	64.7502
3016	64.7446
3000	64.7515
2984	64.8699
2968	64.8467
2952	64.6529
2936	64.7878
2920	64.7469
2904	64.7189
2888	64.7733
2872	64.7104
2856	64.678
2840	64.7298
2824	64.7751
2808	64.9281
2792	64.7128
2776	64.7376
2760	64.7894
2744	64.7088
2728	64.7791
2712	64.7852
2696	64.695
2680	64.8347
2664	64.6485
2648	64.6355
2632	64.6822
2616	64.6072
2600	64.6355
2584	64.6091
2568	64.637
2552	64.7137
2536	64.6423
2520	64.6382
2504	64.6414
2488	64.635
2472	64.499
2456	64.6826
2440	64.5499
2424	64.5736
2408	64.6184
2392	64.5974
2376	64.484
2360	64.4656
2344	64.4391
2328	64.5928
2312	64.5015
2296	64.3469
2280	64.4937
2264	64.5608
2248	64.4004
2232	64.5031
2216	64.4441
2200	64.4344
2184	64.4353
2168	64.3656
2152	64.346
2136	64.458
2120	64.4265
2104	64.4427
2088	64.4816
2072	64.4478
2056	64.3247
2040	64.2025
2024	64.3357
2008	64.3061
1992	64.3022
1976	64.3117
1960	64.2057
1944	64.1877
1928	64.1945
1912	64.2199
1896	64.1094
1880	64.095
1864	64.1495
1848	64.0999
1832	64.0873
1816	64.1592
1800	64.0353
1784	64.0645
1768	64.0709
1752	63.8967
1736	63.8289
1720	63.9267
1704	63.7956
1688	64.0206
1672	63.776
1656	63.8699
1640	63.8179
1624	64.0695
1608	63.7807
1592	63.7017
1576	63.7046
1560	63.7093
1544	63.8415
1528	63.7966
1512	63.7717
1496	63.6785
1480	63.7534
1464	63.6009
1448	63.7068
1432	63.7508
1416	63.7007
1400	63.6198
1384	63.5736
1368	63.5744
1352	63.5545
1336	63.6695
1320	63.5649
1304	63.5579
1288	63.5329
1272	63.503
1256	63.4585
1240	63.3793
1224	63.4929
1208	63.2609
1192	63.4542
1176	63.2689
1160	63.2228
1144	63.42
1128	63.2402
1112	63.113
1096	63.2029
1080	63.2559
1064	63.347
1048	63.2962
1032	63.1696
1016	63.115
1000	63.3252
984	 63.2691
968	 63.1119
952	 63.3473
936	 63.1501
920	 63.3405
904	 63.3675
888	 63.1379
872	 63.3124
856	 63.0929
840	 63.1269
824	 63.3914
808	 62.9907
792	 62.8208
776	 62.956
760	 62.7391
744	 62.799
728	 62.7617
712	 62.7948
696	 62.6709
680	 63.1831
664	 62.5487
648	 62.8077
632	 62.0702
616	 62.6661
600	 62.3932
584	 62.2583
568	 62.4836
552	 63.2681
536	 64.0905
520	 62.0982
504	 61.9347
488	 64.0669
472	 61.9803
456	 62.6067
440	 62.0693
424	 61.0963
408	 61.8864
392	 51.0357
376	 59.7613
370	 68.1833

File: BZ1503107-1_t82.asc
PE IR       SPECTRUM    SPECTRUM    ASCII       PEDS        1.60
  -1
BZ2155~1.ASC
17/04/07
19:57:57.00
17/04/07
19:58:23.00
tln
$BZ1503107-1_t0082$<tbV0>[2.6,5.2,8.0,0.0,27,1,0]
27.028
64

2002,4.07
MIRTGS : RIGHTBACK : INTERNAL 2
MIR : ON : INTERNAL 2
OPTKBR

0.200000
8
8.000000
FILLER
RATIO
SPECTRUM
UNLOCKED 256

DOUBLE
64
COMBINED
1
0
0

0.002000
RATIO

1
0
TRUE
51149
0
LEFT NOT FITTED RIGHT NOT FITTED 0
NONE
NONE
15600
12
4.427000
51148
TRUE
1 0 8 72 0 0 0 0

15798

#HDR
-1
-1
#GR
µM
%T
2.38419e-05
0.0
2.000000
0.002000
12515
8
81.3865
51.2503
#DATA
2.000000	 66.2346
2.084000	 64.4986
2.168000	 64.6456
2.252000	 71.7499
2.336000	 64.8745
2.420000	 65.1368
2.504000	 64.81
2.588000	 64.7508
2.672000	 65.132
2.756000	 65.046
2.840000	 65.0939
2.924000	 65.0521
3.008000	 64.946
3.092000	 65.0784
3.176000	 64.9505
3.260000	 64.9676
3.344000	 64.953
3.428000	 64.6652
3.512000	 64.7075
3.596000	 64.7893
3.680000	 64.8119
3.764000	 64.7087
3.848000	 64.6709
3.932000	 64.6454
4.016000	 64.675
4.100000	 64.6213
4.184000	 64.5852
4.268000	 64.4879
4.352000	 64.4635
4.436000	 64.564
4.520000	 64.406
4.604000	 64.3753
4.688000	 64.409
4.772000	 64.3564
4.856000	 64.4116
4.940000	 64.3154
5.024000	 64.1596
5.108000	 64.3148
5.192000	 64.2912
5.276000	 64.1175
5.359999	 64.2237
5.444000	 64.0764
5.528000	 64.1845
5.612000	 64.0645
5.696000	 63.989
5.780000	 63.8658
5.864000	 63.8644
5.948000	 63.7333
6.032000	 63.8299
6.116000	 63.7507
6.200000	 63.9244
6.284000	 63.7744
6.368000	 63.9413
6.452000	 63.8051
6.536000	 63.825
6.620000	 63.8912
6.704000	 63.7729
6.788000	 63.6773
6.872000	 63.8871
6.956000	 63.7258
7.040000	 63.6696
7.124000	 63.576
7.208000	 63.5876
7.292000	 63.4853
7.376000	 63.4864
7.460000	 63.5968
7.544000	 63.6125
7.628000	 63.5723
7.712000	 63.5048
7.796000	 63.5201
7.880000	 63.4565
7.964000	 63.4008
8.048000	 63.4169
8.132000	 63.4675
8.216000	 63.3829
8.300000	 63.5053
8.384000	 63.4636
8.468000	 63.4285
8.552000	 63.202
8.635999	 63.2079
8.719999	 63.2779
8.804000	 63.4094
8.888000	 63.2925
8.972000	 63.3113
9.056000	 63.2501
9.140000	 63.2291
9.224000	 63.3395
9.308000	 63.3194
9.391999	 63.2731
9.475999	 63.2484
9.560000	 63.2305
9.644000	 63.0756
9.728000	 63.2542
9.812000	 63.1479
9.896000	 63.262
9.980000	 63.2521
10.064	63.0339
10.148	63.1454
10.232	63.3223
10.316	63.217
10.4	63.1773
10.484	63.2226
10.568	63.187
10.652	63.1751
10.736	63.0419
10.82	63.1434
10.904	63.06
10.988	63.2647
11.072	63.2706
11.156	63.1869
11.24	63.3258
11.324	63.4012
11.408	63.2379
11.492	63.2281
11.576	63.1438
11.66	63.1129
11.744	62.9895
11.828	62.9443
11.912	63.0128
11.996	63.1046
12.08	63.2916
12.164	63.3964
12.248	63.1899
12.332	63.0375
12.416	63.2213
12.5	63.1529
12.584	62.9412
12.668	63.0744
12.752	63.2714
12.836	63.41
12.92	63.2283
13.004	62.9013
13.088	62.8521
13.172	62.9577
13.256	63.0342
13.34	63.1525
13.424	63.1892
13.508	63.0005
13.592	62.8145
13.676	62.7555
13.76	62.8284
13.844	62.8629
13.928	62.8509
14.012	62.9445
14.096	62.868
14.18	62.5826
14.264	62.4773
14.348	62.5653
14.432	62.7128
14.516	62.9163
14.6	63.0626
14.684	63.1608
14.768	63.2275
14.852	63.1915
14.936	62.9231
15.02	62.5497
15.104	62.5571
15.188	62.7389
15.272	62.634
15.356	62.4564
15.44	62.3655
15.524	62.2116
15.608	61.9589
15.692	61.8154
15.776	62.1007
15.86	62.64
15.944	62.8697
16.028	62.7907
16.112	62.788
16.196	62.9162
16.28	63.0865
16.364	63.2616
16.448	63.359
16.532	63.4063
16.616	63.3998
16.7	63.1488
16.784	62.7106
16.868	62.4371
16.952	62.3984
17.036	62.393
17.12	62.4121
17.204	62.5719
17.288	62.8423
17.372	63.122
17.456	63.301
17.54	63.2464
17.624	62.9841
17.708	62.7625
17.792	62.7287
17.876	62.7589
17.96	62.7519
18.044	62.7818
18.128	62.8244
18.212	62.6979
18.296	62.3865
18.38	62.1229
18.464	62.0151
18.548	61.8647
18.632	61.5023
18.716	61.0663
18.8	60.8604
18.884	61.0866
18.968	61.6949
19.052	62.3804
19.136	62.8
19.22	62.8563
19.304	62.7704
19.388	62.7878
19.472	62.9109
19.556	62.9913
19.64	62.9898
19.724	62.9715
19.808	62.9405
19.892	62.8588
19.976	62.7798
20.06	62.8331
20.144	63.0286
20.228	63.152
20.312	62.9553
20.396	62.4409
20.48	61.9094
20.564	61.7081
20.648	61.9518
20.732	62.4585
20.816	62.8914
20.9	62.9953
20.984	62.7488
21.068	62.3388
21.152	62.0105
21.236	61.9158
21.32	62.0652
21.404	62.3653
21.488	62.6938
21.572	62.9476
21.656	63.0683
21.74	63.0589
21.824	62.9935
21.908	62.9999
21.992	63.1816
22.076	63.5391
22.16	63.9511
22.244	64.231
22.328	64.2378
22.412	63.9436
22.496	63.4407
22.58	62.8672
22.664	62.3413
22.748	61.9222
22.832	61.6151
22.916	61.4114
23	61.3187
23.084	61.3402
23.168	61.483
23.252	61.7439
23.336	62.0798
23.42	62.4327
23.504	62.7323
23.588	62.9181
23.672	62.9568
23.756	62.8485
23.84	62.6201
23.924	62.3252
24.008	62.0381
24.092	61.8505
24.176	61.8558
24.26	62.0984
24.344	62.5296
24.428	62.987
24.512	63.1886
24.596	62.8462
24.68	61.7636
24.764	59.942
24.848	57.6167
24.932	55.2066
25.016	53.1567
25.1	51.8044
25.184	51.2691
25.268	51.4314
25.352	52.0634
25.436	52.8611
25.52	53.5925
25.604	54.1875
25.688	54.6794
25.772	55.1533
25.856	55.6738
25.94	56.2149
26.024	56.6715
26.108	56.9285
26.192	56.8946
26.276	56.5743
26.36	56.142
26.444	55.8031
26.528	55.7454
26.612	56.1798
26.696	57.2681
26.78	59.0508
26.864	61.4518
26.948	64.4035
27.028	67.7509

File: BZ1503107-1_t82_cm-1.asc
PE IR       SPECTRUM    SPECTRUM    ASCII       PEDS        1.60
  -1
BZ6A26~1.ASC
17/04/07
19:57:57.00
17/04/07
19:57:57.00
tln
$BZ1503107-1_t0082$<tbV0>[2.6,5.2,8.0,0.0,27,1,0]
370
64

2002,4.07
MIRTGS : RIGHTBACK : INTERNAL 2
MIR : ON : INTERNAL 2
OPTKBR

0.200000
8
8.000000
FILLER
RATIO
SPECTRUM
UNLOCKED 256

DOUBLE
64
COMBINED
1
0
0

1.000000
RATIO

1
0
TRUE
51149
0
LEFT NOT FITTED RIGHT NOT FITTED 0
NONE
NONE
15600
12
4.427000
51148
TRUE
1 0 8 72 0 0 0 0

15798

#HDR
-1
-1
#GR
CM-1
%T
2.38419e-05
0.0
5000
-1.000000
4631
8
81.802
51.2605
#DATA
5000	66.2346
4984	65.0765
4968	64.288
4952	64.9375
4936	65.5244
4920	64.9499
4904	64.5394
4888	64.3925
4872	64.8994
4856	64.3832
4840	64.5612
4824	64.5882
4808	64.4646
4792	64.5361
4776	65.0019
4760	65.0087
4744	64.8674
4728	64.9227
4712	64.847
4696	64.9062
4680	64.7433
4664	65.1621
4648	64.7011
4632	64.7452
4616	64.6812
4600	64.3718
4584	64.7235
4568	64.3498
4552	64.548
4536	64.4287
4520	64.3604
4504	64.6693
4488	64.2591
4472	64.42
4456	64.2912
4440	72.4674
4424	67.5035
4408	66.2973
4392	63.9433
4376	63.9494
4360	64.9022
4344	64.8523
4328	64.6895
4312	64.4375
4296	64.8034
4280	64.8689
4264	64.9583
4248	64.7725
4232	64.6801
4216	64.8577
4200	65.1657
4184	64.7166
4168	64.9934
4152	64.7502
4136	64.8952
4120	65.1101
4104	64.9432
4088	65.065
4072	65.1625
4056	65.2081
4040	65.1002
4024	65.1356
4008	64.9327
3992	64.8093
3976	64.8209
3960	64.9592
3944	64.804
3928	64.7694
3912	64.8478
3896	65.0705
3880	64.9038
3864	64.7511
3848	64.8262
3832	64.8622
3816	64.791
3800	65.1113
3784	65.2731
3768	64.9769
3752	64.8391
3736	65.1897
3720	64.9364
3704	65.0719
3688	65.0761
3672	65.2056
3656	64.9168
3640	65.1511
3624	65.0325
3608	65.1052
3592	65.1594
3576	65.0248
3560	64.9074
3544	65.1202
3528	65.1337
3512	64.94
3496	65.034
3480	64.9527
3464	64.955
3448	65.1315
3432	64.8689
3416	64.9836
3400	64.8313
3384	64.9239
3368	64.9997
3352	64.9115
3336	64.9703
3320	64.978
3304	64.9708
3288	64.9982
3272	64.9068
3256	64.7782
3240	64.9883
3224	65.0312
3208	64.9512
3192	65.0162
3176	64.8692
3160	65.0167
3144	64.9552
3128	64.8751
3112	64.9412
3096	64.8566
3080	64.8895
3064	64.983
3048	64.9431
3032	64.8296
3016	64.8262
3000	65.034
2984	64.9904
2968	64.7499
2952	64.6576
2936	64.8878
2920	64.7119
2904	64.9423
2888	64.7875
2872	64.731
2856	64.8596
2840	64.7497
2824	64.7528
2808	64.8685
2792	64.6476
2776	64.8435
2760	64.9072
2744	64.8518
2728	64.8165
2712	64.7857
2696	64.7978
2680	64.7894
2664	64.7471
2648	64.7889
2632	64.7287
2616	64.7218
2600	64.6713
2584	64.7151
2568	64.6386
2552	64.5987
2536	64.7867
2520	64.6436
2504	64.6641
2488	64.696
2472	64.6118
2456	64.6166
2440	64.6279
2424	64.7164
2408	64.6169
2392	64.5778
2376	64.6541
2360	64.5452
2344	64.4884
2328	64.5256
2312	64.5744
2296	64.388
2280	64.5764
2264	64.5082
2248	64.4596
2232	64.498
2216	64.4267
2200	64.4213
2184	64.4484
2168	64.4183
2152	64.3903
2136	64.4087
2120	64.314
2104	64.3959
2088	64.4266
2072	64.4109
2056	64.3672
2040	64.3196
2024	64.3175
2008	64.2722
1992	64.1929
1976	64.2903
1960	64.3394
1944	64.2761
1928	64.2511
1912	64.3281
1896	64.1191
1880	64.207
1864	64.2134
1848	64.131
1832	64.0288
1816	64.1103
1800	64.1385
1784	64.0783
1768	64.1053
1752	63.879
1736	63.7344
1720	63.8009
1704	63.8566
1688	63.9312
1672	63.7999
1656	63.8376
1640	63.8288
1624	63.9705
1608	63.8238
1592	63.7773
1576	63.8901
1560	63.6972
1544	63.9052
1528	63.8179
1512	63.8821
1496	63.7303
1480	63.7609
1464	63.7643
1448	63.748
1432	63.7991
1416	63.6344
1400	63.571
1384	63.5462
1368	63.4975
1352	63.5048
1336	63.606
1320	63.516
1304	63.5267
1288	63.5431
1272	63.4081
1256	63.3971
1240	63.4461
1224	63.57
1208	63.4887
1192	63.4525
1176	63.376
1160	63.1805
1144	63.3178
1128	63.3066
1112	63.2787
1096	63.2103
1080	63.3105
1064	63.2787
1048	63.2168
1032	63.1799
1016	63.2213
1000	63.1967
984	 63.1861
968	 63.192
952	 63.2113
936	 63.062
920	 63.0709
904	 63.284
888	 63.3801
872	 63.2411
856	 63.0927
840	 63.0053
824	 63.4027
808	 63.1149
792	 62.9814
776	 63.344
760	 62.9418
744	 63.1657
728	 62.801
712	 62.9532
696	 62.5947
680	 63.1842
664	 62.4943
648	 62.3745
632	 62.4095
616	 62.989
600	 63.2852
584	 62.4153
568	 63.048
552	 62.8247
536	 61.3682
520	 62.8471
504	 62.9143
488	 61.8553
472	 61.9396
456	 63.0276
440	 62.0148
424	 62.9138
408	 63.1896
392	 53.5143
376	 56.0454
370	 67.7509

File: BZ1503107-1_t83.asc
PE IR       SPECTRUM    SPECTRUM    ASCII       PEDS        1.60
  -1
BZ2555~1.ASC
17/04/07
20:02:34.00
17/04/07
20:03:00.00
tln
$BZ1503107-1_t0083$<tbV0>[0.0,5.2,8.0,0.0,27,1,0]
27.028
64

2002,4.07
MIRTGS : RIGHTBACK : INTERNAL 2
MIR : ON : INTERNAL 2
OPTKBR

0.200000
8
8.000000
FILLER
RATIO
SPECTRUM
UNLOCKED 256

DOUBLE
64
COMBINED
1
0
0

0.002000
RATIO

1
0
TRUE
51149
0
LEFT NOT FITTED RIGHT NOT FITTED 0
NONE
NONE
15600
12
4.427000
51148
TRUE
1 0 8 72 0 0 0 0

15798

#HDR
-1
-1
#GR
µM
%T
2.38419e-05
0.0
2.000000
0.002000
12515
8
77.4987
47.3621
#DATA
2.000000	 64.054
2.084000	 64.7489
2.168000	 64.817
2.252000	 66.4475
2.336000	 64.7778
2.420000	 64.9492
2.504000	 64.6111
2.588000	 65.053
2.672000	 65.0234
2.756000	 64.9211
2.840000	 65.148
2.924000	 64.8863
3.008000	 64.8307
3.092000	 65.0535
3.176000	 65.0855
3.260000	 64.9401
3.344000	 64.821
3.428000	 64.7659
3.512000	 64.5503
3.596000	 64.8174
3.680000	 64.8616
3.764000	 64.7621
3.848000	 64.7767
3.932000	 64.6803
4.016000	 64.6006
4.100000	 64.5513
4.184000	 64.4885
4.268000	 64.5154
4.352000	 64.4145
4.436000	 64.514
4.520000	 64.4222
4.604000	 64.413
4.688000	 64.3508
4.772000	 64.2827
4.856000	 64.2169
4.940000	 64.3943
5.024000	 64.1797
5.108000	 64.3303
5.192000	 64.2611
5.276000	 64.2851
5.359999	 64.1832
5.444000	 64.1572
5.528000	 64.1927
5.612000	 64.108
5.696000	 63.9896
5.780000	 63.8514
5.864000	 63.8234
5.948000	 63.8451
6.032000	 63.9082
6.116000	 63.7617
6.200000	 63.8966
6.284000	 63.7367
6.368000	 63.8773
6.452000	 63.7545
6.536000	 63.8124
6.620000	 63.8996
6.704000	 63.6762
6.788000	 63.651
6.872000	 63.6467
6.956000	 63.8009
7.040000	 63.7419
7.124000	 63.4923
7.208000	 63.5751
7.292000	 63.579
7.376000	 63.4388
7.460000	 63.6181
7.544000	 63.6646
7.628000	 63.4574
7.712000	 63.4885
7.796000	 63.3859
7.880000	 63.4091
7.964000	 63.3277
8.048000	 63.4823
8.132000	 63.4146
8.216000	 63.495
8.300000	 63.3421
8.384000	 63.3814
8.468000	 63.3102
8.552000	 63.3169
8.635999	 63.2802
8.719999	 63.3535
8.804000	 63.3602
8.888000	 63.4114
8.972000	 63.2819
9.056000	 63.193
9.140000	 63.2481
9.224000	 63.3411
9.308000	 63.3152
9.391999	 63.3677
9.475999	 63.3364
9.560000	 63.1733
9.644000	 63.0572
9.728000	 63.1096
9.812000	 63.2117
9.896000	 63.2239
9.980000	 63.3758
10.064	63.3097
10.148	63.3453
10.232	63.4095
10.316	63.0106
10.4	63.1765
10.484	63.1878
10.568	63.1161
10.652	63.3
10.736	63.1599
10.82	63.3506
10.904	63.2567
10.988	63.1907
11.072	63.2757
11.156	63.1736
11.24	63.2705
11.324	63.2559
11.408	63.2532
11.492	63.5115
11.576	63.3448
11.66	63.1628
11.744	63.0281
11.828	63.1011
11.912	63.1072
11.996	63.1748
12.08	63.0981
12.164	63.1602
12.248	63.0671
12.332	62.9944
12.416	62.9314
12.5	62.7695
12.584	62.7599
12.668	62.8545
12.752	62.8778
12.836	62.9541
12.92	63.0559
13.004	63.0152
13.088	62.8896
13.172	62.8662
13.256	62.9479
13.34	63.0179
13.424	63.0392
13.508	62.987
13.592	62.8529
13.676	62.861
13.76	62.8781
13.844	62.7776
13.928	62.8017
14.012	63.0009
14.096	62.9539
14.18	62.7606
14.264	62.7832
14.348	62.845
14.432	62.9659
14.516	63.1128
14.6	63.076
14.684	63.106
14.768	63.2039
14.852	63.0745
14.936	62.7082
15.02	62.4989
15.104	62.777
15.188	63.0247
15.272	62.8135
15.356	62.489
15.44	62.3354
15.524	62.3575
15.608	62.4199
15.692	62.3765
15.776	62.4036
15.86	62.62
15.944	62.704
16.028	62.5363
16.112	62.4317
16.196	62.5295
16.28	62.7042
16.364	62.8765
16.448	62.9985
16.532	63.046
16.616	62.9821
16.7	62.7053
16.784	62.3183
16.868	62.2005
16.952	62.5296
17.036	62.9811
17.12	63.1444
17.204	62.9859
17.288	62.7264
17.372	62.5094
17.456	62.3893
17.54	62.4143
17.624	62.5024
17.708	62.5256
17.792	62.5531
17.876	62.721
17.96	62.9204
18.044	62.8934
18.128	62.5888
18.212	62.2722
18.296	62.2866
18.38	62.7356
18.464	63.3197
18.548	63.5306
18.632	63.0952
18.716	62.1921
18.8	61.2351
18.884	60.5781
18.968	60.3811
19.052	60.5546
19.136	60.8241
19.22	60.9441
19.304	60.9465
19.388	61.0905
19.472	61.5455
19.556	62.1918
19.64	62.7531
19.724	63.0564
19.808	63.1314
19.892	63.1146
19.976	63.1138
20.06	63.1572
20.144	63.224
20.228	63.2816
20.312	63.3051
20.396	63.2894
20.48	63.2725
20.564	63.3172
20.648	63.4688
20.732	63.7043
20.816	63.921
20.9	63.9768
20.984	63.7576
21.068	63.2441
21.152	62.5608
21.236	61.9481
21.32	61.6618
21.404	61.8341
21.488	62.3734
21.572	63.001
21.656	63.4073
21.74	63.4213
21.824	63.1003
21.908	62.6849
21.992	62.4377
22.076	62.5008
22.16	62.8254
22.244	63.2026
22.328	63.4022
22.412	63.3009
22.496	62.9581
22.58	62.5671
22.664	62.3397
22.748	62.3844
22.832	62.6493
22.916	62.974
23	63.1968
23.084	63.2428
23.168	63.1562
23.252	63.0467
23.336	63.0062
23.42	63.0444
23.504	63.0986
23.588	63.0778
23.672	62.9276
23.756	62.6657
23.84	62.358
23.924	62.0809
24.008	61.8741
24.092	61.7266
24.176	61.6052
24.26	61.4717
24.344	61.2914
24.428	61.0432
24.512	60.7249
24.596	60.321
24.68	59.8262
24.764	59.2805
24.848	58.7602
24.932	58.367
25.016	58.1857
25.1	58.261
25.184	58.5544
25.268	58.9562
25.352	59.3457
25.436	59.6354
25.52	59.8316
25.604	60.036
25.688	60.4267
25.772	61.1609
25.856	62.2615
25.94	63.5687
26.024	64.7207
26.108	65.258
26.192	64.7493
26.276	62.9592
26.36	59.9763
26.444	56.2386
26.528	52.439
26.612	49.339
26.696	47.6002
26.78	47.579
26.864	49.2863
26.948	52.396
27.028	56.0812

File: BZ1503107-1_t83_cm-1.asc
PE IR       SPECTRUM    SPECTRUM    ASCII       PEDS        1.60
  -1
BZ6B26~1.ASC
17/04/07
20:02:34.00
17/04/07
20:02:34.00
tln
$BZ1503107-1_t0083$<tbV0>[0.0,5.2,8.0,0.0,27,1,0]
370
64

2002,4.07
MIRTGS : RIGHTBACK : INTERNAL 2
MIR : ON : INTERNAL 2
OPTKBR

0.200000
8
8.000000
FILLER
RATIO
SPECTRUM
UNLOCKED 256

DOUBLE
64
COMBINED
1
0
0

1.000000
RATIO

1
0
TRUE
51149
0
LEFT NOT FITTED RIGHT NOT FITTED 0
NONE
NONE
15600
12
4.427000
51148
TRUE
1 0 8 72 0 0 0 0

15798

#HDR
-1
-1
#GR
CM-1
%T
2.38419e-05
0.0
5000
-1.000000
4631
8
78.435
47.3621
#DATA
5000	64.054
4984	64.6902
4968	66.046
4952	65.2119
4936	65.1267
4920	64.5046
4904	64.7695
4888	64.9288
4872	65.0594
4856	64.6607
4840	64.6324
4824	64.585
4808	64.5496
4792	65.0199
4776	64.7249
4760	64.8854
4744	65.2349
4728	65.2654
4712	64.9258
4696	65.1809
4680	64.5315
4664	64.7552
4648	64.3481
4632	64.9478
4616	64.8862
4600	64.4907
4584	64.8427
4568	64.7884
4552	64.4811
4536	64.5956
4520	64.3848
4504	64.3743
4488	64.9198
4472	63.9153
4456	64.5921
4440	66.7397
4424	67.3758
4408	67.0982
4392	63.1056
4376	63.7311
4360	64.5432
4344	64.6457
4328	64.4297
4312	64.5077
4296	64.6878
4280	64.7958
4264	64.9727
4248	64.8009
4232	64.5076
4216	64.5826
4200	64.6758
4184	65.0192
4168	65.1578
4152	64.826
4136	64.7773
4120	64.9661
4104	65.2594
4088	65.0095
4072	64.7685
4056	65.0893
4040	65.0488
4024	64.9798
4008	65.0548
3992	64.6463
3976	65.2667
3960	64.9528
3944	64.9738
3928	64.7511
3912	65.0307
3896	65.1747
3880	64.9485
3864	65.0532
3848	64.8736
3832	64.69
3816	64.8533
3800	65.0037
3784	65.1404
3768	64.8313
3752	64.9023
3736	65.1119
3720	65.0158
3704	65.0587
3688	65.1786
3672	65.1721
3656	65.1011
3640	65.0633
3624	64.9752
3608	65.1651
3592	65.0326
3576	65.0259
3560	64.9434
3544	64.9266
3528	65.2138
3512	65.1066
3496	65.0416
3480	65.0043
3464	65.0103
3448	65.1889
3432	64.7694
3416	64.8844
3400	64.9441
3384	64.8734
3368	64.8475
3352	65.0042
3336	65.149
3320	64.7752
3304	64.9405
3288	65.0006
3272	64.8334
3256	64.8413
3240	65.0045
3224	64.9813
3208	64.945
3192	64.9022
3176	64.9088
3160	65.0946
3144	65.0998
3128	64.6523
3112	64.8714
3096	64.7519
3080	64.8793
3064	65.0317
3048	64.9188
3032	64.7912
3016	64.9225
3000	64.9352
2984	64.694
2968	64.7954
2952	64.6048
2936	64.7674
2920	64.7688
2904	64.7346
2888	64.6687
2872	64.7712
2856	64.6917
2840	64.6774
2824	64.8338
2808	64.8349
2792	64.7594
2776	64.8709
2760	64.8368
2744	64.8817
2728	64.811
2712	64.8046
2696	64.771
2680	64.7989
2664	64.7707
2648	64.6527
2632	64.7305
2616	64.7058
2600	64.7782
2584	64.6914
2568	64.7313
2552	64.6176
2536	64.6621
2520	64.6288
2504	64.6104
2488	64.6132
2472	64.5312
2456	64.7198
2440	64.5528
2424	64.6168
2408	64.6453
2392	64.5103
2376	64.6773
2360	64.4801
2344	64.5028
2328	64.5676
2312	64.5358
2296	64.4113
2280	64.4546
2264	64.4991
2248	64.4124
2232	64.5747
2216	64.4128
2200	64.4878
2184	64.3409
2168	64.4375
2152	64.3213
2136	64.3735
2120	64.3949
2104	64.3756
2088	64.2853
2072	64.398
2056	64.2207
2040	64.3337
2024	64.4025
2008	64.3029
1992	64.1594
1976	64.2515
1960	64.3345
1944	64.2289
1928	64.2322
1912	64.3631
1896	64.2738
1880	64.2925
1864	64.1551
1848	64.2062
1832	64.1731
1816	64.124
1800	64.0598
1784	64.1175
1768	64.0724
1752	63.8887
1736	63.8069
1720	63.8296
1704	63.8349
1688	63.932
1672	63.7771
1656	63.8478
1640	63.8062
1624	64.0082
1608	63.7152
1592	63.7393
1576	63.9689
1560	63.8178
1544	63.7118
1528	63.8171
1512	63.9001
1496	63.7633
1480	63.6911
1464	63.4717
1448	63.6363
1432	63.7891
1416	63.688
1400	63.5364
1384	63.5357
1368	63.5647
1352	63.4543
1336	63.6345
1320	63.6354
1304	63.5346
1288	63.4442
1272	63.3531
1256	63.326
1240	63.4585
1224	63.4617
1208	63.3445
1192	63.3623
1176	63.3019
1160	63.2735
1144	63.3423
1128	63.3181
1112	63.2174
1096	63.2398
1080	63.2594
1064	63.3664
1048	63.208
1032	63.0852
1016	63.2411
1000	63.3688
984	 63.3882
968	 63.014
952	 63.1422
936	 63.2035
920	 63.3065
904	 63.2738
888	 63.2873
872	 63.4712
856	 63.113
840	 63.1012
824	 63.1478
808	 62.9682
792	 62.817
776	 63.0251
760	 62.8605
744	 63.0391
728	 62.8874
712	 63.0276
696	 62.8612
680	 63.1388
664	 62.5848
648	 62.3415
632	 62.5156
616	 62.6056
600	 62.8425
584	 63.1432
568	 62.4864
552	 62.6417
536	 62.861
520	 60.9472
504	 63.1277
488	 63.2737
472	 62.2847
456	 62.5952
440	 62.3483
424	 63.0808
408	 60.7343
392	 59.8104
376	 49.8425
370	 56.0812