Folder: Masteroppgave/Bakgrunnsmateriale/MATLAB/FTIR/ftir_data/subAa/Mapping_121

File: BZ1503107-1_e122.asc
PE IR       SPECTRUM    SPECTRUM    ASCII       PEDS        1.60
  -1
BZ1503~2.ASC
17/04/07
13:14:34.00
17/04/07
13:15:00.00
tln
$BZ1503107-1_e0122$<ebV0>[-23.3,12.1,10.0,0.0,27,1,0]
27.028
64

2002,4.07
MIRTGS : RIGHTBACK : INTERNAL 2
MIR : ON : INTERNAL 2
OPTKBR

0.200000
8
8.000000
FILLER
SINGLE
SPECTRUM
UNLOCKED 256

DOUBLE

COMBINED
1
0
0

0.002000
BACKG

1
0
TRUE
51149
0
LEFT NOT FITTED RIGHT NOT FITTED 0
NONE
NONE
15600
12
4.427000
51148
TRUE
1 0 8 72 0 0 0 0

15798

#HDR
-1
-1
#GR
µM
EGY
2.38419e-05
0.0
2.000000
0.002000
12515
8
2.461703
0.006914
#DATA
2.000000	 0.774073
2.084000	 0.859805
2.168000	 0.939778
2.252000	 1.027130
2.336000	 1.145221
2.420000	 1.239739
2.504000	 1.403046
2.588000	 1.456228
2.672000	 1.552460
2.756000	 1.576728
2.840000	 1.635946
2.924000	 1.592360
3.008000	 1.693002
3.092000	 1.793467
3.176000	 1.820612
3.260000	 1.939567
3.344000	 2.039597
3.428000	 1.844940
3.512000	 2.020231
3.596000	 2.224137
3.680000	 2.261773
3.764000	 2.226119
3.848000	 2.233545
3.932000	 2.302508
4.016000	 2.331327
4.100000	 2.294304
4.184000	 2.254422
4.268000	 2.268182
4.352000	 2.348056
4.436000	 2.383918
4.520000	 2.374344
4.604000	 2.343059
4.688000	 2.340467
4.772000	 2.344390
4.856000	 2.389520
4.940000	 2.446037
5.024000	 2.460592
5.108000	 2.431829
5.192000	 2.406908
5.276000	 2.374192
5.359999	 2.382285
5.444000	 2.409395
5.528000	 2.431746
5.612000	 2.430956
5.696000	 2.398250
5.780000	 2.324084
5.864000	 2.279296
5.948000	 2.234878
6.032000	 2.186608
6.116000	 2.137427
6.200000	 2.007381
6.284000	 2.015974
6.368000	 1.978467
6.452000	 1.955841
6.536000	 2.097560
6.620000	 2.078302
6.704000	 1.687991
6.788000	 1.970350
6.872000	 1.788349
6.956000	 1.859457
7.040000	 1.854818
7.124000	 1.727623
7.208000	 1.788394
7.292000	 1.815921
7.376000	 1.815489
7.460000	 1.814866
7.544000	 1.849852
7.628000	 1.857896
7.712000	 1.856933
7.796000	 1.851612
7.880000	 1.775865
7.964000	 1.760831
8.048000	 1.836523
8.132000	 1.828058
8.216000	 1.785574
8.300000	 1.744862
8.384000	 1.740538
8.468000	 1.714402
8.552000	 1.673147
8.635999	 1.623251
8.719999	 1.605667
8.804000	 1.571720
8.888000	 1.523692
8.972000	 1.468754
9.056000	 1.434301
9.140000	 1.421886
9.224000	 1.424804
9.308000	 1.427248
9.391999	 1.439372
9.475999	 1.358927
9.560000	 1.326338
9.644000	 1.386803
9.728000	 1.368719
9.812000	 1.361142
9.896000	 1.381150
9.980000	 1.398964
10.064	1.398427
10.148	1.386374
10.232	1.370809
10.316	1.348380
10.4	1.319696
10.484	1.292336
10.568	1.269631
10.652	1.256872
10.736	1.241732
10.82	1.225297
10.904	1.204845
10.988	1.177730
11.072	1.160828
11.156	1.150113
11.24	1.131309
11.324	1.079436
11.408	1.031812
11.492	1.047350
11.576	1.084814
11.66	1.094524
11.744	1.086219
11.828	1.075770
11.912	1.056558
11.996	0.993163
12.08	0.883926
12.164	0.853434
12.248	0.915573
12.332	0.947685
12.416	0.948536
12.5	0.947451
12.584	0.953879
12.668	0.967066
12.752	0.977345
12.836	0.979226
12.92	0.976033
13.004	0.972410
13.088	0.968769
13.172	0.963999
13.256	0.958682
13.34	0.952508
13.424	0.945138
13.508	0.935478
13.592	0.924649
13.676	0.911986
13.76	0.897603
13.844	0.885156
13.928	0.874008
14.012	0.861927
14.096	0.848704
14.18	0.834356
14.264	0.818082
14.348	0.797611
14.432	0.768719
14.516	0.740332
14.6	0.730584
14.684	0.734387
14.768	0.734480
14.852	0.727630
14.936	0.718696
15.02	0.710483
15.104	0.701995
15.188	0.692940
15.272	0.684109
15.356	0.674750
15.44	0.664272
15.524	0.653784
15.608	0.644353
15.692	0.635799
15.776	0.627539
15.86	0.619064
15.944	0.610473
16.028	0.602155
16.112	0.593296
16.196	0.582211
16.28	0.568052
16.364	0.551713
16.448	0.536415
16.532	0.526906
16.616	0.524388
16.7	0.524843
16.784	0.523771
16.868	0.520211
16.952	0.515689
17.036	0.511516
17.12	0.507847
17.204	0.504541
17.288	0.501719
17.372	0.499681
17.456	0.498377
17.54	0.496684
17.624	0.493480
17.708	0.488413
17.792	0.482434
17.876	0.476697
17.96	0.471864
18.044	0.468018
18.128	0.464790
18.212	0.461374
18.296	0.457173
18.38	0.452279
18.464	0.447174
18.548	0.442365
18.632	0.437879
18.716	0.433302
18.8	0.428046
18.884	0.422080
18.968	0.415693
19.052	0.409482
19.136	0.403816
19.22	0.398460
19.304	0.393121
19.388	0.387777
19.472	0.382674
19.556	0.377940
19.64	0.373275
19.724	0.368157
19.808	0.362149
19.892	0.355342
19.976	0.348185
20.06	0.341038
20.144	0.333889
20.228	0.326641
20.312	0.319390
20.396	0.312310
20.48	0.305453
20.564	0.298700
20.648	0.291695
20.732	0.284183
20.816	0.276398
20.9	0.268796
20.984	0.261861
21.068	0.255914
21.152	0.250956
21.236	0.246552
21.32	0.242173
21.404	0.237305
21.488	0.231673
21.572	0.225261
21.656	0.218249
21.74	0.211117
21.824	0.204135
21.908	0.197502
21.992	0.191238
22.076	0.185306
22.16	0.179794
22.244	0.174793
22.328	0.170354
22.412	0.166353
22.496	0.162533
22.58	0.158556
22.664	0.154284
22.748	0.149650
22.832	0.144783
22.916	0.139835
23	0.134830
23.084	0.129756
23.168	0.124616
23.252	0.119398
23.336	0.114190
23.42	0.109100
23.504	0.104266
23.588	0.099685
23.672	0.095343
23.756	0.091188
23.84	0.087052
23.924	0.082918
24.008	0.078693
24.092	0.074397
24.176	0.070104
24.26	0.065906
24.344	0.061876
24.428	0.058151
24.512	0.054775
24.596	0.051663
24.68	0.048718
24.764	0.045891
24.848	0.043082
24.932	0.040245
25.016	0.037421
25.1	0.034694
25.184	0.032183
25.268	0.029914
25.352	0.028002
25.436	0.026408
25.52	0.025087
25.604	0.024058
25.688	0.023153
25.772	0.022327
25.856	0.021470
25.94	0.020400
26.024	0.019050
26.108	0.017508
26.192	0.015834
26.276	0.014173
26.36	0.012695
26.444	0.011507
26.528	0.010582
26.612	0.009866
26.696	0.009292
26.78	0.008721
26.864	0.008117
26.948	0.007484
27.028	0.006914

File: BZ1503107-1_e122_cm-1.asc
PE IR       SPECTRUM    SPECTRUM    ASCII       PEDS        1.60
  -1
BZ1503~1.ASC
17/04/07
13:14:34.00
17/04/07
13:14:34.00
tln
$BZ1503107-1_e0122$<ebV0>[-23.3,12.1,10.0,0.0,27,1,0]
370
64

2002,4.07
MIRTGS : RIGHTBACK : INTERNAL 2
MIR : ON : INTERNAL 2
OPTKBR

0.200000
8
8.000000
FILLER
SINGLE
SPECTRUM
UNLOCKED 256

DOUBLE

COMBINED
1
0
0

1.000000
BACKG

1
0
TRUE
51149
0
LEFT NOT FITTED RIGHT NOT FITTED 0
NONE
NONE
15600
12
4.427000
51148
TRUE
1 0 8 72 0 0 0 0

15798

#HDR
-1
-1
#GR
CM-1
EGY
2.38419e-05
0.0
5000
-1.000000
4631
8
2.461695
0.006914
#DATA
5000	0.774073
4984	0.783085
4968	0.790739
4952	0.796055
4936	0.798535
4920	0.808048
4904	0.813031
4888	0.817847
4872	0.831985
4856	0.834417
4840	0.841307
4824	0.856757
4808	0.867962
4792	0.871491
4776	0.889205
4760	0.891232
4744	0.904679
4728	0.910305
4712	0.915074
4696	0.917124
4680	0.914883
4664	0.918340
4648	0.921702
4632	0.930452
4616	0.939559
4600	0.944590
4584	0.954675
4568	0.970435
4552	0.985169
4536	0.990390
4520	1.004838
4504	0.999021
4488	0.959920
4472	1.003623
4456	1.034283
4440	1.027274
4424	1.028585
4408	1.031708
4392	1.037502
4376	1.047825
4360	1.057267
4344	1.070761
4328	1.090764
4312	1.107907
4296	1.129364
4280	1.146197
4264	1.162791
4248	1.174402
4232	1.183056
4216	1.193761
4200	1.199817
4184	1.209139
4168	1.216816
4152	1.226663
4136	1.236486
4120	1.250362
4104	1.262807
4088	1.283621
4072	1.308441
4056	1.328229
4040	1.353025
4024	1.372075
4008	1.390647
3992	1.404595
3976	1.412296
3960	1.420521
3944	1.421141
3928	1.431179
3912	1.435112
3896	1.436996
3880	1.446580
3864	1.456212
3848	1.466202
3832	1.484727
3816	1.500725
3800	1.519870
3784	1.548600
3768	1.558136
3752	1.547026
3736	1.562833
3720	1.579999
3704	1.580071
3688	1.572489
3672	1.565027
3656	1.579523
3640	1.584315
3624	1.582121
3608	1.590347
3592	1.602649
3576	1.613354
3560	1.625657
3544	1.629567
3528	1.633834
3512	1.636767
3496	1.630544
3480	1.620984
3464	1.617503
3448	1.603221
3432	1.591229
3416	1.594138
3400	1.605033
3384	1.614832
3368	1.629495
3352	1.655626
3336	1.675367
3320	1.699090
3304	1.725077
3288	1.745057
3272	1.764392
3256	1.777648
3240	1.791906
3224	1.795125
3208	1.795220
3192	1.799702
3176	1.804232
3160	1.809763
3144	1.825356
3128	1.841688
3112	1.865029
3096	1.890778
3080	1.923990
3064	1.944732
3048	1.973605
3032	1.985907
3016	1.969289
3000	2.030920
2984	2.033543
2968	1.964950
2952	1.927232
2936	1.820206
2920	1.809668
2904	1.952886
2888	2.004384
2872	1.989221
2856	1.932978
2840	2.076840
2824	2.137327
2808	2.176642
2792	2.204608
2776	2.233886
2760	2.252864
2744	2.262878
2728	2.263021
2712	2.260112
2696	2.249169
2680	2.242588
2664	2.232146
2648	2.225923
2632	2.224922
2616	2.228975
2600	2.233529
2584	2.244067
2568	2.270722
2552	2.290821
2536	2.310109
2520	2.324199
2504	2.332115
2488	2.330255
2472	2.324128
2456	2.312016
2440	2.295303
2424	2.277898
2408	2.264785
2392	2.255558
2376	2.245187
2360	2.238368
2344	2.267479
2328	2.289366
2312	2.322745
2296	2.350640
2280	2.369594
2264	2.380466
2248	2.385187
2232	2.386736
2216	2.376317
2200	2.363991
2184	2.352452
2168	2.339529
2152	2.344274
2136	2.341127
2120	2.338719
2104	2.344322
2088	2.343773
2072	2.363705
2056	2.396368
2040	2.427220
2024	2.446317
2008	2.456712
1992	2.461147
1976	2.449703
1960	2.433300
1944	2.421116
1928	2.409076
1912	2.388668
1896	2.374672
1880	2.379751
1864	2.385044
1848	2.395367
1832	2.411103
1816	2.426719
1800	2.432036
1784	2.431488
1768	2.412462
1752	2.385687
1736	2.324461
1720	2.306914
1704	2.270913
1688	2.248144
1672	2.223300
1656	2.173829
1640	2.153611
1624	2.103829
1608	1.973032
1592	2.015757
1576	1.980042
1560	1.923727
1544	1.953983
1528	2.106046
1512	2.086448
1496	1.698637
1480	1.958394
1464	1.933646
1448	1.783108
1432	1.867032
1416	1.841783
1400	1.732087
1384	1.786398
1368	1.816773
1352	1.813673
1336	1.826143
1320	1.854491
1304	1.857209
1288	1.853823
1272	1.806950
1256	1.756930
1240	1.837325
1224	1.814079
1208	1.747798
1192	1.739478
1176	1.700687
1160	1.630187
1144	1.599073
1128	1.537704
1112	1.456594
1096	1.423430
1080	1.423215
1064	1.438641
1048	1.306438
1032	1.378560
1016	1.366138
1000	1.400470
984	 1.383686
968	 1.343345
952	 1.285934
936	 1.251411
920	 1.214623
904	 1.162362
888	 1.121330
872	 1.036906
856	 1.093220
840	 1.059317
824	 0.847935
808	 0.949549
792	 0.960135
776	 0.977540
760	 0.964832
744	 0.943374
728	 0.901627
712	 0.856876
696	 0.791549
680	 0.735211
664	 0.706529
648	 0.665283
632	 0.622844
616	 0.576210
600	 0.524640
584	 0.507712
568	 0.494337
552	 0.465250
536	 0.436592
520	 0.397777
504	 0.359535
488	 0.304508
472	 0.249099
456	 0.195837
440	 0.150823
424	 0.099849
408	 0.054860
392	 0.025224
376	 0.009989
370	 0.006914

File: BZ1503107-1_e123.asc
PE IR       SPECTRUM    SPECTRUM    ASCII       PEDS        1.60
  -1
BZD0AE~1.ASC
17/04/07
15:04:00.00
17/04/07
15:04:27.00
tln
$BZ1503107-1_e0123$<ebV0>[-23.3,12.1,10.0,0.0,27,1,0]
27.028
64

2002,4.07
MIRTGS : RIGHTBACK : INTERNAL 2
MIR : ON : INTERNAL 2
OPTKBR

0.200000
8
8.000000
FILLER
SINGLE
SPECTRUM
UNLOCKED 256

DOUBLE

COMBINED
1
0
0

0.002000
BACKG

1
0
TRUE
51149
0
LEFT NOT FITTED RIGHT NOT FITTED 0
NONE
NONE
15600
12
4.427000
51148
TRUE
1 0 8 72 0 0 0 0

15798

#HDR
-1
-1
#GR
µM
EGY
2.38419e-05
0.0
2.000000
0.002000
12515
8
2.463481
0.008559
#DATA
2.000000	 0.770044
2.084000	 0.876148
2.168000	 0.940910
2.252000	 0.998380
2.336000	 1.148569
2.420000	 1.239732
2.504000	 1.400395
2.588000	 1.459091
2.672000	 1.559454
2.756000	 1.582117
2.840000	 1.638177
2.924000	 1.592464
3.008000	 1.695353
3.092000	 1.792773
3.176000	 1.824117
3.260000	 1.942373
3.344000	 2.039406
3.428000	 1.845537
3.512000	 2.023983
3.596000	 2.228135
3.680000	 2.262674
3.764000	 2.227589
3.848000	 2.235182
3.932000	 2.306032
4.016000	 2.335080
4.100000	 2.295358
4.184000	 2.253840
4.268000	 2.269142
4.352000	 2.349900
4.436000	 2.388826
4.520000	 2.376855
4.604000	 2.345385
4.688000	 2.340100
4.772000	 2.345076
4.856000	 2.391403
4.940000	 2.446664
5.024000	 2.462601
5.108000	 2.435132
5.192000	 2.407422
5.276000	 2.378343
5.359999	 2.385528
5.444000	 2.410659
5.528000	 2.435532
5.612000	 2.434920
5.696000	 2.405463
5.780000	 2.331653
5.864000	 2.285977
5.948000	 2.242570
6.032000	 2.196147
6.116000	 2.144163
6.200000	 2.012224
6.284000	 2.021338
6.368000	 1.984692
6.452000	 1.962281
6.536000	 2.101805
6.620000	 2.083460
6.704000	 1.692033
6.788000	 1.976933
6.872000	 1.792144
6.956000	 1.861946
7.040000	 1.858781
7.124000	 1.728373
7.208000	 1.790516
7.292000	 1.815285
7.376000	 1.819515
7.460000	 1.816839
7.544000	 1.850890
7.628000	 1.857495
7.712000	 1.858667
7.796000	 1.853252
7.880000	 1.775774
7.964000	 1.762886
8.048000	 1.835571
8.132000	 1.828108
8.216000	 1.785887
8.300000	 1.748051
8.384000	 1.742762
8.468000	 1.714734
8.552000	 1.675995
8.635999	 1.623691
8.719999	 1.605150
8.804000	 1.576225
8.888000	 1.529138
8.972000	 1.471572
9.056000	 1.433407
9.140000	 1.426149
9.224000	 1.430070
9.308000	 1.429177
9.391999	 1.437198
9.475999	 1.357905
9.560000	 1.326219
9.644000	 1.386331
9.728000	 1.368166
9.812000	 1.360329
9.896000	 1.380817
9.980000	 1.397463
10.064	1.396360
10.148	1.386398
10.232	1.368609
10.316	1.348500
10.4	1.321246
10.484	1.292671
10.568	1.271433
10.652	1.258470
10.736	1.241242
10.82	1.224976
10.904	1.205104
10.988	1.178537
11.072	1.160814
11.156	1.150528
11.24	1.129522
11.324	1.077739
11.408	1.030266
11.492	1.047361
11.576	1.083193
11.66	1.093837
11.744	1.087765
11.828	1.079777
11.912	1.057092
11.996	0.991528
12.08	0.882591
12.164	0.853476
12.248	0.916749
12.332	0.948213
12.416	0.947826
12.5	0.944924
12.584	0.950924
12.668	0.965403
12.752	0.975969
12.836	0.979465
12.92	0.977248
13.004	0.972313
13.088	0.968312
13.172	0.964265
13.256	0.960532
13.34	0.954345
13.424	0.944545
13.508	0.935048
13.592	0.924690
13.676	0.911790
13.76	0.898498
13.844	0.886062
13.928	0.874847
14.012	0.863978
14.096	0.850806
14.18	0.835634
14.264	0.819463
14.348	0.798362
14.432	0.767904
14.516	0.739481
14.6	0.731668
14.684	0.736533
14.768	0.735906
14.852	0.729073
14.936	0.720027
15.02	0.710846
15.104	0.703386
15.188	0.695507
15.272	0.685925
15.356	0.676826
15.44	0.668297
15.524	0.658046
15.608	0.646411
15.692	0.635715
15.776	0.626068
15.86	0.616701
15.944	0.607629
16.028	0.599209
16.112	0.591844
16.196	0.584217
16.28	0.572460
16.364	0.555281
16.448	0.537686
16.532	0.526218
16.616	0.521687
16.7	0.520037
16.784	0.518370
16.868	0.516480
16.952	0.514603
17.036	0.512330
17.12	0.509413
17.204	0.505870
17.288	0.502019
17.372	0.498492
17.456	0.495726
17.54	0.493681
17.624	0.491714
17.708	0.488781
17.792	0.484325
17.876	0.478773
17.96	0.472945
18.044	0.467418
18.128	0.462630
18.212	0.458971
18.296	0.456105
18.38	0.453364
18.464	0.450078
18.548	0.445738
18.632	0.440660
18.716	0.435274
18.8	0.429786
18.884	0.424017
18.968	0.417874
19.052	0.411645
19.136	0.405859
19.22	0.400686
19.304	0.396021
19.388	0.391389
19.472	0.386514
19.556	0.381195
19.64	0.375436
19.724	0.369252
19.808	0.362758
19.892	0.356044
19.976	0.349256
20.06	0.342432
20.144	0.335594
20.228	0.328603
20.312	0.321514
20.396	0.314299
20.48	0.307029
20.564	0.299482
20.648	0.291705
20.732	0.283807
20.816	0.276340
20.9	0.269794
20.984	0.264249
21.068	0.259450
21.152	0.254841
21.236	0.249993
21.32	0.244698
21.404	0.238961
21.488	0.232788
21.572	0.226246
21.656	0.219442
21.74	0.212502
21.824	0.205614
21.908	0.198908
21.992	0.192534
22.076	0.186496
22.16	0.180790
22.244	0.175438
22.328	0.170479
22.412	0.165993
22.496	0.161893
22.58	0.158085
22.664	0.154355
22.748	0.150467
22.832	0.146122
22.916	0.141262
23	0.135959
23.084	0.130365
23.168	0.124789
23.252	0.119331
23.336	0.114146
23.42	0.109197
23.504	0.104390
23.588	0.099701
23.672	0.095023
23.756	0.090410
23.84	0.085889
23.924	0.081534
24.008	0.077294
24.092	0.073234
24.176	0.069328
24.26	0.065640
24.344	0.062087
24.428	0.058726
24.512	0.055543
24.596	0.052608
24.68	0.049873
24.764	0.047312
24.848	0.044832
24.932	0.042412
25.016	0.039939
25.1	0.037424
25.184	0.034863
25.268	0.032325
25.352	0.029911
25.436	0.027614
25.52	0.025484
25.604	0.023486
25.688	0.021638
25.772	0.019931
25.856	0.018389
25.94	0.017072
26.024	0.015944
26.108	0.015059
26.192	0.014392
26.276	0.013839
26.36	0.013383
26.444	0.012957
26.528	0.012476
26.612	0.011959
26.696	0.011368
26.78	0.010691
26.864	0.009994
26.948	0.009281
27.028	0.008559

File: BZ1503107-1_e123_cm-1.asc
PE IR       SPECTRUM    SPECTRUM    ASCII       PEDS        1.60
  -1
BZ09FA~1.ASC
17/04/07
15:04:00.00
17/04/07
15:04:00.00
tln
$BZ1503107-1_e0123$<ebV0>[-23.3,12.1,10.0,0.0,27,1,0]
370
64

2002,4.07
MIRTGS : RIGHTBACK : INTERNAL 2
MIR : ON : INTERNAL 2
OPTKBR

0.200000
8
8.000000
FILLER
SINGLE
SPECTRUM
UNLOCKED 256

DOUBLE

COMBINED
1
0
0

1.000000
BACKG

1
0
TRUE
51149
0
LEFT NOT FITTED RIGHT NOT FITTED 0
NONE
NONE
15600
12
4.427000
51148
TRUE
1 0 8 72 0 0 0 0

15798

#HDR
-1
-1
#GR
CM-1
EGY
2.38419e-05
0.0
5000
-1.000000
4631
8
2.463483
0.008559
#DATA
5000	0.770044
4984	0.786471
4968	0.796604
4952	0.800919
4936	0.806093
4920	0.809764
4904	0.814890
4888	0.822591
4872	0.828528
4856	0.834989
4840	0.845813
4824	0.856924
4808	0.869870
4792	0.880861
4776	0.888872
4760	0.894284
4744	0.901365
4728	0.905966
4712	0.903701
4696	0.913429
4680	0.916957
4664	0.920414
4648	0.921940
4632	0.930404
4616	0.938677
4600	0.949788
4584	0.960755
4568	0.971603
4552	0.985574
4536	0.994753
4520	1.006793
4504	1.010441
4488	1.016855
4472	1.021122
4456	1.014947
4440	0.995516
4424	0.831365
4408	1.047158
4392	1.052498
4376	1.056647
4360	1.068472
4344	1.083326
4328	1.102042
4312	1.118755
4296	1.134037
4280	1.149773
4264	1.163959
4248	1.181650
4232	1.187396
4216	1.195287
4200	1.201677
4184	1.209998
4168	1.215744
4152	1.226162
4136	1.235699
4120	1.250839
4104	1.266407
4088	1.287460
4072	1.308965
4056	1.332688
4040	1.354527
4024	1.374244
4008	1.388907
3992	1.401615
3976	1.415181
3960	1.422309
3944	1.427531
3928	1.432085
3912	1.436781
3896	1.439595
3880	1.452231
3864	1.459074
3848	1.471948
3832	1.490068
3816	1.505756
3800	1.519131
3784	1.549887
3768	1.560759
3752	1.556181
3736	1.568031
3720	1.580858
3704	1.582932
3688	1.577901
3672	1.571750
3656	1.578402
3640	1.588177
3624	1.585650
3608	1.592159
3592	1.601552
3576	1.618957
3560	1.625919
3544	1.634049
3528	1.636624
3512	1.637125
3496	1.633119
3480	1.625204
3464	1.616764
3448	1.604723
3432	1.594448
3416	1.596140
3400	1.604008
3384	1.613068
3368	1.630425
3352	1.653933
3336	1.677846
3320	1.702737
3304	1.728153
3288	1.749777
3272	1.764774
3256	1.781272
3240	1.788759
3224	1.796531
3208	1.799345
3192	1.803660
3176	1.806807
3160	1.813840
3144	1.829981
3128	1.842522
3112	1.867055
3096	1.893210
3080	1.925873
3064	1.945543
3048	1.974797
3032	1.990437
3016	1.975822
3000	2.033662
2984	2.033352
2968	1.970934
2952	1.927542
2936	1.823115
2920	1.809859
2904	1.955342
2888	2.004599
2872	1.992464
2856	1.934051
2840	2.080082
2824	2.138924
2808	2.176928
2792	2.201151
2776	2.234339
2760	2.253365
2744	2.261066
2728	2.266454
2712	2.262163
2696	2.251052
2680	2.244091
2664	2.234053
2648	2.225756
2632	2.225923
2616	2.230954
2600	2.235102
2584	2.248692
2568	2.274060
2552	2.293634
2536	2.311897
2520	2.327704
2504	2.333045
2488	2.334523
2472	2.326941
2456	2.315044
2440	2.296638
2424	2.279233
2408	2.265715
2392	2.254915
2376	2.250647
2360	2.242994
2344	2.268815
2328	2.291750
2312	2.324938
2296	2.352809
2280	2.370834
2264	2.383875
2248	2.389311
2232	2.385377
2216	2.378749
2200	2.363824
2184	2.351546
2168	2.343535
2152	2.341628
2136	2.341032
2120	2.342128
2104	2.345561
2088	2.345776
2072	2.363753
2056	2.397847
2040	2.430748
2024	2.446866
2008	2.458477
1992	2.463221
1976	2.451896
1960	2.436828
1944	2.423262
1928	2.410340
1912	2.393054
1896	2.378749
1880	2.382087
1864	2.388215
1848	2.398467
1832	2.413439
1816	2.430033
1800	2.435278
1784	2.435779
1768	2.419352
1752	2.393865
1736	2.335238
1720	2.314925
1704	2.278661
1688	2.252125
1672	2.228474
1656	2.184939
1640	2.160239
1624	2.110743
1608	1.976823
1592	2.020931
1576	1.990580
1560	1.933741
1544	1.962804
1528	2.110815
1512	2.090930
1496	1.704192
1480	1.960802
1464	1.939153
1448	1.783823
1432	1.869750
1416	1.845645
1400	1.733565
1384	1.788496
1368	1.817297
1352	1.818346
1336	1.826620
1320	1.856017
1304	1.856923
1288	1.856017
1272	1.807236
1256	1.758933
1240	1.836585
1224	1.816129
1208	1.750779
1192	1.741695
1176	1.700401
1160	1.630306
1144	1.598715
1128	1.543426
1112	1.459479
1096	1.426386
1080	1.428794
1064	1.436519
1048	1.306152
1032	1.378202
1016	1.365852
1000	1.398420
984	 1.383447
968	 1.344203
952	 1.286673
936	 1.252198
920	 1.214241
904	 1.162219
888	 1.119756
872	 1.037001
856	 1.092815
840	 1.060199
824	 0.847387
808	 0.949478
792	 0.957846
776	 0.978779
760	 0.964927
744	 0.942564
728	 0.902152
712	 0.859165
696	 0.791978
680	 0.737237
664	 0.707101
648	 0.669145
632	 0.620818
616	 0.579667
600	 0.520610
584	 0.509285
568	 0.492191
552	 0.463247
536	 0.439095
520	 0.400066
504	 0.360131
488	 0.305986
472	 0.252890
456	 0.197219
440	 0.151467
424	 0.099873
408	 0.055623
392	 0.025725
376	 0.012063
370	 0.008559