Folder: Masteroppgave/Bakgrunnsmateriale/MATLAB/FTIR/ftir_data/subAa/Mapping_121 (part 22)

File: BZ1503107-1_t46_cm-1.asc
PE IR       SPECTRUM    SPECTRUM    ASCII       PEDS        1.60
  -1
BZ6E24~1.ASC
17/04/07
17:03:40.00
17/04/07
17:03:40.00
tln
$BZ1503107-1_t0046$<tbV0>[10.4,-2.6,8.0,0.0,27,1,0]
370
64

2002,4.07
MIRTGS : RIGHTBACK : INTERNAL 2
MIR : ON : INTERNAL 2
OPTKBR

0.200000
8
8.000000
FILLER
RATIO
SPECTRUM
UNLOCKED 256

DOUBLE
64
COMBINED
1
0
0

1.000000
RATIO

1
0
TRUE
51149
0
LEFT NOT FITTED RIGHT NOT FITTED 0
NONE
NONE
15600
12
4.427000
51148
TRUE
1 0 8 72 0 0 0 0

15798

#HDR
-1
-1
#GR
CM-1
%T
2.38419e-05
0.0
5000
-1.000000
4631
8
66.8786
44.0223
#DATA
5000	65.7518
4984	65.4634
4968	64.5895
4952	64.7222
4936	65.2258
4920	65.4421
4904	64.9641
4888	64.6809
4872	64.7665
4856	64.8742
4840	64.6723
4824	64.3541
4808	64.8023
4792	64.5784
4776	64.8668
4760	64.6223
4744	64.6864
4728	65.057
4712	64.9156
4696	64.315
4680	65.2488
4664	64.5914
4648	64.9523
4632	65.2965
4616	65.3986
4600	64.7886
4584	65.071
4568	64.7621
4552	65.4512
4536	65.1532
4520	65.6202
4504	65.7914
4488	65.1709
4472	65.2839
4456	66.4292
4440	66.5682
4424	48.5221
4408	65.3993
4392	65.8548
4376	65.282
4360	65.3351
4344	65.5259
4328	65.5146
4312	65.5507
4296	65.3654
4280	65.2262
4264	65.3144
4248	65.2581
4232	65.0883
4216	64.9819
4200	64.8557
4184	64.6348
4168	64.6921
4152	64.7922
4136	64.7163
4120	64.9615
4104	64.8983
4088	65.1437
4072	64.7531
4056	64.812
4040	65.0738
4024	64.8203
4008	64.8287
3992	65.0833
3976	65.2447
3960	64.9129
3944	64.9572
3928	64.8029
3912	65.0862
3896	65.1671
3880	65.0836
3864	65.0939
3848	65.0697
3832	65.1405
3816	65.2027
3800	65.0844
3784	64.856
3768	65.0443
3752	64.8382
3736	64.986
3720	65.0264
3704	65.0644
3688	64.9755
3672	64.8797
3656	65.0694
3640	64.9834
3624	64.8014
3608	64.9739
3592	64.8455
3576	64.9203
3560	65.0659
3544	65.0851
3528	64.9896
3512	65.1677
3496	65.1593
3480	64.8757
3464	64.9663
3448	65.1118
3432	64.9361
3416	64.9896
3400	64.7689
3384	64.8798
3368	65.1013
3352	64.7902
3336	64.9644
3320	64.8902
3304	64.9056
3288	65.021
3272	64.8312
3256	64.9106
3240	64.8462
3224	65.0568
3208	64.7306
3192	64.854
3176	65.1037
3160	64.9349
3144	64.9271
3128	64.861
3112	64.8627
3096	65.0659
3080	64.8226
3064	64.8604
3048	64.8471
3032	64.9517
3016	64.9599
3000	65.1396
2984	64.9362
2968	64.7974
2952	64.8285
2936	64.8196
2920	64.9018
2904	64.8189
2888	64.8116
2872	64.8614
2856	64.8458
2840	64.8494
2824	64.859
2808	64.8685
2792	64.8684
2776	64.8496
2760	64.7969
2744	64.8579
2728	64.7465
2712	64.8499
2696	64.8409
2680	64.854
2664	64.862
2648	64.8181
2632	64.9421
2616	64.8613
2600	64.905
2584	64.8273
2568	64.7884
2552	64.8243
2536	64.7783
2520	64.8515
2504	64.8042
2488	64.7735
2472	64.6607
2456	64.7574
2440	64.8252
2424	64.5967
2408	64.7668
2392	64.732
2376	64.6097
2360	64.5822
2344	64.616
2328	64.6797
2312	64.6983
2296	64.6484
2280	64.6959
2264	64.8299
2248	64.6759
2232	64.6038
2216	64.595
2200	64.5609
2184	64.5296
2168	64.5058
2152	64.5327
2136	64.5461
2120	64.5059
2104	64.4861
2088	64.6436
2072	64.5466
2056	64.5645
2040	64.468
2024	64.6395
2008	64.4577
1992	64.4984
1976	64.4469
1960	64.3766
1944	64.4851
1928	64.4064
1912	64.4117
1896	64.3614
1880	64.3996
1864	64.4124
1848	64.5257
1832	64.5082
1816	64.3685
1800	64.2893
1784	64.387
1768	64.3538
1752	64.2589
1736	64.0184
1720	64.1865
1704	64.2591
1688	64.3679
1672	64.2422
1656	64.1555
1640	64.2929
1624	64.1388
1608	64.2121
1592	64.1569
1576	64.1285
1560	64.2568
1544	64.1866
1528	64.0799
1512	64.141
1496	64.1885
1480	64.1999
1464	64.1433
1448	63.9176
1432	64.0046
1416	64.1456
1400	64.0958
1384	64.0227
1368	63.9599
1352	63.9927
1336	63.9472
1320	63.9354
1304	63.9603
1288	63.9861
1272	63.9782
1256	63.8909
1240	63.8442
1224	63.9036
1208	63.8352
1192	63.8498
1176	63.9009
1160	63.706
1144	63.7595
1128	63.6906
1112	63.7836
1096	63.7202
1080	63.6648
1064	63.9332
1048	63.7166
1032	63.6071
1016	63.6831
1000	63.6996
984	 63.673
968	 63.7375
952	 63.5544
936	 63.6095
920	 63.8171
904	 63.9021
888	 63.8093
872	 63.4967
856	 63.9422
840	 63.8241
824	 63.8442
808	 63.6173
792	 63.6954
776	 63.5441
760	 63.8093
744	 63.525
728	 63.4159
712	 63.5971
696	 63.3268
680	 63.9815
664	 63.367
648	 64.0305
632	 62.7284
616	 64.2984
600	 62.8717
584	 63.3606
568	 62.9521
552	 64.0867
536	 63.0093
520	 64.0905
504	 63.4669
488	 63.6153
472	 63.1457
456	 64.321
440	 62.3956
424	 65.1485
408	 56.2584
392	 59.8752
376	 54.4694
370	 51.2612

File: BZ1503107-1_t47.asc
PE IR       SPECTRUM    SPECTRUM    ASCII       PEDS        1.60
  -1
BZ256D~1.ASC
17/04/07
17:08:17.00
17/04/07
17:08:43.00
tln
$BZ1503107-1_t0047$<tbV0>[7.8,-2.6,8.0,0.0,27,1,0]
27.028
64

2002,4.07
MIRTGS : RIGHTBACK : INTERNAL 2
MIR : ON : INTERNAL 2
OPTKBR

0.200000
8
8.000000
FILLER
RATIO
SPECTRUM
UNLOCKED 256

DOUBLE
64
COMBINED
1
0
0

0.002000
RATIO

1
0
TRUE
51149
0
LEFT NOT FITTED RIGHT NOT FITTED 0
NONE
NONE
15600
12
4.427000
51148
TRUE
1 0 8 72 0 0 0 0

15798

#HDR
-1
-1
#GR
µM
%T
2.38419e-05
0.0
2.000000
0.002000
12515
8
70.1957
43.1186
#DATA
2.000000	 65.954
2.084000	 64.6119
2.168000	 64.769
2.252000	 66.371
2.336000	 64.8543
2.420000	 65.0196
2.504000	 65.0968
2.588000	 65.0583
2.672000	 65.0148
2.756000	 65.0877
2.840000	 64.9845
2.924000	 65.225
3.008000	 65.0653
3.092000	 64.9063
3.176000	 65.1922
3.260000	 65.0308
3.344000	 65.0004
3.428000	 64.9638
3.512000	 65.0451
3.596000	 64.9512
3.680000	 64.8914
3.764000	 64.936
3.848000	 64.9327
3.932000	 64.916
4.016000	 64.8926
4.100000	 64.9964
4.184000	 64.7536
4.268000	 64.8819
4.352000	 64.8925
4.436000	 64.898
4.520000	 64.7819
4.604000	 64.6118
4.688000	 64.76
4.772000	 64.7612
4.856000	 64.7032
4.940000	 64.663
5.024000	 64.7506
5.108000	 64.5575
5.192000	 64.6032
5.276000	 64.585
5.359999	 64.6056
5.444000	 64.6036
5.528000	 64.5271
5.612000	 64.5735
5.696000	 64.5026
5.780000	 64.349
5.864000	 64.3666
5.948000	 64.4309
6.032000	 64.3842
6.116000	 64.407
6.200000	 64.28
6.284000	 64.2798
6.368000	 64.2691
6.452000	 64.2743
6.536000	 64.2572
6.620000	 64.265
6.704000	 64.2873
6.788000	 64.222
6.872000	 64.1719
6.956000	 64.1315
7.040000	 64.2392
7.124000	 64.2651
7.208000	 64.126
7.292000	 64.205
7.376000	 64.1035
7.460000	 64.0716
7.544000	 63.9405
7.628000	 64.1301
7.712000	 64.1849
7.796000	 64.063
7.880000	 64.0654
7.964000	 64.1058
8.048000	 64.0637
8.132000	 63.9952
8.216000	 63.9823
8.300000	 64.1548
8.384000	 63.9128
8.468000	 64.0873
8.552000	 64.0725
8.635999	 63.9237
8.719999	 63.9322
8.804000	 63.8348
8.888000	 63.805
8.972000	 63.8365
9.056000	 63.8383
9.140000	 63.8349
9.224000	 63.8238
9.308000	 63.8429
9.391999	 63.8314
9.475999	 63.7938
9.560000	 63.731
9.644000	 63.7658
9.728000	 63.8824
9.812000	 63.8789
9.896000	 63.8965
9.980000	 63.8909
10.064	63.8206
10.148	64.0018
10.232	63.9907
10.316	63.8396
10.4	63.7914
10.484	63.7767
10.568	63.6842
10.652	63.7426
10.736	63.7863
10.82	63.7732
10.904	64.0274
10.988	63.9501
11.072	63.9405
11.156	63.7519
11.24	63.7375
11.324	63.8968
11.408	63.7167
11.492	63.7636
11.576	63.8044
11.66	63.9447
11.744	63.8686
11.828	63.8939
11.912	63.7916
11.996	63.7267
12.08	63.9302
12.164	63.9639
12.248	63.8243
12.332	63.6652
12.416	63.6493
12.5	63.7399
12.584	63.755
12.668	63.5723
12.752	63.5583
12.836	63.7617
12.92	63.7818
13.004	63.7601
13.088	63.5973
13.172	63.3784
13.256	63.5506
13.34	63.7346
13.424	63.7133
13.508	63.6644
13.592	63.5282
13.676	63.3792
13.76	63.4891
13.844	63.6119
13.928	63.5289
14.012	63.6041
14.096	63.6269
14.18	63.4079
14.264	63.3277
14.348	63.4276
14.432	63.5243
14.516	63.6841
14.6	63.6603
14.684	63.5296
14.768	63.5705
14.852	63.5437
14.936	63.4194
15.02	63.2156
15.104	62.9951
15.188	63.0402
15.272	63.2204
15.356	63.3779
15.44	63.536
15.524	63.4705
15.608	63.2689
15.692	63.2871
15.776	63.3008
15.86	63.0411
15.944	63.0397
16.028	63.7491
16.112	64.4355
16.196	64.1905
16.28	63.3354
16.364	62.7513
16.448	62.7329
16.532	62.9938
16.616	63.0797
16.7	62.8575
16.784	62.6923
16.868	62.743
16.952	62.7289
17.036	62.6308
17.12	62.7913
17.204	63.1869
17.288	63.3574
17.372	63.1317
17.456	62.8532
17.54	62.844
17.624	62.9707
17.708	62.973
17.792	62.928
17.876	63.0811
17.96	63.4075
18.044	63.6492
18.128	63.6581
18.212	63.5142
18.296	63.3502
18.38	63.2384
18.464	63.1891
18.548	63.1724
18.632	63.1585
18.716	63.1613
18.8	63.2291
18.884	63.4012
18.968	63.6385
19.052	63.8064
19.136	63.7922
19.22	63.6199
19.304	63.4273
19.388	63.3279
19.472	63.3247
19.556	63.3408
19.64	63.3
19.724	63.1738
19.808	62.9961
19.892	62.8594
19.976	62.8598
20.06	63.0049
20.144	63.1986
20.228	63.3205
20.312	63.3184
20.396	63.227
20.48	63.1196
20.564	63.0523
20.648	63.0354
20.732	63.0557
20.816	63.1073
20.9	63.2075
20.984	63.389
21.068	63.6655
21.152	64.0023
21.236	64.3197
21.32	64.5342
21.404	64.6025
21.488	64.5388
21.572	64.3945
21.656	64.2408
21.74	64.1495
21.824	64.1706
21.908	64.3084
21.992	64.5145
22.076	64.7055
22.16	64.7951
22.244	64.7299
22.328	64.5163
22.412	64.2129
22.496	63.9004
22.58	63.6402
22.664	63.45
22.748	63.2989
22.832	63.1418
22.916	62.9439
23	62.7186
23.084	62.5083
23.168	62.3552
23.252	62.2744
23.336	62.261
23.42	62.3157
23.504	62.4566
23.588	62.7085
23.672	63.0655
23.756	63.4499
23.84	63.7322
23.924	63.7827
24.008	63.5332
24.092	63.011
24.176	62.3376
24.26	61.6336
24.344	60.967
24.428	60.3434
24.512	59.7606
24.596	59.2439
24.68	58.8652
24.764	58.7176
24.848	58.8241
24.932	59.1231
25.016	59.4718
25.1	59.6761
25.184	59.5596
25.268	59.0517
25.352	58.207
25.436	57.2565
25.52	56.5455
25.604	56.4035
25.688	57.0743
25.772	58.5923
25.856	60.7519
25.94	63.1477
26.024	65.2697
26.108	66.6757
26.192	67.0683
26.276	66.3404
26.36	64.6086
26.444	62.1351
26.528	59.2252
26.612	56.1702
26.696	53.1677
26.78	50.3084
26.864	47.6392
26.948	45.1962
27.028	43.1186

File: BZ1503107-1_t47_cm-1.asc
PE IR       SPECTRUM    SPECTRUM    ASCII       PEDS        1.60
  -1
BZ6F24~1.ASC
17/04/07
17:08:17.00
17/04/07
17:08:17.00
tln
$BZ1503107-1_t0047$<tbV0>[7.8,-2.6,8.0,0.0,27,1,0]
370
64

2002,4.07
MIRTGS : RIGHTBACK : INTERNAL 2
MIR : ON : INTERNAL 2
OPTKBR

0.200000
8
8.000000
FILLER
RATIO
SPECTRUM
UNLOCKED 256

DOUBLE
64
COMBINED
1
0
0

1.000000
RATIO

1
0
TRUE
51149
0
LEFT NOT FITTED RIGHT NOT FITTED 0
NONE
NONE
15600
12
4.427000
51148
TRUE
1 0 8 72 0 0 0 0

15798

#HDR
-1
-1
#GR
CM-1
%T
2.38419e-05
0.0
5000
-1.000000
4631
8
70.2221
43.1186
#DATA
5000	65.954
4984	65.9103
4968	65.3748
4952	64.9285
4936	65.5566
4920	64.5472
4904	64.9011
4888	64.7219
4872	64.5915
4856	64.2591
4840	65.0128
4824	65.115
4808	64.7531
4792	64.7048
4776	65.4477
4760	64.6454
4744	65.0058
4728	65.0179
4712	64.6461
4696	65.0866
4680	65.0526
4664	65.0439
4648	65.1659
4632	65.2513
4616	64.6144
4600	65.0674
4584	65.2061
4568	64.7467
4552	65.6456
4536	64.8617
4520	65.3298
4504	64.994
4488	64.6408
4472	64.1463
4456	64.4376
4440	66.7994
4424	66.7983
4408	66.3079
4392	65.4927
4376	64.7596
4360	65.4067
4344	64.9823
4328	65.325
4312	65.0318
4296	64.9976
4280	64.877
4264	64.7656
4248	65.0871
4232	64.9456
4216	65.0674
4200	65.2209
4184	65.0507
4168	64.9223
4152	64.8426
4136	64.9588
4120	65.1521
4104	65.349
4088	65.0548
4072	64.8584
4056	65.1015
4040	65.3005
4024	65.1345
4008	65.02
3992	65.121
3976	65.1336
3960	64.9164
3944	65.0823
3928	64.6747
3912	64.9167
3896	64.8757
3880	64.855
3864	65.0579
3848	65.2634
3832	65.236
3816	65.3364
3800	65.1213
3784	65.0861
3768	65.1141
3752	64.9937
3736	65.1321
3720	65.2133
3704	65.1456
3688	64.851
3672	65.1532
3656	65.1756
3640	65.1364
3624	65.1185
3608	65.0195
3592	65.1532
3576	65.1471
3560	65.059
3544	65.1025
3528	65.0272
3512	65.1072
3496	65.1192
3480	65.2887
3464	65.2452
3448	65.2349
3432	65.0083
3416	65.1604
3400	64.9591
3384	64.9037
3368	65.0678
3352	64.9581
3336	65.0534
3320	65.1206
3304	64.9878
3288	65.1402
3272	64.9579
3256	65.1351
3240	64.9024
3224	65.1171
3208	65.1093
3192	65.1177
3176	65.0315
3160	64.939
3144	65.1553
3128	65.0772
3112	65.074
3096	65.0763
3080	64.9564
3064	65.0671
3048	65.0087
3032	64.9747
3016	65.0172
3000	65.0434
2984	65.0317
2968	64.9541
2952	64.973
2936	64.8895
2920	64.9191
2904	65.0802
2888	64.9605
2872	64.834
2856	64.905
2840	64.9518
2824	65.0326
2808	64.923
2792	65.0946
2776	64.9214
2760	64.8125
2744	64.9637
2728	64.8558
2712	64.931
2696	64.9547
2680	64.9848
2664	64.8978
2648	64.9319
2632	64.8976
2616	64.8786
2600	64.9244
2584	64.954
2568	64.8197
2552	64.8061
2536	64.8323
2520	64.8124
2504	64.8436
2488	64.8846
2472	64.8026
2456	64.8269
2440	64.983
2424	64.8963
2408	64.8638
2392	64.7737
2376	64.8048
2360	64.8022
2344	64.8924
2328	64.9164
2312	64.9096
2296	64.8778
2280	64.8027
2264	64.8698
2248	64.7257
2232	64.7736
2216	64.7702
2200	64.8164
2184	64.5844
2168	64.6705
2152	64.7417
2136	64.7477
2120	64.7177
2104	64.7569
2088	64.7233
2072	64.7265
2056	64.697
2040	64.6246
2024	64.6651
2008	64.6681
1992	64.7386
1976	64.7592
1960	64.5925
1944	64.6095
1928	64.6191
1912	64.5908
1896	64.5876
1880	64.5951
1864	64.6003
1848	64.5576
1832	64.5639
1816	64.5329
1800	64.5846
1784	64.5724
1768	64.4526
1752	64.5747
1736	64.4023
1720	64.343
1704	64.3591
1688	64.4059
1672	64.4431
1656	64.3581
1640	64.5465
1624	64.2709
1608	64.3375
1592	64.2815
1576	64.2174
1560	64.3208
1544	64.2744
1528	64.2568
1512	64.2706
1496	64.3441
1480	64.2671
1464	64.1887
1448	64.1612
1432	64.1074
1416	64.1691
1400	64.201
1384	64.0759
1368	64.2114
1352	64.0259
1336	64.0365
1320	64.0395
1304	64.1023
1288	64.1072
1272	64.0578
1256	64.1132
1240	64.0486
1224	63.9444
1208	64.1166
1192	63.9125
1176	64.1642
1160	63.8891
1144	63.8898
1128	63.7887
1112	63.8293
1096	63.8449
1080	63.8491
1064	63.8363
1048	63.7688
1032	63.797
1016	63.8501
1000	63.8294
984	 64.0166
968	 63.8088
952	 63.7583
936	 63.778
920	 63.9195
904	 63.9545
888	 63.7907
872	 63.752
856	 63.937
840	 63.807
824	 63.9866
808	 63.6364
792	 63.672
776	 63.7949
760	 63.3922
744	 63.7052
728	 63.4324
712	 63.6461
696	 63.4487
680	 63.5284
664	 63.0915
648	 63.5269
632	 63.1724
616	 63.824
600	 62.9642
584	 62.8044
568	 62.9484
552	 63.6695
536	 63.1556
520	 63.5932
504	 62.9304
488	 63.107
472	 64.1402
456	 64.3583
440	 63.3349
424	 62.6972
408	 59.7751
392	 56.603
376	 56.7599
370	 43.1186

File: BZ1503107-1_t48.asc
PE IR       SPECTRUM    SPECTRUM    ASCII       PEDS        1.60
  -1
BZ296D~1.ASC
17/04/07
17:12:54.00
17/04/07
17:13:20.00
tln
$BZ1503107-1_t0048$<tbV0>[5.2,-2.6,8.0,0.0,27,1,0]
27.028
64

2002,4.07
MIRTGS : RIGHTBACK : INTERNAL 2
MIR : ON : INTERNAL 2
OPTKBR

0.200000
8
8.000000
FILLER
RATIO
SPECTRUM
UNLOCKED 256

DOUBLE
64
COMBINED
1
0
0

0.002000
RATIO

1
0
TRUE
51149
0
LEFT NOT FITTED RIGHT NOT FITTED 0
NONE
NONE
15600
12
4.427000
51148
TRUE
1 0 8 72 0 0 0 0

15798

#HDR
-1
-1
#GR
µM
%T
2.38419e-05
0.0
2.000000
0.002000
12515
8
67.5172
42.36
#DATA
2.000000	 64.0107
2.084000	 64.6072
2.168000	 64.8549
2.252000	 58.0847
2.336000	 65.1547
2.420000	 64.7633
2.504000	 65.2382
2.588000	 65.5299
2.672000	 65.0267
2.756000	 64.9337
2.840000	 65.3361
2.924000	 64.9975
3.008000	 65.1399
3.092000	 64.9483
3.176000	 65.038
3.260000	 65.0919
3.344000	 65.017
3.428000	 64.7063
3.512000	 64.9098
3.596000	 65.0062
3.680000	 65.0097
3.764000	 64.9462
3.848000	 65.0357
3.932000	 65.0145
4.016000	 64.8898
4.100000	 64.7925
4.184000	 64.901
4.268000	 64.8015
4.352000	 64.796
4.436000	 64.8314
4.520000	 64.7582
4.604000	 64.6659
4.688000	 64.5966
4.772000	 64.7984
4.856000	 64.6903
4.940000	 64.6691
5.024000	 64.7835
5.108000	 64.6043
5.192000	 64.6978
5.276000	 64.5773
5.359999	 64.655
5.444000	 64.6424
5.528000	 64.5262
5.612000	 64.4609
5.696000	 64.4257
5.780000	 64.3691
5.864000	 64.3816
5.948000	 64.3075
6.032000	 64.4714
6.116000	 64.3216
6.200000	 64.3096
6.284000	 64.2505
6.368000	 64.2104
6.452000	 64.291
6.536000	 64.2008
6.620000	 64.2815
6.704000	 64.2201
6.788000	 64.1838
6.872000	 64.1832
6.956000	 64.1105
7.040000	 64.2466
7.124000	 64.155
7.208000	 64.0562
7.292000	 64.0826
7.376000	 64.2006
7.460000	 64.13
7.544000	 64.1735
7.628000	 64.0394
7.712000	 64.2458
7.796000	 64.1345
7.880000	 64.175
7.964000	 63.9947
8.048000	 63.9623
8.132000	 63.9005
8.216000	 63.8886
8.300000	 63.9868
8.384000	 63.8516
8.468000	 63.9005
8.552000	 63.9764
8.635999	 63.6772
8.719999	 63.7526
8.804000	 63.9733
8.888000	 63.7968
8.972000	 63.7968
9.056000	 64.1128
9.140000	 63.9536
9.224000	 63.9673
9.308000	 63.7075
9.391999	 63.7343
9.475999	 63.7848
9.560000	 63.87
9.644000	 63.742
9.728000	 63.7948
9.812000	 63.7626
9.896000	 63.7279
9.980000	 63.8451
10.064	63.8363
10.148	63.9305
10.232	64.2906
10.316	63.9136
10.4	63.7995
10.484	63.8512
10.568	63.8759
10.652	63.6475
10.736	63.7263
10.82	63.9139
10.904	63.6564
10.988	63.7291
11.072	63.8028
11.156	63.6512
11.24	63.6745
11.324	63.9334
11.408	63.9979
11.492	63.8421
11.576	63.6186
11.66	63.8311
11.744	63.9498
11.828	64.0672
11.912	64.0366
11.996	63.8547
12.08	63.9833
12.164	63.974
12.248	63.9376
12.332	63.8695
12.416	63.7972
12.5	63.7453
12.584	63.7776
12.668	63.8615
12.752	63.8266
12.836	63.8609
12.92	63.8446
13.004	63.7105
13.088	63.6648
13.172	63.6257
13.256	63.6525
13.34	63.6004
13.424	63.4635
13.508	63.4023
13.592	63.3235
13.676	63.3828
13.76	63.5344
13.844	63.5817
13.928	63.6471
14.012	63.7102
14.096	63.6713
14.18	63.6285
14.264	63.5186
14.348	63.284
14.432	63.2135
14.516	63.3741
14.6	63.4553
14.684	63.5659
14.768	63.6953
14.852	63.4971
14.936	63.3203
15.02	63.4598
15.104	63.6545
15.188	63.7869
15.272	63.7741
15.356	63.6348
15.44	63.4308
15.524	63.0368
15.608	62.7363
15.692	62.9103
15.776	63.2431
15.86	63.3023
15.944	63.2401
16.028	63.496
16.112	64.0796
16.196	64.4301
16.28	64.2085
16.364	63.789
16.448	63.6539
16.532	63.7936
16.616	63.8661
16.7	63.6385
16.784	63.2304
16.868	62.9927
16.952	63.1978
17.036	63.7228
17.12	64.1446
17.204	64.2061
17.288	63.9306
17.372	63.4471
17.456	63.0432
17.54	63.0926
17.624	63.5599
17.708	63.9563
17.792	63.9957
17.876	63.836
17.96	63.6391
18.044	63.3498
18.128	63.0041
18.212	62.8799
18.296	63.1468
18.38	63.5952
18.464	63.8987
18.548	63.9965
18.632	64.051
18.716	64.1535
18.8	64.2282
18.884	64.1794
18.968	64.008
19.052	63.7707
19.136	63.5193
19.22	63.3251
19.304	63.2989
19.388	63.491
19.472	63.7772
19.556	63.9174
19.64	63.7699
19.724	63.4471
19.808	63.2084
19.892	63.2113
19.976	63.3885
20.06	63.5549
20.144	63.5868
20.228	63.4927
20.312	63.3663
20.396	63.3091
20.48	63.3657
20.564	63.5048
20.648	63.634
20.732	63.6534
20.816	63.5241
20.9	63.2999
20.984	63.0948
21.068	63.0103
21.152	63.0846
21.236	63.2819
21.32	63.5275
21.404	63.7519
21.488	63.9373
21.572	64.1111
21.656	64.2962
21.74	64.4765
21.824	64.6043
21.908	64.6518
21.992	64.6434
22.076	64.6324
22.16	64.6544
22.244	64.6807
22.328	64.6308
22.412	64.4191
22.496	64.0138
22.58	63.4715
22.664	62.9109
22.748	62.4612
22.832	62.1974
22.916	62.1285
23	62.2147
23.084	62.4142
23.168	62.6958
23.252	63.0402
23.336	63.4265
23.42	63.8239
23.504	64.1838
23.588	64.4532
23.672	64.5869
23.756	64.5487
23.84	64.3398
23.924	63.9985
24.008	63.5888
24.092	63.1847
24.176	62.8505
24.26	62.6347
24.344	62.5719
24.428	62.6857
24.512	63.0083
24.596	63.563
24.68	64.3444
24.764	65.289
24.848	66.274
24.932	67.093
25.016	67.5031
25.1	67.2879
25.184	66.335
25.268	64.7091
25.352	62.6292
25.436	60.422
25.52	58.4342
25.604	56.9436
25.688	56.0713
25.772	55.7665
25.856	55.8683
25.94	56.0956
26.024	56.1405
26.108	55.803
26.192	55.0203
26.276	53.9044
26.36	52.7306
26.444	51.8251
26.528	51.4137
26.612	51.5373
26.696	52.0031
26.78	52.4385
26.864	52.4233
26.948	51.6513
27.028	50.1273

File: BZ1503107-1_t48_cm-1.asc
PE IR       SPECTRUM    SPECTRUM    ASCII       PEDS        1.60
  -1
BZ6034~1.ASC
17/04/07
17:12:54.00
17/04/07
17:12:54.00
tln
$BZ1503107-1_t0048$<tbV0>[5.2,-2.6,8.0,0.0,27,1,0]
370
64

2002,4.07
MIRTGS : RIGHTBACK : INTERNAL 2
MIR : ON : INTERNAL 2
OPTKBR

0.200000
8
8.000000
FILLER
RATIO
SPECTRUM
UNLOCKED 256

DOUBLE
64
COMBINED
1
0
0

1.000000
RATIO

1
0
TRUE
51149
0
LEFT NOT FITTED RIGHT NOT FITTED 0
NONE
NONE
15600
12
4.427000
51148
TRUE
1 0 8 72 0 0 0 0

15798

#HDR
-1
-1
#GR
CM-1
%T
2.38419e-05
0.0
5000
-1.000000
4631
8
67.4737
41.5059
#DATA
5000	64.0107
4984	64.9427
4968	65.6633
4952	64.9526
4936	64.889
4920	64.8171
4904	64.5559
4888	65.0248
4872	64.6357
4856	64.7566
4840	64.2794
4824	64.3566
4808	64.6225
4792	64.509
4776	64.4102
4760	64.6371
4744	64.4795
4728	64.8477
4712	64.5956
4696	64.6018
4680	65.1535
4664	64.9662
4648	64.7061
4632	65.2441
4616	64.9122
4600	65.2746
4584	65.1733
4568	65.0745
4552	65.8256
4536	65.3117
4520	65.328
4504	66.2953
4488	65.3291
4472	65.5195
4456	66.0441
4440	56.4801
4424	60.2342
4408	66.5283
4392	65.8099
4376	65.9416
4360	66.4738
4344	65.5277
4328	65.6368
4312	65.3986
4296	65.2562
4280	65.1415
4264	65.1999
4248	65.2298
4232	65.0388
4216	65.0135
4200	65.1032
4184	64.7123
4168	64.8354
4152	64.7294
4136	64.8334
4120	64.9905
4104	64.8952
4088	64.8252
4072	64.7861
4056	65.0311
4040	65.1462
4024	64.8392
4008	65.1633
3992	65.3236
3976	65.2818
3960	65.0313
3944	65.0204
3928	64.799
3912	65.2544
3896	65.2375
3880	65.0874
3864	65.5298
3848	65.13
3832	65.1492
3816	65.0484
3800	65.0398
3784	65.3168
3768	64.8591
3752	65.0972
3736	65.0839
3720	64.9893
3704	65.0283
3688	65.0279
3672	64.9997
3656	65.2492
3640	65.1297
3624	64.8782
3608	65.0826
3592	64.9557
3576	65.1098
3560	65.0401
3544	65.1708
3528	65.0537
3512	65.2821
3496	65.3032
3480	65.1755
3464	65.2663
3448	65.126
3432	65.0068
3416	65.0212
3400	65.0327
3384	65.0895
3368	65.2494
3352	64.8082
3336	65.0132
3320	65.0886
3304	65.0133
3288	64.9033
3272	65.0089
3256	65.031
3240	65.0417
3224	65.1217
3208	65.1555
3192	65.0423
3176	65.1049
3160	65.0439
3144	65.007
3128	65.0604
3112	65.1958
3096	65.1901
3080	65.0696
3064	65.0825
3048	64.9861
3032	64.946
3016	65.0701
3000	65.0109
2984	65.0791
2968	64.847
2952	64.8419
2936	64.9368
2920	64.7188
2904	64.8767
2888	65.0352
2872	65.0121
2856	64.9592
2840	64.9502
2824	65.0054
2808	64.9302
2792	64.9634
2776	64.9491
2760	64.9318
2744	64.8787
2728	64.9334
2712	65.0633
2696	64.9536
2680	64.9967
2664	64.971
2648	64.9534
2632	64.9756
2616	64.8793
2600	65.0208
2584	64.9589
2568	64.8815
2552	64.9321
2536	64.9957
2520	64.9183
2504	64.9576
2488	64.9159
2472	64.8628
2456	64.8074
2440	64.7945
2424	64.889
2408	64.7377
2392	64.8919
2376	64.804
2360	64.6411
2344	64.8122
2328	64.6813
2312	64.7776
2296	64.7932
2280	64.7408
2264	64.8476
2248	64.7225
2232	64.7231
2216	64.7954
2200	64.7516
2184	64.7228
2168	64.6608
2152	64.8469
2136	64.6795
2120	64.7326
2104	64.7773
2088	64.6879
2072	64.7478
2056	64.6693
2040	64.6781
2024	64.6662
2008	64.7478
1992	64.7771
1976	64.6863
1960	64.642
1944	64.6068
1928	64.7084
1912	64.5519
1896	64.5756
1880	64.6497
1864	64.6548
1848	64.5109
1832	64.5871
1816	64.5225
1800	64.5214
1784	64.4424
1768	64.4792
1752	64.4298
1736	64.3292
1720	64.4149
1704	64.3879
1688	64.3367
1672	64.3611
1656	64.4482
1640	64.3063
1624	64.3409
1608	64.4222
1592	64.2485
1576	64.1243
1560	64.2957
1544	64.2333
1528	64.2204
1512	64.3094
1496	64.1643
1480	64.253
1464	64.1357
1448	64.2884
1432	64.1531
1416	64.267
1400	64.1466
1384	64.0488
1368	64.1138
1352	64.1773
1336	64.1818
1320	64.0676
1304	64.0031
1288	64.0943
1272	64.1522
1256	63.9991
1240	63.9204
1224	63.9452
1208	63.9168
1192	63.8515
1176	63.9052
1160	63.7165
1144	63.7697
1128	63.8168
1112	63.8508
1096	63.9966
1080	63.8791
1064	63.7442
1048	63.8264
1032	63.7493
1016	63.6955
1000	63.832
984	 64.0224
968	 63.8765
952	 63.8902
936	 63.6439
920	 63.777
904	 63.8166
888	 63.7246
872	 63.9387
856	 63.8711
840	 64.0541
824	 64.0021
808	 63.822
792	 63.8371
776	 63.872
760	 63.6306
744	 63.4479
728	 63.499
712	 63.7028
696	 63.2401
680	 63.6156
664	 63.5594
648	 63.4572
632	 63.3141
616	 64.3929
600	 63.7645
584	 64.1543
568	 63.4447
552	 63.0476
536	 64.077
520	 63.3101
504	 63.1796
488	 63.3817
472	 63.1547
456	 64.653
440	 62.5564
424	 64.4455
408	 62.9969
392	 58.643
376	 51.4793
370	 50.1273