Folder: Masteroppgave/Bakgrunnsmateriale/MATLAB/FTIR/ftir_data/subAa/Mapping_121 (part 17)

File: BZ1503107-1_t34.asc
PE IR       SPECTRUM    SPECTRUM    ASCII       PEDS        1.60
  -1
BZ2957~1.ASC
17/04/07
16:01:17.00
17/04/07
16:01:43.00
tln
$BZ1503107-1_t0034$<tbV0>[13.0,-5.2,8.0,0.0,27,1,0]
27.028
64

2002,4.07
MIRTGS : RIGHTBACK : INTERNAL 2
MIR : ON : INTERNAL 2
OPTKBR

0.200000
8
8.000000
FILLER
RATIO
SPECTRUM
UNLOCKED 256

DOUBLE
64
COMBINED
1
0
0

0.002000
RATIO

1
0
TRUE
51149
0
LEFT NOT FITTED RIGHT NOT FITTED 0
NONE
NONE
15600
12
4.427000
51148
TRUE
1 0 8 72 0 0 0 0

15798

#HDR
-1
-1
#GR
µM
%T
2.38419e-05
0.0
2.000000
0.002000
12515
8
85.141
45.8769
#DATA
2.000000	 65.551
2.084000	 65.0367
2.168000	 64.9785
2.252000	 66.3746
2.336000	 64.8121
2.420000	 65.3284
2.504000	 65.2615
2.588000	 65.112
2.672000	 65.2236
2.756000	 65.2758
2.840000	 65.1334
2.924000	 65.0557
3.008000	 65.2226
3.092000	 64.9696
3.176000	 65.0169
3.260000	 64.9595
3.344000	 65.1666
3.428000	 65.0255
3.512000	 64.9589
3.596000	 64.9363
3.680000	 65.0185
3.764000	 65.0875
3.848000	 64.9423
3.932000	 64.9484
4.016000	 65.0319
4.100000	 64.9789
4.184000	 65.0419
4.268000	 64.9728
4.352000	 64.8253
4.436000	 64.8784
4.520000	 64.8035
4.604000	 64.891
4.688000	 64.8251
4.772000	 64.7783
4.856000	 64.7187
4.940000	 64.8851
5.024000	 64.77
5.108000	 64.6904
5.192000	 64.7028
5.276000	 64.6677
5.359999	 64.6679
5.444000	 64.6791
5.528000	 64.5524
5.612000	 64.6044
5.696000	 64.4751
5.780000	 64.2279
5.864000	 64.505
5.948000	 64.4411
6.032000	 64.5118
6.116000	 64.4193
6.200000	 64.398
6.284000	 64.3657
6.368000	 64.2291
6.452000	 64.3505
6.536000	 64.3261
6.620000	 64.581
6.704000	 64.3874
6.788000	 64.3573
6.872000	 64.4143
6.956000	 64.4695
7.040000	 64.5218
7.124000	 64.3781
7.208000	 64.191
7.292000	 64.22
7.376000	 64.2864
7.460000	 64.3709
7.544000	 64.2765
7.628000	 64.1935
7.712000	 64.0871
7.796000	 64.0903
7.880000	 64.2258
7.964000	 64.0837
8.048000	 64.2081
8.132000	 64.1291
8.216000	 64.1722
8.300000	 64.0649
8.384000	 64.0298
8.468000	 64.0491
8.552000	 63.9685
8.635999	 64.1102
8.719999	 63.8725
8.804000	 63.8952
8.888000	 63.8094
8.972000	 63.9803
9.056000	 64.0193
9.140000	 63.9014
9.224000	 63.9111
9.308000	 64.039
9.391999	 64.0166
9.475999	 64.0313
9.560000	 63.9465
9.644000	 64.0279
9.728000	 64.1544
9.812000	 64.057
9.896000	 64.0319
9.980000	 64.0439
10.064	64.1535
10.148	64.0015
10.232	64.1572
10.316	63.9862
10.4	63.9832
10.484	64.084
10.568	64.1624
10.652	63.974
10.736	64.114
10.82	64.0959
10.904	63.9456
10.988	64.0902
11.072	63.9605
11.156	63.9399
11.24	64.1087
11.324	64.0126
11.408	64.0041
11.492	63.9494
11.576	64.2032
11.66	64.1756
11.744	64.096
11.828	63.9421
11.912	64.0276
11.996	63.9987
12.08	63.8671
12.164	63.8332
12.248	63.7032
12.332	63.8811
12.416	63.9508
12.5	63.9189
12.584	63.836
12.668	63.9979
12.752	64.0683
12.836	64.1025
12.92	64.0246
13.004	63.7026
13.088	63.7153
13.172	63.6874
13.256	63.6137
13.34	63.5958
13.424	63.8893
13.508	64.1853
13.592	63.8118
13.676	63.3411
13.76	63.5435
13.844	63.6578
13.928	63.4834
14.012	63.45
14.096	63.5132
14.18	63.7369
14.264	64.0168
14.348	64.2338
14.432	64.3447
14.516	64.1479
14.6	63.7324
14.684	63.4551
14.768	63.4253
14.852	63.4741
14.936	63.5469
15.02	63.5657
15.104	63.4049
15.188	63.297
15.272	63.2858
15.356	63.171
15.44	63.0798
15.524	63.1377
15.608	63.1904
15.692	63.2274
15.776	63.494
15.86	63.9953
15.944	64.3376
16.028	64.2062
16.112	63.7289
16.196	63.2948
16.28	63.1497
16.364	63.2441
16.448	63.4714
16.532	63.7981
16.616	64.168
16.7	64.4192
16.784	64.3737
16.868	64.0748
16.952	63.7841
17.036	63.6748
17.12	63.6927
17.204	63.7378
17.288	63.796
17.372	63.8616
17.456	63.8698
17.54	63.7671
17.624	63.6029
17.708	63.5338
17.792	63.6993
17.876	64.059
17.96	64.4451
18.044	64.7109
18.128	64.7271
18.212	64.4535
18.296	64.0418
18.38	63.7169
18.464	63.5967
18.548	63.6509
18.632	63.7567
18.716	63.784
18.8	63.6855
18.884	63.5258
18.968	63.4024
19.052	63.3304
19.136	63.2538
19.22	63.1376
19.304	62.9964
19.388	62.8588
19.472	62.7531
19.556	62.7047
19.64	62.7376
19.724	62.8751
19.808	63.1155
19.892	63.3981
19.976	63.6089
20.06	63.6582
20.144	63.5503
20.228	63.3732
20.312	63.2175
20.396	63.1178
20.48	63.0697
20.564	63.085
20.648	63.1942
20.732	63.3955
20.816	63.6137
20.9	63.7339
20.984	63.6885
21.068	63.5037
21.152	63.2565
21.236	63.0023
21.32	62.7514
21.404	62.5016
21.488	62.2853
21.572	62.1681
21.656	62.2178
21.74	62.4563
21.824	62.8235
21.908	63.1911
21.992	63.4293
22.076	63.4735
22.16	63.3567
22.244	63.1834
22.328	63.0621
22.412	63.0479
22.496	63.1271
22.58	63.2296
22.664	63.2714
22.748	63.1911
22.832	62.9664
22.916	62.6194
23	62.2209
23.084	61.8619
23.168	61.6356
23.252	61.5966
23.336	61.7443
23.42	62.0172
23.504	62.3437
23.588	62.6611
23.672	62.9439
23.756	63.2391
23.84	63.6194
23.924	64.1621
24.008	64.898
24.092	65.7708
24.176	66.6366
24.26	67.3359
24.344	67.7133
24.428	67.6693
24.512	67.2027
24.596	66.3709
24.68	65.3108
24.764	64.2582
24.848	63.4692
24.932	63.2451
25.016	63.8532
25.1	65.4647
25.184	68.0706
25.268	71.4408
25.352	75.1962
25.436	78.8516
25.52	81.9386
25.604	84.0997
25.688	85.0907
25.772	84.8072
25.856	83.2574
25.94	80.5963
26.024	77.0754
26.108	72.9827
26.192	68.5946
26.276	64.1285
26.36	59.746
26.444	55.5787
26.528	51.8198
26.612	48.6922
26.696	46.568
26.78	45.884
26.864	47.044
26.948	50.2107
27.028	54.7713

File: BZ1503107-1_t34_cm-1.asc
PE IR       SPECTRUM    SPECTRUM    ASCII       PEDS        1.60
  -1
BZ6CA0~1.ASC
17/04/07
16:01:17.00
17/04/07
16:01:17.00
tln
$BZ1503107-1_t0034$<tbV0>[13.0,-5.2,8.0,0.0,27,1,0]
370
64

2002,4.07
MIRTGS : RIGHTBACK : INTERNAL 2
MIR : ON : INTERNAL 2
OPTKBR

0.200000
8
8.000000
FILLER
RATIO
SPECTRUM
UNLOCKED 256

DOUBLE
64
COMBINED
1
0
0

1.000000
RATIO

1
0
TRUE
51149
0
LEFT NOT FITTED RIGHT NOT FITTED 0
NONE
NONE
15600
12
4.427000
51148
TRUE
1 0 8 72 0 0 0 0

15798

#HDR
-1
-1
#GR
CM-1
%T
2.38419e-05
0.0
5000
-1.000000
4631
8
85.1394
46.0164
#DATA
5000	65.551
4984	64.8336
4968	64.6226
4952	64.5112
4936	64.8105
4920	64.8953
4904	65.205
4888	64.6503
4872	65.2924
4856	64.9902
4840	65.0597
4824	64.954
4808	65.0107
4792	64.9109
4776	64.8864
4760	65.0782
4744	64.7219
4728	65.0056
4712	65.8512
4696	65.1248
4680	64.9023
4664	65.1478
4648	65.2709
4632	64.7187
4616	64.9457
4600	64.3233
4584	64.6774
4568	65.0483
4552	64.7067
4536	65.1072
4520	64.0734
4504	64.7095
4488	64.7672
4472	64.2768
4456	65.5715
4440	66.5815
4424	73.2203
4408	60.0544
4392	66.0796
4376	64.8669
4360	64.9849
4344	65.0066
4328	64.8558
4312	64.589
4296	65.0083
4280	64.8169
4264	65.3147
4248	64.8377
4232	65.0462
4216	65.1512
4200	65.1433
4184	65.3914
4168	65.0895
4152	65.0156
4136	65.4194
4120	65.2914
4104	65.4449
4088	64.9775
4072	65.1974
4056	65.3136
4040	65.2979
4024	65.2074
4008	65.1524
3992	65.2342
3976	65.025
3960	65.2937
3944	64.991
3928	65.1848
3912	65.3181
3896	65.368
3880	64.7503
3864	65.1126
3848	65.0987
3832	65.051
3816	65.0693
3800	65.4478
3784	64.9315
3768	65.2364
3752	65.0656
3736	65.1632
3720	65.1012
3704	65.3904
3688	65.1413
3672	65.2212
3656	65.196
3640	65.3024
3624	65.2322
3608	65.2282
3592	65.2459
3576	65.1537
3560	65.1824
3544	65.1746
3528	65.0791
3512	65.1525
3496	65.1852
3480	65.0012
3464	65.1471
3448	65.2304
3432	65.122
3416	64.9722
3400	65.1291
3384	65.2211
3368	65.1879
3352	65.1764
3336	65.1644
3320	65.2613
3304	65.0318
3288	64.8629
3272	65.1502
3256	64.9843
3240	65.0439
3224	65.1749
3208	64.9645
3192	65.0772
3176	65.1438
3160	65.1742
3144	64.9585
3128	65.1886
3112	65.1168
3096	65.2264
3080	65.079
3064	64.9549
3048	65.0343
3032	64.9409
3016	64.9733
3000	65.0744
2984	65.1964
2968	64.8223
2952	65.0302
2936	64.9776
2920	64.9807
2904	64.9335
2888	64.9676
2872	65.0205
2856	64.9467
2840	64.9176
2824	64.9613
2808	65.0139
2792	65.2602
2776	65.0785
2760	65.1091
2744	65.0551
2728	64.8903
2712	64.9682
2696	65.2259
2680	64.9539
2664	65.0431
2648	65.0752
2632	65.0309
2616	64.9383
2600	64.9299
2584	65.0542
2568	65.0232
2552	64.8432
2536	65.0934
2520	64.9994
2504	64.9689
2488	64.9925
2472	64.9211
2456	64.9687
2440	64.9699
2424	64.9855
2408	64.9906
2392	65.0453
2376	64.8158
2360	64.9335
2344	64.9728
2328	64.9853
2312	64.9925
2296	64.8216
2280	64.945
2264	64.91
2248	64.8274
2232	64.8315
2216	64.7941
2200	64.9441
2184	64.881
2168	64.8967
2152	64.8111
2136	64.8056
2120	64.9286
2104	64.8167
2088	64.7165
2072	64.8238
2056	64.7672
2040	64.7118
2024	64.888
2008	64.8495
1992	64.7647
1976	64.7959
1960	64.669
1944	64.7767
1928	64.7029
1912	64.6716
1896	64.6721
1880	64.6538
1864	64.6394
1848	64.6851
1832	64.7065
1816	64.7333
1800	64.6663
1784	64.6045
1768	64.6098
1752	64.4171
1736	64.2907
1720	64.4795
1704	64.5094
1688	64.4356
1672	64.5808
1656	64.5277
1640	64.4125
1624	64.3832
1608	64.3997
1592	64.3613
1576	64.1534
1560	64.334
1544	64.3954
1528	64.3364
1512	64.5782
1496	64.4713
1480	64.3993
1464	64.3752
1448	64.3824
1432	64.4516
1416	64.5436
1400	64.331
1384	64.204
1368	64.2395
1352	64.2737
1336	64.4022
1320	64.2383
1304	64.2036
1288	64.0707
1272	64.1868
1256	64.0837
1240	64.1927
1224	64.0781
1208	64.1
1192	64.0289
1176	64.0807
1160	64.1134
1144	63.9205
1128	63.7724
1112	63.9735
1096	63.9016
1080	63.9173
1064	64.0309
1048	63.9311
1032	64.107
1016	64.0182
1000	64.0608
984	 64.0378
968	 63.9795
952	 64.1297
936	 64.0491
920	 64.0115
904	 63.9968
888	 64.0555
872	 63.904
856	 64.1685
840	 64.0208
824	 63.8598
808	 63.9409
792	 63.8946
776	 64.1063
760	 63.7028
744	 63.977
728	 63.448
712	 63.4631
696	 64.276
680	 63.4278
664	 63.5029
648	 63.0813
632	 63.7645
616	 63.1917
600	 64.3479
584	 63.6942
568	 63.6373
552	 64.7437
536	 63.7774
520	 63.1203
504	 63.2284
488	 63.0674
472	 63.1517
456	 63.2699
440	 63.2242
424	 62.6501
408	 67.2198
392	 81.6226
376	 49.2281
370	 54.7713

File: BZ1503107-1_t35.asc
PE IR       SPECTRUM    SPECTRUM    ASCII       PEDS        1.60
  -1
BZ2D57~1.ASC
17/04/07
16:05:54.00
17/04/07
16:06:20.00
tln
$BZ1503107-1_t0035$<tbV0>[10.4,-5.2,8.0,0.0,27,1,0]
27.028
64

2002,4.07
MIRTGS : RIGHTBACK : INTERNAL 2
MIR : ON : INTERNAL 2
OPTKBR

0.200000
8
8.000000
FILLER
RATIO
SPECTRUM
UNLOCKED 256

DOUBLE
64
COMBINED
1
0
0

0.002000
RATIO

1
0
TRUE
51149
0
LEFT NOT FITTED RIGHT NOT FITTED 0
NONE
NONE
15600
12
4.427000
51148
TRUE
1 0 8 72 0 0 0 0

15798

#HDR
-1
-1
#GR
µM
%T
2.38419e-05
0.0
2.000000
0.002000
12515
8
86.3484
53.5418
#DATA
2.000000	 65.2747
2.084000	 65.6102
2.168000	 64.728
2.252000	 65.5762
2.336000	 64.545
2.420000	 65.211
2.504000	 65.4351
2.588000	 65.1041
2.672000	 65.1894
2.756000	 65.2738
2.840000	 65.0474
2.924000	 65.431
3.008000	 65.1481
3.092000	 65.1323
3.176000	 64.962
3.260000	 65.0049
3.344000	 65.104
3.428000	 65.1643
3.512000	 65.0041
3.596000	 65.1025
3.680000	 64.9719
3.764000	 65.0992
3.848000	 65.0472
3.932000	 65.0115
4.016000	 64.8854
4.100000	 64.9659
4.184000	 65.0709
4.268000	 64.9738
4.352000	 64.8922
4.436000	 64.8847
4.520000	 64.8037
4.604000	 64.8218
4.688000	 64.7286
4.772000	 64.7813
4.856000	 64.6971
4.940000	 64.881
5.024000	 64.7427
5.108000	 64.8595
5.192000	 64.6842
5.276000	 64.6415
5.359999	 64.7111
5.444000	 64.7612
5.528000	 64.6858
5.612000	 64.6265
5.696000	 64.4866
5.780000	 64.3274
5.864000	 64.3923
5.948000	 64.607
6.032000	 64.4297
6.116000	 64.4086
6.200000	 64.4042
6.284000	 64.484
6.368000	 64.3779
6.452000	 64.33
6.536000	 64.4261
6.620000	 64.5526
6.704000	 64.3785
6.788000	 64.336
6.872000	 64.3503
6.956000	 64.4832
7.040000	 64.2732
7.124000	 64.3812
7.208000	 64.2805
7.292000	 64.4102
7.376000	 64.2493
7.460000	 64.3906
7.544000	 64.2606
7.628000	 64.3272
7.712000	 64.2644
7.796000	 64.1983
7.880000	 64.2919
7.964000	 64.2214
8.048000	 64.1295
8.132000	 64.1027
8.216000	 64.1111
8.300000	 64.0152
8.384000	 64.2017
8.468000	 64.1731
8.552000	 63.9813
8.635999	 64.1014
8.719999	 64.0686
8.804000	 64.022
8.888000	 63.8901
8.972000	 64.0357
9.056000	 64.0242
9.140000	 63.9635
9.224000	 63.8583
9.308000	 64.182
9.391999	 64.0366
9.475999	 64.0285
9.560000	 64.0175
9.644000	 63.9942
9.728000	 63.9793
9.812000	 63.9141
9.896000	 63.9765
9.980000	 64.0927
10.064	64.1489
10.148	63.9773
10.232	64.167
10.316	63.9853
10.4	63.9979
10.484	63.9521
10.568	64.1054
10.652	64.0232
10.736	63.9689
10.82	63.9924
10.904	64.1651
10.988	64.1153
11.072	63.9502
11.156	63.878
11.24	64.1646
11.324	64.3515
11.408	64.3408
11.492	63.9505
11.576	64.0139
11.66	64.1191
11.744	64.0466
11.828	63.8087
11.912	63.9231
11.996	64.1292
12.08	64.0973
12.164	64.0031
12.248	63.8766
12.332	64.0569
12.416	64.1778
12.5	64.095
12.584	64.1837
12.668	64.1521
12.752	64.0761
12.836	64.1018
12.92	64.1767
13.004	63.9989
13.088	63.7467
13.172	64.0054
13.256	64.0229
13.34	63.8172
13.424	63.8533
13.508	63.4933
13.592	62.9921
13.676	62.8293
13.76	62.8902
13.844	63.3783
13.928	64.0122
14.012	63.8579
14.096	63.3163
14.18	63.0557
14.264	63.268
14.348	64.0499
14.432	64.7377
14.516	64.4861
14.6	63.556
14.684	62.6831
14.768	62.6807
14.852	63.3605
14.936	63.71
15.02	63.6307
15.104	63.2529
15.188	62.9515
15.272	63.2873
15.356	63.7044
15.44	63.6085
15.524	63.4858
15.608	63.7265
15.692	64.1066
15.776	64.4596
15.86	64.7079
15.944	64.6219
16.028	64.1737
16.112	63.7109
16.196	63.5156
16.28	63.567
16.364	63.7333
16.448	63.8893
16.532	64.0261
16.616	64.2267
16.7	64.3921
16.784	64.2847
16.868	63.9367
16.952	63.6602
17.036	63.6515
17.12	63.8256
17.204	63.9791
17.288	63.9991
17.372	63.9076
17.456	63.7456
17.54	63.498
17.624	63.1915
17.708	62.9794
17.792	63.0265
17.876	63.3491
17.96	63.7819
18.044	64.0825
18.128	64.0814
18.212	63.812
18.296	63.4786
18.38	63.2712
18.464	63.2473
18.548	63.3656
18.632	63.5541
18.716	63.7306
18.8	63.8206
18.884	63.8115
18.968	63.7539
19.052	63.6964
19.136	63.6576
19.22	63.6551
19.304	63.7101
19.388	63.8173
19.472	63.9399
19.556	64.0425
19.64	64.1191
19.724	64.1762
19.808	64.1989
19.892	64.1483
19.976	63.9972
20.06	63.7716
20.144	63.5538
20.228	63.4375
20.312	63.4649
20.396	63.5997
20.48	63.7661
20.564	63.9097
20.648	64.0359
20.732	64.1728
20.816	64.3118
20.9	64.3963
20.984	64.3837
21.068	64.3005
21.152	64.2218
21.236	64.2056
21.32	64.2584
21.404	64.3447
21.488	64.4132
21.572	64.4243
21.656	64.3565
21.74	64.2081
21.824	64.0015
21.908	63.7745
21.992	63.5669
22.076	63.4099
22.16	63.3159
22.244	63.2774
22.328	63.2672
22.412	63.2394
22.496	63.1458
22.58	62.9688
22.664	62.7486
22.748	62.5865
22.832	62.5804
22.916	62.7687
23	63.0882
23.084	63.3881
23.168	63.4998
23.252	63.3461
23.336	62.9616
23.42	62.4863
23.504	62.1061
23.588	61.9371
23.672	61.9855
23.756	62.1921
23.84	62.4663
23.924	62.7732
24.008	63.1425
24.092	63.6193
24.176	64.2077
24.26	64.8426
24.344	65.352
24.428	65.5061
24.512	65.0962
24.596	64.0053
24.68	62.2618
24.764	60.0872
24.848	57.8433
24.932	56.053
25.016	55.2541
25.1	55.8416
25.184	57.9795
25.268	61.493
25.352	65.921
25.436	70.6586
25.52	75.1412
25.604	78.9548
25.688	81.7886
25.772	83.4138
25.856	83.6455
25.94	82.378
26.024	79.603
26.108	75.4749
26.192	70.4074
26.276	65.024
26.36	60.0673
26.444	56.2364
26.528	54.0226
26.612	53.5986
26.696	54.8036
26.78	57.1609
26.864	60.0767
26.948	62.9259
27.028	64.9133

File: BZ1503107-1_t35_cm-1.asc
PE IR       SPECTRUM    SPECTRUM    ASCII       PEDS        1.60
  -1
BZ6DA0~1.ASC
17/04/07
16:05:54.00
17/04/07
16:05:54.00
tln
$BZ1503107-1_t0035$<tbV0>[10.4,-5.2,8.0,0.0,27,1,0]
370
64

2002,4.07
MIRTGS : RIGHTBACK : INTERNAL 2
MIR : ON : INTERNAL 2
OPTKBR

0.200000
8
8.000000
FILLER
RATIO
SPECTRUM
UNLOCKED 256

DOUBLE
64
COMBINED
1
0
0

1.000000
RATIO

1
0
TRUE
51149
0
LEFT NOT FITTED RIGHT NOT FITTED 0
NONE
NONE
15600
12
4.427000
51148
TRUE
1 0 8 72 0 0 0 0

15798

#HDR
-1
-1
#GR
CM-1
%T
2.38419e-05
0.0
5000
-1.000000
4631
8
86.3307
53.5444
#DATA
5000	65.2747
4984	65.0769
4968	63.9213
4952	64.1701
4936	64.7518
4920	64.7761
4904	65.0579
4888	65.0378
4872	64.6471
4856	65.219
4840	64.906
4824	65.1897
4808	65.1146
4792	65.2071
4776	65.3878
4760	65.4317
4744	65.3827
4728	65.4835
4712	65.6689
4696	65.4257
4680	65.2321
4664	65.0716
4648	64.7959
4632	64.867
4616	64.7337
4600	64.5769
4584	64.4516
4568	64.6333
4552	64.288
4536	64.4695
4520	64.0408
4504	64.5745
4488	64.213
4472	63.6335
4456	64.3703
4440	65.7011
4424	86.0138
4408	67.3077
4392	64.5815
4376	64.1807
4360	63.8546
4344	63.8259
4328	64.0942
4312	64.2112
4296	64.3818
4280	64.5087
4264	65.0316
4248	64.8539
4232	64.9359
4216	65.0881
4200	64.8576
4184	65.5331
4168	65.7105
4152	65.154
4136	65.2448
4120	65.484
4104	65.3819
4088	65.1217
4072	65.3624
4056	65.2486
4040	65.3381
4024	65.2608
4008	65.3118
3992	65.4024
3976	65.2412
3960	65.2777
3944	65.1776
3928	65.0718
3912	65.2336
3896	65.0865
3880	65.1457
3864	65.1042
3848	65.1706
3832	65.3307
3816	65.0523
3800	65.4757
3784	65.1804
3768	65.1697
3752	65.0316
3736	65.0289
3720	65.2663
3704	65.4383
3688	65.3018
3672	65.3661
3656	65.3494
3640	65.1598
3624	65.3456
3608	65.2444
3592	65.5394
3576	65.1826
3560	65.0541
3544	65.2179
3528	65.128
3512	65.1492
3496	65.301
3480	65.0468
3464	65.1513
3448	65.046
3432	65.1438
3416	65.3072
3400	65.2977
3384	65.2914
3368	65.2076
3352	65.3467
3336	65.4141
3320	65.0697
3304	65.1718
3288	65.0538
3272	65.2357
3256	65.0902
3240	65.2451
3224	65.126
3208	65.0658
3192	65.1538
3176	65.1832
3160	65.1369
3144	64.9691
3128	65.2655
3112	65.0967
3096	65.2205
3080	65.1031
3064	65.0406
3048	65.0447
3032	65.0174
3016	65.0314
3000	65.1195
2984	65.038
2968	65.0716
2952	65.0843
2936	65.0418
2920	65.2315
2904	65.0306
2888	65.11
2872	65.0601
2856	65.0411
2840	64.9999
2824	65.0799
2808	65.073
2792	65.2028
2776	65.1474
2760	65.1615
2744	65.1893
2728	65.078
2712	65.0372
2696	65.1145
2680	64.9718
2664	65.0814
2648	65.1243
2632	64.981
2616	65.0385
2600	65.0342
2584	65.0276
2568	65.0482
2552	65.1288
2536	65.065
2520	65.081
2504	65.0811
2488	64.8887
2472	65.0726
2456	64.8934
2440	64.9425
2424	65.1143
2408	64.9336
2392	65.0669
2376	64.8342
2360	65.0039
2344	64.9894
2328	64.9577
2312	65.0198
2296	64.8432
2280	64.8932
2264	64.8537
2248	64.9316
2232	65.0324
2216	64.8877
2200	64.8811
2184	64.8309
2168	64.7653
2152	64.7839
2136	64.7059
2120	64.7087
2104	64.8434
2088	64.7453
2072	64.6988
2056	64.7766
2040	64.7222
2024	64.8844
2008	64.8578
1992	64.7333
1976	64.7385
1960	64.8472
1944	64.7054
1928	64.6559
1912	64.6799
1896	64.6335
1880	64.6854
1864	64.6829
1848	64.7442
1832	64.752
1816	64.7234
1800	64.6895
1784	64.6468
1768	64.5625
1752	64.4315
1736	64.2723
1720	64.3314
1704	64.3948
1688	64.6493
1672	64.5611
1656	64.3758
1640	64.4041
1624	64.3952
1608	64.4128
1592	64.4926
1576	64.3743
1560	64.5533
1544	64.3423
1528	64.4428
1512	64.5416
1496	64.4701
1480	64.3968
1464	64.3163
1448	64.4254
1432	64.2998
1416	64.3226
1400	64.323
1384	64.3078
1368	64.4534
1352	64.2284
1336	64.3888
1320	64.3024
1304	64.2742
1288	64.1832
1272	64.2908
1256	64.2252
1240	64.1157
1224	64.1023
1208	64.0332
1192	64.1926
1176	64.1277
1160	64.1697
1144	64.0847
1128	63.9199
1112	64.0241
1096	64.0074
1080	63.9361
1064	64.0201
1048	64.0477
1032	64.0232
1016	63.9425
1000	64.1522
984	 64.015
968	 63.9915
952	 64.0174
936	 64.003
920	 64.0821
904	 63.9804
888	 64.2193
872	 64.0343
856	 64.1402
840	 63.9027
824	 64.0477
808	 64.1656
792	 64.1957
776	 64.151
760	 63.9503
744	 63.826
728	 62.8469
712	 63.6383
696	 64.2638
680	 62.5751
664	 63.4822
648	 63.6302
632	 64.6242
616	 63.5155
600	 64.3479
584	 63.8331
568	 63.2575
552	 64.1013
536	 63.6113
520	 63.6586
504	 64.19
488	 63.7882
472	 64.2059
456	 63.7171
440	 62.6151
424	 61.9394
408	 65.1155
392	 74.6485
376	 53.5444
370	 64.9133

File: BZ1503107-1_t36.asc
PE IR       SPECTRUM    SPECTRUM    ASCII       PEDS        1.60
  -1
BZ2167~1.ASC
17/04/07
16:10:31.00
17/04/07
16:10:57.00
tln
$BZ1503107-1_t0036$<tbV0>[7.8,-5.2,8.0,0.0,27,1,0]
27.028
64

2002,4.07
MIRTGS : RIGHTBACK : INTERNAL 2
MIR : ON : INTERNAL 2
OPTKBR

0.200000
8
8.000000
FILLER
RATIO
SPECTRUM
UNLOCKED 256

DOUBLE
64
COMBINED
1
0
0

0.002000
RATIO

1
0
TRUE
51149
0
LEFT NOT FITTED RIGHT NOT FITTED 0
NONE
NONE
15600
12
4.427000
51148
TRUE
1 0 8 72 0 0 0 0

15798

#HDR
-1
-1
#GR
µM
%T
2.38419e-05
0.0
2.000000
0.002000
12515
8
77.5598
40.355
#DATA
2.000000	 65.3729
2.084000	 64.6502
2.168000	 64.7505
2.252000	 65.8522
2.336000	 64.8192
2.420000	 65.2979
2.504000	 65.3905
2.588000	 64.9948
2.672000	 65.1466
2.756000	 65.3563
2.840000	 65.1473
2.924000	 65.2949
3.008000	 65.1547
3.092000	 65.018
3.176000	 65.028
3.260000	 65.1864
3.344000	 65.1882
3.428000	 64.9674
3.512000	 64.9571
3.596000	 64.9353
3.680000	 65.0291
3.764000	 65.0832
3.848000	 65.0629
3.932000	 64.9557
4.016000	 64.8691
4.100000	 65.0461
4.184000	 65.0371
4.268000	 64.9087
4.352000	 64.8958
4.436000	 64.8117
4.520000	 64.8483
4.604000	 64.8658
4.688000	 64.793
4.772000	 64.8072
4.856000	 64.8277
4.940000	 64.8477
5.024000	 64.7762
5.108000	 64.7767
5.192000	 64.6994
5.276000	 64.6899
5.359999	 64.6459
5.444000	 64.6379
5.528000	 64.7078
5.612000	 64.6202
5.696000	 64.5554
5.780000	 64.4046
5.864000	 64.528
5.948000	 64.5749
6.032000	 64.4766
6.116000	 64.5028
6.200000	 64.411
6.284000	 64.5374
6.368000	 64.351
6.452000	 64.4063
6.536000	 64.3662
6.620000	 64.4037
6.704000	 64.4753
6.788000	 64.301
6.872000	 64.3275
6.956000	 64.3673
7.040000	 64.256
7.124000	 64.2344
7.208000	 64.2105
7.292000	 64.2686
7.376000	 64.0581
7.460000	 64.3416
7.544000	 64.1393
7.628000	 64.2432
7.712000	 64.2649
7.796000	 64.1263
7.880000	 64.062
7.964000	 64.2011
8.048000	 64.1295
8.132000	 64.1299
8.216000	 64.1915
8.300000	 64.0988
8.384000	 64.0817
8.468000	 64.1854
8.552000	 64.0011
8.635999	 64.057
8.719999	 63.9785
8.804000	 63.9031
8.888000	 63.9648
8.972000	 64.0123
9.056000	 64.1729
9.140000	 63.895
9.224000	 64.0045
9.308000	 63.9986
9.391999	 64.0078
9.475999	 63.9367
9.560000	 63.951
9.644000	 63.9189
9.728000	 64.2041
9.812000	 64.2266
9.896000	 64.1796
9.980000	 64.1027
10.064	64.144
10.148	64.1221
10.232	64.1339
10.316	63.9934
10.4	64.0194
10.484	63.9049
10.568	63.9332
10.652	63.966
10.736	64.0103
10.82	64.0444
10.904	64.0316
10.988	64.0892
11.072	64.0184
11.156	64.0961
11.24	63.9916
11.324	64.0104
11.408	64.1063
11.492	63.9662
11.576	64.1341
11.66	64.1266
11.744	64.0936
11.828	64.0299
11.912	64.0272
11.996	63.8174
12.08	63.7004
12.164	63.6817
12.248	63.7737
12.332	63.8681
12.416	63.8387
12.5	63.8633
12.584	64.1558
12.668	64.1651
12.752	64.192
12.836	63.9302
12.92	63.8268
13.004	63.9577
13.088	63.801
13.172	63.655
13.256	63.6348
13.34	63.6707
13.424	63.5476
13.508	63.4864
13.592	63.8353
13.676	63.876
13.76	63.5699
13.844	63.5484
13.928	63.5692
14.012	63.3859
14.096	63.556
14.18	63.9871
14.264	63.9909
14.348	63.8216
14.432	63.9578
14.516	63.987
14.6	63.5643
14.684	63.0598
14.768	62.8482
14.852	62.9157
14.936	63.1685
15.02	63.3491
15.104	63.3705
15.188	63.4486
15.272	63.5438
15.356	63.7115
15.44	63.93
15.524	63.9367
15.608	64.0007
15.692	64.4715
15.776	65.0846
15.86	65.3922
15.944	65.0774
16.028	64.1612
16.112	63.1834
16.196	62.6637
16.28	62.6857
16.364	63.1054
16.448	63.614
16.532	63.8857
16.616	64.0243
16.7	64.3406
16.784	64.6962
16.868	64.6866
16.952	64.2606
17.036	63.7246
17.12	63.3657
17.204	63.3262
17.288	63.6367
17.372	64.1191
17.456	64.401
17.54	64.2494
17.624	63.8331
17.708	63.4987
17.792	63.3889
17.876	63.4316
17.96	63.5677
18.044	63.7854
18.128	63.9914
18.212	64.0915
18.296	64.1333
18.38	64.2118
18.464	64.2912
18.548	64.2422
18.632	64.0272
18.716	63.7605
18.8	63.6129
18.884	63.6862
18.968	63.9403
19.052	64.1901
19.136	64.2472
19.22	64.0779
19.304	63.8114
19.388	63.5851
19.472	63.4371
19.556	63.3372
19.64	63.2737
19.724	63.2667
19.808	63.3225
19.892	63.4217
19.976	63.5378
20.06	63.6439
20.144	63.703
20.228	63.6749
20.312	63.5566
20.396	63.403
20.48	63.3093
20.564	63.3528
20.648	63.5505
20.732	63.8503
20.816	64.1478
20.9	64.3293
20.984	64.3233
21.068	64.1427
21.152	63.8791
21.236	63.6471
21.32	63.5144
21.404	63.4601
21.488	63.3915
21.572	63.2198
21.656	62.9211
21.74	62.5494
21.824	62.2032
21.908	61.9653
21.992	61.8735
22.076	61.9275
22.16	62.1016
22.244	62.3517
22.328	62.6059
22.412	62.7728
22.496	62.7775
22.58	62.6167
22.664	62.3801
22.748	62.2276
22.832	62.2877
22.916	62.6004
23	63.0609
23.084	63.4938
23.168	63.7248
23.252	63.6769
23.336	63.385
23.42	62.961
23.504	62.5377
23.588	62.2012
23.672	61.9783
23.756	61.8731
23.84	61.8836
23.924	62.0211
24.008	62.301
24.092	62.7209
24.176	63.2428
24.26	63.8524
24.344	64.5565
24.428	65.3596
24.512	66.2626
24.596	67.193
24.68	68.013
24.764	68.5835
24.848	68.81
24.932	68.7277
25.016	68.5295
25.1	68.498
25.184	68.9132
25.268	69.9155
25.352	71.4611
25.436	73.336
25.52	75.2098
25.604	76.7283
25.688	77.5151
25.772	77.2861
25.856	75.9248
25.94	73.4612
26.024	70.0717
26.108	66.0508
26.192	61.7685
26.276	57.5609
26.36	53.6762
26.444	50.2036
26.528	47.1465
26.612	44.4591
26.696	42.2379
26.78	40.7612
26.864	40.377
26.948	41.2925
27.028	43.2255