Folder: Masteroppgave/Bakgrunnsmateriale/MATLAB/FTIR/ftir_data/subAa/Mapping_121 (part 45)

File: BZ1503107-1_t104.asc
PE IR       SPECTRUM    SPECTRUM    ASCII       PEDS        1.60
  -1
BZD6B2~1.ASC
17/04/07
21:46:41.00
17/04/07
21:47:07.00
tln
$BZ1503107-1_t0104$<tbV0>[2.6,10.4,8.0,0.0,27,1,0]
27.028
64

2002,4.07
MIRTGS : RIGHTBACK : INTERNAL 2
MIR : ON : INTERNAL 2
OPTKBR

0.200000
8
8.000000
FILLER
RATIO
SPECTRUM
UNLOCKED 256

DOUBLE
64
COMBINED
1
0
0

0.002000
RATIO

1
0
TRUE
51149
0
LEFT NOT FITTED RIGHT NOT FITTED 0
NONE
NONE
15600
12
4.427000
51148
TRUE
1 0 8 72 0 0 0 0

15798

#HDR
-1
-1
#GR
µM
%T
2.38419e-05
0.0
2.000000
0.002000
12515
8
83.6483
39.257
#DATA
2.000000	 62.9284
2.084000	 64.883
2.168000	 64.9866
2.252000	 74.9087
2.336000	 65.1116
2.420000	 65.2203
2.504000	 65.1328
2.588000	 64.7704
2.672000	 65.0811
2.756000	 65.01
2.840000	 64.8969
2.924000	 64.9321
3.008000	 64.7624
3.092000	 64.9392
3.176000	 64.8326
3.260000	 64.7237
3.344000	 64.8347
3.428000	 64.7068
3.512000	 64.6291
3.596000	 64.8126
3.680000	 64.7171
3.764000	 64.5818
3.848000	 64.6601
3.932000	 64.6251
4.016000	 64.5938
4.100000	 64.4344
4.184000	 64.3815
4.268000	 64.4344
4.352000	 64.3555
4.436000	 64.3509
4.520000	 64.3242
4.604000	 64.2047
4.688000	 64.2316
4.772000	 64.2438
4.856000	 64.3579
4.940000	 64.1486
5.024000	 64.0945
5.108000	 64.133
5.192000	 64.0378
5.276000	 64.1279
5.359999	 64.0318
5.444000	 64.0943
5.528000	 64.0359
5.612000	 63.9346
5.696000	 63.6738
5.780000	 63.432
5.864000	 63.7022
5.948000	 63.6459
6.032000	 63.6477
6.116000	 63.6636
6.200000	 63.6781
6.284000	 63.6596
6.368000	 63.6838
6.452000	 63.5746
6.536000	 63.5015
6.620000	 63.4654
6.704000	 63.4848
6.788000	 63.5228
6.872000	 63.5059
6.956000	 63.3492
7.040000	 63.3193
7.124000	 63.4825
7.208000	 63.3039
7.292000	 63.3188
7.376000	 63.3339
7.460000	 63.2836
7.544000	 63.3033
7.628000	 63.2981
7.712000	 63.2442
7.796000	 63.0986
7.880000	 63.0416
7.964000	 63.0962
8.048000	 63.0287
8.132000	 63.0217
8.216000	 63.0273
8.300000	 63.0539
8.384000	 63.0202
8.468000	 62.8983
8.552000	 62.7703
8.635999	 62.8407
8.719999	 62.9696
8.804000	 63.1131
8.888000	 62.9713
8.972000	 62.7273
9.056000	 62.9101
9.140000	 62.7352
9.224000	 62.8122
9.308000	 62.9164
9.391999	 62.7956
9.475999	 62.6489
9.560000	 62.5923
9.644000	 62.7111
9.728000	 62.7045
9.812000	 62.7573
9.896000	 62.7063
9.980000	 62.7366
10.064	62.6421
10.148	62.8126
10.232	62.9377
10.316	62.8606
10.4	62.8012
10.484	62.7278
10.568	62.5643
10.652	62.6806
10.736	62.7342
10.82	62.7928
10.904	62.7081
10.988	62.7368
11.072	62.5291
11.156	62.4468
11.24	62.638
11.324	62.6028
11.408	62.5265
11.492	62.6528
11.576	62.7451
11.66	62.6081
11.744	62.6277
11.828	62.7861
11.912	62.5372
11.996	62.5109
12.08	62.4665
12.164	62.6098
12.248	62.6838
12.332	62.6516
12.416	62.6872
12.5	62.4958
12.584	62.478
12.668	62.6022
12.752	62.6044
12.836	62.4636
12.92	62.3954
13.004	62.3109
13.088	62.2909
13.172	62.4137
13.256	62.4327
13.34	62.5227
13.424	62.5908
13.508	62.4126
13.592	62.3623
13.676	62.3791
13.76	62.2761
13.844	62.1505
13.928	62.0955
14.012	62.1086
14.096	62.2537
14.18	62.3037
14.264	62.1643
14.348	62.0377
14.432	61.9608
14.516	62.1079
14.6	62.294
14.684	62.1642
14.768	62.0714
14.852	62.2044
14.936	62.2469
15.02	62.1641
15.104	62.1094
15.188	62.0096
15.272	61.9026
15.356	61.9674
15.44	62.0969
15.524	62.153
15.608	62.1864
15.692	62.2659
15.776	62.4451
15.86	62.58
15.944	62.4052
16.028	62.0145
16.112	61.8137
16.196	61.7951
16.28	61.5805
16.364	61.2899
16.448	61.3293
16.532	61.5153
16.616	61.4698
16.7	61.2625
16.784	61.1053
16.868	61.1431
16.952	61.3752
17.036	61.4864
17.12	61.2668
17.204	61.1138
17.288	61.4756
17.372	62.1561
17.456	62.6721
17.54	62.8436
17.624	62.7381
17.708	62.4228
17.792	61.9875
17.876	61.5142
17.96	60.984
18.044	60.4193
18.128	60.0468
18.212	60.0463
18.296	60.2838
18.38	60.5214
18.464	60.7586
18.548	61.1427
18.632	61.6298
18.716	61.9439
18.8	61.8734
18.884	61.4909
18.968	61.0822
19.052	60.9165
19.136	61.0251
19.22	61.1966
19.304	61.2036
19.388	61.0553
19.472	60.9501
19.556	61.0122
19.64	61.1235
19.724	61.0608
19.808	60.7484
19.892	60.3182
19.976	59.968
20.06	59.8289
20.144	59.9607
20.228	60.3976
20.312	61.0931
20.396	61.8441
20.48	62.3419
20.564	62.3699
20.648	61.9749
20.732	61.4471
20.816	61.1226
20.9	61.1609
20.984	61.4622
21.068	61.7654
21.152	61.8358
21.236	61.6145
21.32	61.2412
21.404	60.9574
21.488	60.9462
21.572	61.2304
21.656	61.6775
21.74	62.0833
21.824	62.2827
21.908	62.2197
21.992	61.9379
22.076	61.5379
22.16	61.1378
22.244	60.8305
22.328	60.6791
22.412	60.7067
22.496	60.8778
22.58	61.1336
22.664	61.419
22.748	61.6987
22.832	61.9674
22.916	62.2238
23	62.4345
23.084	62.5447
23.168	62.5075
23.252	62.3365
23.336	62.1336
23.42	62.0784
23.504	62.3335
23.588	62.9386
23.672	63.7644
23.756	64.5108
23.84	64.8321
23.924	64.4801
24.008	63.4244
24.092	61.8833
24.176	60.2492
24.26	58.9311
24.344	58.2419
24.428	58.2779
24.512	58.9489
24.596	60.0287
24.68	61.217
24.764	62.2092
24.848	62.7514
24.932	62.6651
25.016	61.9031
25.1	60.5355
25.184	58.7729
25.268	56.9281
25.352	55.3453
25.436	54.3278
25.52	54.0446
25.604	54.5049
25.688	55.5488
25.772	56.868
25.856	58.0978
25.94	58.9153
26.024	59.1263
26.108	58.7291
26.192	57.8489
26.276	56.6677
26.36	55.3723
26.444	54.1071
26.528	52.9239
26.612	51.7878
26.696	50.5552
26.78	49.0315
26.864	47.0612
26.948	44.693
27.028	42.4306

File: BZ1503107-1_t104_cm-1.asc
PE IR       SPECTRUM    SPECTRUM    ASCII       PEDS        1.60
  -1
BZCB7A~1.ASC
17/04/07
21:46:41.00
17/04/07
21:46:41.00
tln
$BZ1503107-1_t0104$<tbV0>[2.6,10.4,8.0,0.0,27,1,0]
370
64

2002,4.07
MIRTGS : RIGHTBACK : INTERNAL 2
MIR : ON : INTERNAL 2
OPTKBR

0.200000
8
8.000000
FILLER
RATIO
SPECTRUM
UNLOCKED 256

DOUBLE
64
COMBINED
1
0
0

1.000000
RATIO

1
0
TRUE
51149
0
LEFT NOT FITTED RIGHT NOT FITTED 0
NONE
NONE
15600
12
4.427000
51148
TRUE
1 0 8 72 0 0 0 0

15798

#HDR
-1
-1
#GR
CM-1
%T
2.38419e-05
0.0
5000
-1.000000
4631
8
84.1278
39.1004
#DATA
5000	62.9284
4984	64.8854
4968	64.7116
4952	66.4432
4936	65.1436
4920	64.7066
4904	65.263
4888	64.519
4872	64.6506
4856	65.1038
4840	65.1734
4824	64.7049
4808	65.179
4792	65.1151
4776	64.9833
4760	65.0902
4744	65.0181
4728	64.6389
4712	64.9254
4696	64.848
4680	65.475
4664	65.171
4648	65.5692
4632	65.2824
4616	65.2219
4600	65.036
4584	64.9686
4568	65.1119
4552	64.8989
4536	64.9872
4520	65.3402
4504	65.4302
4488	64.3252
4472	64.9595
4456	64.9818
4440	71.9049
4424	62.9424
4408	67.0319
4392	64.9546
4376	64.7834
4360	65.1998
4344	65.1702
4328	65.382
4312	65.1707
4296	65.1005
4280	65.1585
4264	65.0667
4248	65.248
4232	65.1324
4216	64.9328
4200	65.1042
4184	65.0806
4168	65.2379
4152	64.9025
4136	65.0915
4120	65.1229
4104	65.0404
4088	64.8549
4072	65.2286
4056	64.8595
4040	65.2686
4024	65.1057
4008	64.6614
3992	65.1065
3976	64.8793
3960	65.0347
3944	64.6855
3928	65.1925
3912	64.9829
3896	65.1649
3880	64.9449
3864	64.7703
3848	64.9883
3832	65.1761
3816	65.1802
3800	64.9215
3784	65.0786
3768	65.1276
3752	65.19
3736	65.2734
3720	65.1056
3704	65.0149
3688	65.0961
3672	64.8827
3656	64.9007
3640	65.3299
3624	64.7948
3608	65.1423
3592	65.131
3576	64.8672
3560	65.1096
3544	64.9698
3528	65.0479
3512	64.9253
3496	65.1029
3480	65.0241
3464	64.9884
3448	64.7751
3432	64.8779
3416	65.1122
3400	65.0732
3384	65.0237
3368	64.9003
3352	65.0008
3336	65.0346
3320	64.8547
3304	64.95
3288	64.9306
3272	64.8453
3256	65.0123
3240	64.9341
3224	64.7835
3208	64.7683
3192	64.9626
3176	64.8763
3160	64.8824
3144	64.8561
3128	64.666
3112	64.8758
3096	64.8454
3080	64.9116
3064	64.7495
3048	64.9555
3032	64.8651
3016	64.8289
3000	64.8629
2984	64.7461
2968	64.5415
2952	64.701
2936	64.8347
2920	64.7551
2904	64.7416
2888	64.7252
2872	64.5918
2856	64.6282
2840	64.6671
2824	64.8153
2808	64.6222
2792	64.7528
2776	64.8187
2760	64.8802
2744	64.6958
2728	64.7488
2712	64.6781
2696	64.6979
2680	64.6519
2664	64.644
2648	64.7733
2632	64.6992
2616	64.672
2600	64.6492
2584	64.6806
2568	64.5403
2552	64.5632
2536	64.5905
2520	64.5779
2504	64.5331
2488	64.5807
2472	64.5597
2456	64.6889
2440	64.4375
2424	64.5799
2408	64.37
2392	64.387
2376	64.5424
2360	64.4782
2344	64.4402
2328	64.4691
2312	64.3987
2296	64.3642
2280	64.2938
2264	64.4071
2248	64.4771
2232	64.3769
2216	64.3034
2200	64.3081
2184	64.2603
2168	64.2528
2152	64.224
2136	64.243
2120	64.1515
2104	64.3316
2088	64.2737
2072	64.185
2056	64.3774
2040	64.0757
2024	64.1505
2008	64.0426
1992	64.0817
1976	64.1852
1960	64.1419
1944	64.0322
1928	64.0419
1912	64.0819
1896	64.1308
1880	64.0329
1864	64.0373
1848	63.93
1832	64.0811
1816	64.0285
1800	63.9652
1784	63.9204
1768	63.8542
1752	63.5593
1736	63.3538
1720	63.6399
1704	63.6713
1688	63.6197
1672	63.5931
1656	63.6242
1640	63.7167
1624	63.6419
1608	63.6727
1592	63.6672
1576	63.5938
1560	63.534
1544	63.6398
1528	63.5133
1512	63.4469
1496	63.4337
1480	63.3989
1464	63.4746
1448	63.4668
1432	63.372
1416	63.3698
1400	63.4533
1384	63.3294
1368	63.3908
1352	63.3236
1336	63.2532
1320	63.297
1304	63.1988
1288	63.15
1272	63.1085
1256	63.0904
1240	62.9855
1224	63.0663
1208	63.0682
1192	63.0129
1176	62.8351
1160	62.8173
1144	63.0245
1128	62.9225
1112	62.7481
1096	62.775
1080	62.8552
1064	62.7824
1048	62.6118
1032	62.7126
1016	62.7154
1000	62.7109
984	 62.8602
968	 62.8448
952	 62.6807
936	 62.7068
920	 62.7238
904	 62.5626
888	 62.6591
872	 62.6029
856	 62.5765
840	 62.5557
824	 62.5409
808	 62.6919
792	 62.5388
776	 62.4161
760	 62.396
744	 62.5664
728	 62.3142
712	 62.1538
696	 62.0117
680	 62.1154
664	 62.1344
648	 62.0874
632	 62.5457
616	 61.7338
600	 61.3487
584	 61.2558
568	 62.7807
552	 60.0783
536	 61.7545
520	 61.2094
504	 60.5804
488	 62.3765
472	 61.7761
456	 62.1643
440	 61.6309
424	 62.9115
408	 58.9254
392	 54.038
376	 52.0103
370	 42.4306

File: BZ1503107-1_t105.asc
PE IR       SPECTRUM    SPECTRUM    ASCII       PEDS        1.60
  -1
BZD6B6~1.ASC
17/04/07
21:51:18.00
17/04/07
21:51:44.00
tln
$BZ1503107-1_t0105$<tbV0>[0.0,10.4,8.0,0.0,27,1,0]
27.028
64

2002,4.07
MIRTGS : RIGHTBACK : INTERNAL 2
MIR : ON : INTERNAL 2
OPTKBR

0.200000
8
8.000000
FILLER
RATIO
SPECTRUM
UNLOCKED 256

DOUBLE
64
COMBINED
1
0
0

0.002000
RATIO

1
0
TRUE
51149
0
LEFT NOT FITTED RIGHT NOT FITTED 0
NONE
NONE
15600
12
4.427000
51148
TRUE
1 0 8 72 0 0 0 0

15798

#HDR
-1
-1
#GR
µM
%T
2.38419e-05
0.0
2.000000
0.002000
12515
8
80.8688
55.7917
#DATA
2.000000	 66.2032
2.084000	 65.362
2.168000	 64.6588
2.252000	 76.6971
2.336000	 64.838
2.420000	 65.263
2.504000	 64.9911
2.588000	 64.9392
2.672000	 64.9507
2.756000	 65.1631
2.840000	 65.0633
2.924000	 64.9075
3.008000	 64.8194
3.092000	 65.0798
3.176000	 64.6645
3.260000	 64.8064
3.344000	 64.6916
3.428000	 64.7334
3.512000	 64.5832
3.596000	 64.6943
3.680000	 64.7272
3.764000	 64.6742
3.848000	 64.5112
3.932000	 64.6349
4.016000	 64.4731
4.100000	 64.6236
4.184000	 64.4894
4.268000	 64.4052
4.352000	 64.4135
4.436000	 64.4116
4.520000	 64.3441
4.604000	 64.3133
4.688000	 64.2833
4.772000	 64.3084
4.856000	 64.2866
4.940000	 64.1088
5.024000	 64.2127
5.108000	 64.1252
5.192000	 63.9415
5.276000	 64.0409
5.359999	 64.0265
5.444000	 63.9803
5.528000	 63.9314
5.612000	 63.7705
5.696000	 63.6841
5.780000	 63.3013
5.864000	 63.6348
5.948000	 63.5866
6.032000	 63.6903
6.116000	 63.6748
6.200000	 63.6812
6.284000	 63.6969
6.368000	 63.6542
6.452000	 63.5105
6.536000	 63.5357
6.620000	 63.5113
6.704000	 63.504
6.788000	 63.3655
6.872000	 63.2746
6.956000	 63.2702
7.040000	 63.3208
7.124000	 63.2664
7.208000	 63.281
7.292000	 63.1006
7.376000	 63.0349
7.460000	 63.2175
7.544000	 63.1783
7.628000	 63.1883
7.712000	 63.1737
7.796000	 62.988
7.880000	 63.0105
7.964000	 62.9084
8.048000	 62.9219
8.132000	 62.9536
8.216000	 63.0999
8.300000	 62.9742
8.384000	 62.9122
8.468000	 62.7692
8.552000	 62.8019
8.635999	 62.6799
8.719999	 62.7926
8.804000	 62.9113
8.888000	 62.844
8.972000	 62.8233
9.056000	 62.9136
9.140000	 62.8685
9.224000	 62.8193
9.308000	 62.5973
9.391999	 62.803
9.475999	 62.8922
9.560000	 62.824
9.644000	 62.812
9.728000	 62.768
9.812000	 62.7336
9.896000	 62.7169
9.980000	 62.6889
10.064	62.8942
10.148	62.7993
10.232	62.8263
10.316	62.5902
10.4	62.5667
10.484	62.6831
10.568	62.6066
10.652	62.7054
10.736	62.7108
10.82	62.8454
10.904	62.8072
10.988	62.6995
11.072	62.4578
11.156	62.2365
11.24	62.4813
11.324	62.8462
11.408	62.8004
11.492	62.7353
11.576	62.7444
11.66	62.6364
11.744	62.5942
11.828	62.6873
11.912	62.5125
11.996	62.3709
12.08	62.3293
12.164	62.6803
12.248	62.9917
12.332	62.7893
12.416	62.4369
12.5	62.3532
12.584	62.6262
12.668	62.6398
12.752	62.4936
12.836	62.438
12.92	62.4612
13.004	62.3345
13.088	62.2833
13.172	62.3434
13.256	62.3466
13.34	62.316
13.424	62.2301
13.508	62.1935
13.592	62.3269
13.676	62.2701
13.76	62.1778
13.844	62.2023
13.928	62.183
14.012	62.2324
14.096	62.2462
14.18	62.1599
14.264	62.0633
14.348	61.9633
14.432	62.0233
14.516	62.27
14.6	62.2717
14.684	61.9161
14.768	61.7493
14.852	62.0128
14.936	62.2673
15.02	62.2536
15.104	62.1606
15.188	62.0149
15.272	61.8308
15.356	61.7667
15.44	61.9093
15.524	62.233
15.608	62.49
15.692	62.4608
15.776	62.3032
15.86	62.2092
15.944	62.0951
16.028	61.9316
16.112	61.749
16.196	61.3744
16.28	60.8874
16.364	60.8538
16.448	61.3956
16.532	61.8165
16.616	61.644
16.7	61.2609
16.784	61.189
16.868	61.3817
16.952	61.4706
17.036	61.4881
17.12	61.7538
17.204	62.1031
17.288	62.1328
17.372	62.0162
17.456	62.1618
17.54	62.4165
17.624	62.4081
17.708	62.2498
17.792	62.2304
17.876	62.2938
17.96	62.2636
18.044	62.1994
18.128	62.1868
18.212	62.0803
18.296	61.7274
18.38	61.2507
18.464	60.9313
18.548	60.9066
18.632	61.0548
18.716	61.1222
18.8	60.9431
18.884	60.6206
18.968	60.49
19.052	60.8219
19.136	61.4867
19.22	62.0207
19.304	62.0715
19.388	61.7351
19.472	61.3825
19.556	61.2546
19.64	61.2774
19.724	61.2129
19.808	60.91
19.892	60.3972
19.976	59.8322
20.06	59.4215
20.144	59.3554
20.228	59.7231
20.312	60.4187
20.396	61.1517
20.48	61.612
20.564	61.6631
20.648	61.4069
20.732	61.0854
20.816	60.9086
20.9	60.9498
20.984	61.1433
21.068	61.3428
21.152	61.3981
21.236	61.2373
21.32	60.9262
21.404	60.6535
21.488	60.6033
21.572	60.826
21.656	61.2229
21.74	61.6207
21.824	61.8852
21.908	61.9796
21.992	61.9248
22.076	61.7488
22.16	61.4708
22.244	61.1196
22.328	60.7665
22.412	60.5009
22.496	60.386
22.58	60.4375
22.664	60.6328
22.748	60.9102
22.832	61.1761
22.916	61.3185
23	61.2424
23.084	60.9178
23.168	60.4136
23.252	59.8812
23.336	59.5165
23.42	59.5002
23.504	59.9186
23.588	60.7065
23.672	61.6713
23.756	62.5383
23.84	63.0573
23.924	63.1144
24.008	62.766
24.092	62.2057
24.176	61.6909
24.26	61.4282
24.344	61.5057
24.428	61.8648
24.512	62.3543
24.596	62.8088
24.68	63.0733
24.764	63.0227
24.848	62.5834
24.932	61.7357
25.016	60.5346
25.1	59.0981
25.184	57.644
25.268	56.4578
25.352	55.8286
25.436	56.0333
25.52	57.2304
25.604	59.3895
25.688	62.2325
25.772	65.2202
25.856	67.6887
25.94	69.0591
26.024	69.0008
26.108	67.5662
26.192	65.1846
26.276	62.5177
26.36	60.2792
26.444	59.0219
26.528	58.953
26.612	59.9293
26.696	61.4482
26.78	62.8013
26.864	63.3182
26.948	62.6236
27.028	60.887

File: BZ1503107-1_t105_cm-1.asc
PE IR       SPECTRUM    SPECTRUM    ASCII       PEDS        1.60
  -1
BZCBFB~1.ASC
17/04/07
21:51:18.00
17/04/07
21:51:18.00
tln
$BZ1503107-1_t0105$<tbV0>[0.0,10.4,8.0,0.0,27,1,0]
370
64

2002,4.07
MIRTGS : RIGHTBACK : INTERNAL 2
MIR : ON : INTERNAL 2
OPTKBR

0.200000
8
8.000000
FILLER
RATIO
SPECTRUM
UNLOCKED 256

DOUBLE
64
COMBINED
1
0
0

1.000000
RATIO

1
0
TRUE
51149
0
LEFT NOT FITTED RIGHT NOT FITTED 0
NONE
NONE
15600
12
4.427000
51148
TRUE
1 0 8 72 0 0 0 0

15798

#HDR
-1
-1
#GR
CM-1
%T
2.38419e-05
0.0
5000
-1.000000
4631
8
81.5861
55.794
#DATA
5000	66.2032
4984	62.6074
4968	63.7475
4952	66.8917
4936	64.3514
4920	65.1209
4904	64.9673
4888	64.3467
4872	64.5106
4856	65.2478
4840	64.4124
4824	64.7674
4808	65.209
4792	65.2996
4776	65.3996
4760	65.1881
4744	65.1053
4728	64.7392
4712	64.943
4696	64.9763
4680	65.3189
4664	65.4327
4648	65.0671
4632	65.3546
4616	64.7929
4600	64.4827
4584	64.8327
4568	65.1857
4552	64.6515
4536	64.9816
4520	64.6791
4504	65.0868
4488	63.8828
4472	64.1317
4456	65.5398
4440	75.0945
4424	58.094
4408	63.8724
4392	65.2608
4376	64.9465
4360	64.6732
4344	65.2303
4328	64.6398
4312	64.7375
4296	64.8908
4280	64.8294
4264	64.4457
4248	65.1236
4232	64.9514
4216	64.7813
4200	64.9714
4184	65.1829
4168	65.2106
4152	65.1285
4136	65.0044
4120	64.8093
4104	64.9946
4088	64.9343
4072	65.0931
4056	65.2025
4040	65.1396
4024	65.0846
4008	65.0836
3992	64.9207
3976	64.7574
3960	64.9931
3944	64.6477
3928	65.2144
3912	64.8416
3896	65.0824
3880	65.0419
3864	64.9386
3848	64.9377
3832	64.8716
3816	64.7324
3800	64.6277
3784	64.9925
3768	65.0434
3752	65.1324
3736	65.0156
3720	65.0691
3704	65.2026
3688	65.2298
3672	65.0023
3656	64.9887
3640	65.0973
3624	65.0297
3608	64.9791
3592	65.2327
3576	65.0544
3560	65.129
3544	64.7932
3528	65.087
3512	64.8085
3496	64.9891
3480	64.9876
3464	65.0064
3448	64.9724
3432	65.0322
3416	64.8813
3400	64.8598
3384	64.9439
3368	64.9177
3352	64.9726
3336	64.851
3320	64.8929
3304	64.8688
3288	64.989
3272	64.877
3256	64.9678
3240	64.9479
3224	64.8374
3208	64.7504
3192	64.9426
3176	64.9347
3160	64.6482
3144	64.7681
3128	64.7116
3112	64.7513
3096	64.9852
3080	64.8292
3064	64.8347
3048	65.0345
3032	64.8925
3016	64.9214
3000	64.8024
2984	64.6972
2968	64.7566
2952	64.5633
2936	64.6263
2920	64.7228
2904	64.7436
2888	64.5831
2872	64.583
2856	64.7147
2840	64.6691
2824	64.7495
2808	64.7488
2792	64.6734
2776	64.6757
2760	64.76
2744	64.695
2728	64.7887
2712	64.7514
2696	64.5324
2680	64.6592
2664	64.6394
2648	64.7662
2632	64.661
2616	64.5847
2600	64.5111
2584	64.6767
2568	64.5728
2552	64.6119
2536	64.6278
2520	64.5876
2504	64.5959
2488	64.4583
2472	64.508
2456	64.6262
2440	64.6297
2424	64.5897
2408	64.5126
2392	64.5386
2376	64.4862
2360	64.571
2344	64.4136
2328	64.412
2312	64.4688
2296	64.4127
2280	64.3739
2264	64.4022
2248	64.4301
2232	64.399
2216	64.368
2200	64.2609
2184	64.2546
2168	64.2783
2152	64.2891
2136	64.3
2120	64.3075
2104	64.1745
2088	64.2708
2072	64.1004
2056	64.2746
2040	64.0924
2024	64.1089
2008	64.1298
1992	64.2057
1976	64.1258
1960	64.0973
1944	64.0103
1928	63.9368
1912	64.069
1896	64.045
1880	63.9763
1864	64.0498
1848	63.9442
1832	63.9756
1816	63.9223
1800	63.8754
1784	63.7789
1768	63.8362
1752	63.5372
1736	63.2155
1720	63.5472
1704	63.6537
1688	63.5623
1672	63.6311
1656	63.6755
1640	63.6276
1624	63.5309
1608	63.7014
1592	63.6924
1576	63.5565
1560	63.5275
1544	63.5808
1528	63.5401
1512	63.5172
1496	63.5029
1480	63.2975
1464	63.4031
1448	63.3309
1432	63.1975
1416	63.3314
1400	63.2803
1384	63.2868
1368	63.1396
1352	63.0615
1336	63.1863
1320	63.1615
1304	63.1666
1288	63.0639
1272	62.9971
1256	62.9158
1240	62.8679
1224	63.0969
1208	63.0233
1192	62.9013
1176	62.7859
1160	62.655
1144	62.8148
1128	62.8093
1112	62.8139
1096	62.8569
1080	62.7163
1064	62.8079
1048	62.8501
1032	62.7879
1016	62.7026
1000	62.7499
984	 62.8112
968	 62.5597
952	 62.6542
936	 62.7116
920	 62.8447
904	 62.5013
888	 62.6021
872	 62.7521
856	 62.5916
840	 62.5307
824	 62.5109
808	 62.6047
792	 62.6729
776	 62.4659
760	 62.3348
744	 62.2085
728	 62.1846
712	 62.2534
696	 61.9548
680	 61.8312
664	 62.2107
648	 61.8863
632	 62.2444
616	 61.1402
600	 61.3954
584	 61.7688
568	 62.4348
552	 62.1891
536	 61.0943
520	 62.057
504	 60.7251
488	 61.6442
472	 61.3579
456	 61.9784
440	 60.8388
424	 60.6734
408	 62.3416
392	 57.0388
376	 59.6827
370	 60.887

File: BZ1503107-1_t106.asc
PE IR       SPECTRUM    SPECTRUM    ASCII       PEDS        1.60
  -1
BZE6BA~1.ASC
17/04/07
21:55:55.00
17/04/07
21:56:22.00
tln
$BZ1503107-1_t0106$<tbV0>[-2.6,10.4,8.0,0.0,27,1,0]
27.028
64

2002,4.07
MIRTGS : RIGHTBACK : INTERNAL 2
MIR : ON : INTERNAL 2
OPTKBR

0.200000
8
8.000000
FILLER
RATIO
SPECTRUM
UNLOCKED 256

DOUBLE
64
COMBINED
1
0
0

0.002000
RATIO

1
0
TRUE
51149
0
LEFT NOT FITTED RIGHT NOT FITTED 0
NONE
NONE
15600
12
4.427000
51148
TRUE
1 0 8 72 0 0 0 0

15798

#HDR
-1
-1
#GR
µM
%T
2.38419e-05
0.0
2.000000
0.002000
12515
8
83.8963
52.7126
#DATA
2.000000	 63.984
2.084000	 65.2981
2.168000	 64.7444
2.252000	 80.3437
2.336000	 64.8428
2.420000	 65.0701
2.504000	 64.961
2.588000	 65.1555
2.672000	 65.3393
2.756000	 64.941
2.840000	 64.921
2.924000	 64.9513
3.008000	 64.8661
3.092000	 64.949
3.176000	 64.7654
3.260000	 64.8099
3.344000	 64.7341
3.428000	 64.7522
3.512000	 64.6182
3.596000	 64.7217
3.680000	 64.7822
3.764000	 64.6201
3.848000	 64.525
3.932000	 64.6028
4.016000	 64.7186
4.100000	 64.423
4.184000	 64.4256
4.268000	 64.3669
4.352000	 64.476
4.436000	 64.4256
4.520000	 64.2499
4.604000	 64.2383
4.688000	 64.2296
4.772000	 64.1568
4.856000	 64.1637
4.940000	 64.0143
5.024000	 64.1367
5.108000	 64.104
5.192000	 63.9243
5.276000	 64.0021
5.359999	 63.9481
5.444000	 63.9896
5.528000	 63.9249
5.612000	 63.7673
5.696000	 63.691
5.780000	 63.405
5.864000	 63.6954
5.948000	 63.6297
6.032000	 63.6942
6.116000	 63.5809
6.200000	 63.6384
6.284000	 63.6591
6.368000	 63.6175
6.452000	 63.4699
6.536000	 63.4916
6.620000	 63.4933
6.704000	 63.4893
6.788000	 63.5007
6.872000	 63.4183
6.956000	 63.3432
7.040000	 63.4227
7.124000	 63.2817
7.208000	 63.2622
7.292000	 63.1908
7.376000	 63.2336
7.460000	 63.3085
7.544000	 63.14
7.628000	 63.1144
7.712000	 63.1459
7.796000	 63.0724
7.880000	 63.1476
7.964000	 63.1344
8.048000	 62.9769
8.132000	 63.0633
8.216000	 63.0229
8.300000	 63.0655
8.384000	 63.0483
8.468000	 62.838
8.552000	 62.8787
8.635999	 62.8124
8.719999	 62.9519
8.804000	 63.0681
8.888000	 62.836
8.972000	 62.8722
9.056000	 62.7773
9.140000	 62.9204
9.224000	 62.7037
9.308000	 62.6438
9.391999	 62.703
9.475999	 62.633
9.560000	 62.8063
9.644000	 62.6974
9.728000	 62.637
9.812000	 62.7603
9.896000	 62.6009
9.980000	 62.559
10.064	62.5691
10.148	62.745
10.232	62.7823
10.316	62.6208
10.4	62.7599
10.484	62.7666
10.568	62.7164
10.652	62.6422
10.736	62.5631
10.82	62.7488
10.904	62.6109
10.988	62.612
11.072	62.4966
11.156	62.4771
11.24	62.5483
11.324	62.5221
11.408	62.5035
11.492	62.6977
11.576	62.6649
11.66	62.5909
11.744	62.5257
11.828	62.5245
11.912	62.4917
11.996	62.4535
12.08	62.4682
12.164	62.5021
12.248	62.554
12.332	62.5973
12.416	62.5067
12.5	62.3676
12.584	62.4809
12.668	62.5461
12.752	62.6059
12.836	62.5071
12.92	62.3552
13.004	62.3774
13.088	62.3649
13.172	62.3801
13.256	62.5147
13.34	62.4641
13.424	62.3828
13.508	62.4973
13.592	62.44
13.676	62.3319
13.76	62.3411
13.844	62.2623
13.928	62.2045
14.012	62.2164
14.096	62.2253
14.18	62.1562
14.264	62.0982
14.348	62.1882
14.432	62.3062
14.516	62.4853
14.6	62.5628
14.684	62.2492
14.768	62.0623
14.852	62.3888
14.936	62.7047
15.02	62.6045
15.104	62.2702
15.188	61.9333
15.272	61.7353
15.356	61.7896
15.44	62.0418
15.524	62.2882
15.608	62.4097
15.692	62.4151
15.776	62.3437
15.86	62.3266
15.944	62.4191
16.028	62.4379
16.112	62.3095
16.196	62.0162
16.28	61.5314
16.364	61.2961
16.448	61.6471
16.532	62.0135
16.616	61.9873
16.7	61.9853
16.784	62.1066
16.868	61.9303
16.952	61.417
17.036	60.9804
17.12	60.9776
17.204	61.4551
17.288	62.0011
17.372	62.0543
17.456	61.6022
17.54	61.1526
17.624	60.9697
17.708	60.8566
17.792	60.7074
17.876	60.7314
17.96	61.0476
18.044	61.4513
18.128	61.6717
18.212	61.6744
18.296	61.5839
18.38	61.4809
18.464	61.4118
18.548	61.4771
18.632	61.7281
18.716	62.0492
18.8	62.2293
18.884	62.1735
18.968	62.0017
19.052	61.9383
19.136	62.0601
19.22	62.2116
19.304	62.1983
19.388	62.0328
19.472	61.9128
19.556	61.9713
19.64	62.1039
19.724	62.0823
19.808	61.7887
19.892	61.2959
19.976	60.7856
20.06	60.4421
20.144	60.3857
20.228	60.6409
20.312	61.1098
20.396	61.5898
20.48	61.8552
20.564	61.7837
20.648	61.4457
20.732	61.0661
20.816	60.8684
20.9	60.9294
20.984	61.1528
21.068	61.3504
21.152	61.3635
21.236	61.1497
21.32	60.8002
21.404	60.4869
21.488	60.3474
21.572	60.4115
21.656	60.5962
21.74	60.7712
21.824	60.8506
21.908	60.8313
21.992	60.7502
22.076	60.6307
22.16	60.4634
22.244	60.2363
22.328	59.9767
22.412	59.7411
22.496	59.5839
22.58	59.5393
22.664	59.6329
22.748	59.8931
22.832	60.3373
22.916	60.9393
23	61.5811
23.084	62.0845
23.168	62.2697
23.252	62.0676
23.336	61.5566
23.42	60.9436
23.504	60.4707
23.588	60.2885
23.672	60.3996
23.756	60.6788
23.84	60.9569
23.924	61.1176
24.008	61.1385
24.092	61.0723
24.176	61.0112
24.26	61.0446
24.344	61.2294
24.428	61.5554
24.512	61.9419
24.596	62.2528
24.68	62.3522
24.764	62.1767
24.848	61.7683
24.932	61.2826
25.016	60.933
25.1	60.9036
25.184	61.3031
25.268	62.1275
25.352	63.2924
25.436	64.6791
25.52	66.1715
25.604	67.6704
25.688	69.0926
25.772	70.3376
25.856	71.268
25.94	71.7403
26.024	71.6534
26.108	71.0166
26.192	69.9128
26.276	68.4878
26.36	66.9611
26.444	65.5423
26.528	64.3866
26.612	63.5388
26.696	63.0006
26.78	62.7783
26.864	62.8832
26.948	63.3279
27.028	64.0568