Folder: Masteroppgave/Bakgrunnsmateriale/MATLAB/FTIR/ftir_data/subAa/Mapping_121 (part 42)

File: BZ1503107-1_t96_cm-1.asc
PE IR       SPECTRUM    SPECTRUM    ASCII       PEDS        1.60
  -1
BZ6EA5~1.ASC
17/04/07
21:09:06.00
17/04/07
21:09:06.00
tln
$BZ1503107-1_t0096$<tbV0>[-5.2,7.8,8.0,0.0,27,1,0]
370
64

2002,4.07
MIRTGS : RIGHTBACK : INTERNAL 2
MIR : ON : INTERNAL 2
OPTKBR

0.200000
8
8.000000
FILLER
RATIO
SPECTRUM
UNLOCKED 256

DOUBLE
64
COMBINED
1
0
0

1.000000
RATIO

1
0
TRUE
51149
0
LEFT NOT FITTED RIGHT NOT FITTED 0
NONE
NONE
15600
12
4.427000
51148
TRUE
1 0 8 72 0 0 0 0

15798

#HDR
-1
-1
#GR
CM-1
%T
2.38419e-05
0.0
5000
-1.000000
4631
8
80.3418
42.7619
#DATA
5000	64.4557
4984	64.0643
4968	64.5787
4952	66.8055
4936	64.4013
4920	65.9428
4904	65.3797
4888	64.4455
4872	64.8753
4856	65.0113
4840	64.8904
4824	64.6492
4808	65.0051
4792	64.9395
4776	65.1835
4760	64.7303
4744	65.203
4728	64.6014
4712	65.1029
4696	64.6524
4680	65.2474
4664	65.0573
4648	65.2706
4632	65.0712
4616	64.9911
4600	64.9971
4584	64.9928
4568	64.608
4552	64.8731
4536	64.7226
4520	64.6625
4504	64.4723
4488	63.5276
4472	64.3068
4456	63.2197
4440	75.5864
4424	65.1735
4408	64.2871
4392	64.5764
4376	64.6073
4360	64.9329
4344	64.5719
4328	64.9124
4312	64.3015
4296	64.8604
4280	64.7407
4264	64.6698
4248	65.3578
4232	64.7325
4216	64.5322
4200	64.6673
4184	64.7867
4168	64.917
4152	65.2174
4136	64.91
4120	64.5733
4104	64.8576
4088	65.0122
4072	65.0918
4056	64.7899
4040	65.0659
4024	64.9452
4008	64.6487
3992	64.9746
3976	64.865
3960	65.16
3944	64.6503
3928	64.8845
3912	64.7487
3896	65.0177
3880	64.8998
3864	64.9512
3848	64.8488
3832	64.9468
3816	64.8607
3800	64.9155
3784	65.0848
3768	64.991
3752	65.0613
3736	65.0378
3720	65.174
3704	65.1687
3688	65.1055
3672	65.2226
3656	65.0346
3640	65.0117
3624	64.9516
3608	64.9047
3592	65.091
3576	64.8026
3560	64.9874
3544	64.9417
3528	64.9386
3512	64.7987
3496	65.0418
3480	65.1103
3464	64.9502
3448	64.8177
3432	65.0204
3416	64.9318
3400	64.9426
3384	64.8733
3368	64.8107
3352	64.7801
3336	64.975
3320	64.7873
3304	64.8366
3288	65.0302
3272	64.9902
3256	64.9467
3240	64.9617
3224	64.6826
3208	64.7159
3192	64.9178
3176	64.8797
3160	64.8368
3144	64.914
3128	64.681
3112	64.8249
3096	64.8036
3080	64.6952
3064	64.7973
3048	64.8756
3032	64.8616
3016	64.8487
3000	64.8949
2984	64.6224
2968	64.5549
2952	64.6564
2936	64.6192
2920	64.6976
2904	64.7194
2888	64.602
2872	64.6391
2856	64.6621
2840	64.6912
2824	64.7736
2808	64.7192
2792	64.7148
2776	64.7656
2760	64.7927
2744	64.7238
2728	64.7645
2712	64.6253
2696	64.6635
2680	64.5288
2664	64.6717
2648	64.8204
2632	64.5687
2616	64.6614
2600	64.5836
2584	64.6939
2568	64.6404
2552	64.6044
2536	64.6488
2520	64.641
2504	64.5584
2488	64.641
2472	64.5223
2456	64.6317
2440	64.4584
2424	64.6267
2408	64.3809
2392	64.5031
2376	64.501
2360	64.6116
2344	64.4647
2328	64.5725
2312	64.4957
2296	64.484
2280	64.3557
2264	64.4685
2248	64.3657
2232	64.3919
2216	64.366
2200	64.2862
2184	64.3136
2168	64.2461
2152	64.3172
2136	64.3486
2120	64.2584
2104	64.3835
2088	64.2406
2072	64.1902
2056	64.2304
2040	64.1445
2024	64.1683
2008	64.1634
1992	64.2736
1976	64.2111
1960	64.187
1944	64.0489
1928	64.021
1912	64.0354
1896	64.1343
1880	64.0696
1864	64.0902
1848	64.0352
1832	64.1376
1816	63.9979
1800	63.9726
1784	63.911
1768	63.9533
1752	63.7564
1736	63.4346
1720	63.7609
1704	63.7446
1688	63.7536
1672	63.7002
1656	63.8927
1640	63.6962
1624	63.7573
1608	63.7566
1592	63.8461
1576	63.5833
1560	63.5869
1544	63.6311
1528	63.6704
1512	63.6551
1496	63.6079
1480	63.5191
1464	63.5809
1448	63.5352
1432	63.5208
1416	63.526
1400	63.47
1384	63.3566
1368	63.3742
1352	63.4073
1336	63.2579
1320	63.3599
1304	63.2921
1288	63.1732
1272	63.1471
1256	63.1813
1240	63.0889
1224	63.1837
1208	63.2061
1192	63.1602
1176	63.0265
1160	63.0586
1144	63.0562
1128	62.9246
1112	62.9761
1096	63.0838
1080	62.8992
1064	62.8658
1048	62.9806
1032	62.9022
1016	62.7221
1000	62.8416
984	 63.0353
968	 62.9944
952	 62.9791
936	 62.9833
920	 63.0287
904	 62.9591
888	 62.7524
872	 62.7666
856	 62.7177
840	 62.895
824	 62.9988
808	 62.9909
792	 62.8183
776	 62.5686
760	 62.668
744	 62.5536
728	 62.728
712	 62.5025
696	 62.6066
680	 62.1217
664	 62.4752
648	 62.2546
632	 62.1173
616	 62.2162
600	 61.7315
584	 62.4882
568	 62.7406
552	 61.7907
536	 61.8703
520	 60.9612
504	 60.2609
488	 61.311
472	 61.3879
456	 61.2792
440	 61.1272
424	 61.1109
408	 59.4187
392	 62.1869
376	 58.144
370	 70.243

File: BZ1503107-1_t97.asc
PE IR       SPECTRUM    SPECTRUM    ASCII       PEDS        1.60
  -1
BZ356B~1.ASC
17/04/07
21:13:43.00
17/04/07
21:14:09.00
tln
$BZ1503107-1_t0097$<tbV0>[-7.8,7.8,8.0,0.0,27,1,0]
27.028
64

2002,4.07
MIRTGS : RIGHTBACK : INTERNAL 2
MIR : ON : INTERNAL 2
OPTKBR

0.200000
8
8.000000
FILLER
RATIO
SPECTRUM
UNLOCKED 256

DOUBLE
64
COMBINED
1
0
0

0.002000
RATIO

1
0
TRUE
51149
0
LEFT NOT FITTED RIGHT NOT FITTED 0
NONE
NONE
15600
12
4.427000
51148
TRUE
1 0 8 72 0 0 0 0

15798

#HDR
-1
-1
#GR
µM
%T
2.38419e-05
0.0
2.000000
0.002000
12515
8
71.0618
40.1491
#DATA
2.000000	 63.5048
2.084000	 64.0937
2.168000	 64.1578
2.252000	 62.3768
2.336000	 63.972
2.420000	 64.2085
2.504000	 63.9885
2.588000	 64.162
2.672000	 64.0499
2.756000	 64.1365
2.840000	 64.0338
2.924000	 64.1444
3.008000	 63.9713
3.092000	 64.0223
3.176000	 63.9855
3.260000	 64.0346
3.344000	 63.938
3.428000	 63.8674
3.512000	 63.8764
3.596000	 64.1057
3.680000	 64.0115
3.764000	 63.969
3.848000	 63.9183
3.932000	 63.7752
4.016000	 63.9203
4.100000	 63.8219
4.184000	 63.7551
4.268000	 63.6698
4.352000	 63.8279
4.436000	 63.8816
4.520000	 63.7157
4.604000	 63.7184
4.688000	 63.6578
4.772000	 63.7603
4.856000	 63.706
4.940000	 63.5124
5.024000	 63.5884
5.108000	 63.5506
5.192000	 63.3986
5.276000	 63.4838
5.359999	 63.4716
5.444000	 63.477
5.528000	 63.4593
5.612000	 63.3683
5.696000	 63.2029
5.780000	 62.9739
5.864000	 63.2075
5.948000	 63.1268
6.032000	 63.254
6.116000	 63.2056
6.200000	 63.1505
6.284000	 63.2612
6.368000	 63.1831
6.452000	 63.1348
6.536000	 63.0554
6.620000	 63.1129
6.704000	 63.1003
6.788000	 63.0349
6.872000	 62.9318
6.956000	 63.0206
7.040000	 62.9584
7.124000	 62.9319
7.208000	 62.9345
7.292000	 62.8109
7.376000	 62.8422
7.460000	 62.8476
7.544000	 62.9136
7.628000	 62.9334
7.712000	 62.728
7.796000	 62.654
7.880000	 62.6468
7.964000	 62.7675
8.048000	 62.7932
8.132000	 62.699
8.216000	 62.8231
8.300000	 62.7167
8.384000	 62.713
8.468000	 62.6592
8.552000	 62.6246
8.635999	 62.5695
8.719999	 62.698
8.804000	 62.6571
8.888000	 62.6
8.972000	 62.597
9.056000	 62.6043
9.140000	 62.7595
9.224000	 62.4455
9.308000	 62.4022
9.391999	 62.5546
9.475999	 62.52
9.560000	 62.4781
9.644000	 62.6204
9.728000	 62.5345
9.812000	 62.5241
9.896000	 62.4419
9.980000	 62.4876
10.064	62.4022
10.148	62.6794
10.232	62.7913
10.316	62.6529
10.4	62.585
10.484	62.4603
10.568	62.4226
10.652	62.581
10.736	62.556
10.82	62.6673
10.904	62.5502
10.988	62.5231
11.072	62.5718
11.156	62.4813
11.24	62.3849
11.324	62.3729
11.408	62.4372
11.492	62.5232
11.576	62.6167
11.66	62.6321
11.744	62.5208
11.828	62.3447
11.912	62.4329
11.996	62.4826
12.08	62.5288
12.164	62.4843
12.248	62.5331
12.332	62.6056
12.416	62.4933
12.5	62.418
12.584	62.6499
12.668	62.7529
12.752	62.4603
12.836	62.2257
12.92	62.286
13.004	62.3159
13.088	62.2579
13.172	62.3137
13.256	62.4225
13.34	62.4982
13.424	62.479
13.508	62.3137
13.592	62.2626
13.676	62.2895
13.76	62.2385
13.844	62.1903
13.928	62.2327
14.012	62.2324
14.096	62.1704
14.18	62.1876
14.264	62.2687
14.348	62.1756
14.432	62.0232
14.516	62.0237
14.6	62.0832
14.684	62.0295
14.768	61.9196
14.852	61.9266
14.936	62.0093
15.02	62.015
15.104	61.9784
15.188	62.0233
15.272	62.044
15.356	61.96
15.44	61.9495
15.524	62.0369
15.608	62.0614
15.692	61.9974
15.776	61.951
15.86	61.969
15.944	61.9437
16.028	61.816
16.112	61.7206
16.196	61.7325
16.28	61.8001
16.364	61.9519
16.448	62.1718
16.532	62.293
16.616	62.2866
16.7	62.2719
16.784	62.2246
16.868	62.0801
16.952	61.9131
17.036	61.7831
17.12	61.6532
17.204	61.5281
17.288	61.4724
17.372	61.5085
17.456	61.6211
17.54	61.7958
17.624	61.9973
17.708	62.1765
17.792	62.3333
17.876	62.4949
17.96	62.5969
18.044	62.4911
18.128	62.1469
18.212	61.7668
18.296	61.5971
18.38	61.676
18.464	61.8852
18.548	62.1643
18.632	62.5255
18.716	62.8897
18.8	63.0537
18.884	62.8993
18.968	62.5321
19.052	62.1761
19.136	61.9498
19.22	61.806
19.304	61.6484
19.388	61.5028
19.472	61.5262
19.556	61.8475
19.64	62.381
19.724	62.8078
19.808	62.8001
19.892	62.2755
19.976	61.4527
20.06	60.6767
20.144	60.2357
20.228	60.2812
20.312	60.7678
20.396	61.4373
20.48	61.9367
20.564	62.0442
20.648	61.8287
20.732	61.5933
20.816	61.6368
20.9	62.0225
20.984	62.5382
21.068	62.8558
21.152	62.7553
21.236	62.2518
21.32	61.5636
21.404	60.975
21.488	60.6731
21.572	60.6854
21.656	60.9135
21.74	61.2086
21.824	61.4564
21.908	61.6077
21.992	61.648
22.076	61.5724
22.16	61.3913
22.244	61.1486
22.328	60.9274
22.412	60.7818
22.496	60.7046
22.58	60.6505
22.664	60.5913
22.748	60.5543
22.832	60.5911
22.916	60.7214
23	60.8909
23.084	61.0013
23.168	60.971
23.252	60.8096
23.336	60.6283
23.42	60.5997
23.504	60.8729
23.588	61.5184
23.672	62.5171
23.756	63.765
23.84	65.1141
23.924	66.3965
24.008	67.4582
24.092	68.1769
24.176	68.4849
24.26	68.3593
24.344	67.8391
24.428	67.0325
24.512	66.1175
24.596	65.2781
24.68	64.6644
24.764	64.3512
24.848	64.2729
24.932	64.271
25.016	64.1762
25.1	63.8524
25.184	63.2881
25.268	62.6118
25.352	62.0209
25.436	61.6873
25.52	61.6684
25.604	61.9101
25.688	62.369
25.772	63.056
25.856	64.02
25.94	65.3005
26.024	66.8607
26.108	68.5338
26.192	70.0216
26.276	70.9342
26.36	70.9107
26.444	69.6865
26.528	67.1632
26.612	63.4674
26.696	58.8688
26.78	53.7092
26.864	48.4477
26.948	43.6514
27.028	40.1491

File: BZ1503107-1_t97_cm-1.asc
PE IR       SPECTRUM    SPECTRUM    ASCII       PEDS        1.60
  -1
BZ6FA5~1.ASC
17/04/07
21:13:43.00
17/04/07
21:13:43.00
tln
$BZ1503107-1_t0097$<tbV0>[-7.8,7.8,8.0,0.0,27,1,0]
370
64

2002,4.07
MIRTGS : RIGHTBACK : INTERNAL 2
MIR : ON : INTERNAL 2
OPTKBR

0.200000
8
8.000000
FILLER
RATIO
SPECTRUM
UNLOCKED 256

DOUBLE
64
COMBINED
1
0
0

1.000000
RATIO

1
0
TRUE
51149
0
LEFT NOT FITTED RIGHT NOT FITTED 0
NONE
NONE
15600
12
4.427000
51148
TRUE
1 0 8 72 0 0 0 0

15798

#HDR
-1
-1
#GR
CM-1
%T
2.38419e-05
0.0
5000
-1.000000
4631
8
71.0617
40.1491
#DATA
5000	63.5048
4984	63.2047
4968	63.7419
4952	65.5024
4936	63.6238
4920	64.4264
4904	64.0579
4888	63.9692
4872	63.8115
4856	63.6563
4840	63.5131
4824	63.6615
4808	64.2523
4792	64.0234
4776	63.8878
4760	63.6517
4744	63.8243
4728	63.8487
4712	64.1589
4696	63.6584
4680	64.22
4664	64.4247
4648	63.8429
4632	64.1648
4616	64.1866
4600	64.2687
4584	63.8212
4568	64.1534
4552	63.6976
4536	64.2376
4520	64.2251
4504	63.5836
4488	63.3808
4472	63.4444
4456	65.1585
4440	64.0411
4424	65.9174
4408	64.3797
4392	63.2511
4376	64.1841
4360	64.1311
4344	63.907
4328	63.9587
4312	63.6082
4296	63.8243
4280	63.9532
4264	63.7491
4248	64.0675
4232	63.9355
4216	63.9286
4200	63.8309
4184	64.1761
4168	64.3705
4152	64.0268
4136	64.0612
4120	64.0611
4104	63.981
4088	64.1239
4072	64.1683
4056	63.9775
4040	64.194
4024	63.9926
4008	63.8561
3992	63.9912
3976	63.9354
3960	63.9171
3944	64.122
3928	64.2596
3912	63.9128
3896	64.2064
3880	63.9304
3864	64.1625
3848	64.1087
3832	64.2929
3816	64.1275
3800	63.778
3784	64.1099
3768	64.2253
3752	64.2117
3736	64.1368
3720	64.1801
3704	64.1911
3688	64.2286
3672	64.2925
3656	64.0908
3640	64.1533
3624	64.0883
3608	64.264
3592	64.3084
3576	64.0788
3560	64.0091
3544	63.9143
3528	64.2861
3512	64.0202
3496	64.2552
3480	64.3783
3464	64.155
3448	64.068
3432	64.185
3416	64.1241
3400	64.0286
3384	64.1703
3368	64.0558
3352	64.0918
3336	64.1419
3320	64.0157
3304	64.156
3288	64.1653
3272	63.9987
3256	64.2099
3240	64.0694
3224	64.1265
3208	63.9574
3192	64.0711
3176	64.043
3160	63.9433
3144	63.9788
3128	64.0239
3112	64.0874
3096	63.999
3080	63.9385
3064	64.0431
3048	64.1574
3032	63.9907
3016	64.1082
3000	64.1092
2984	63.9671
2968	63.8498
2952	63.8035
2936	63.872
2920	63.8971
2904	63.9195
2888	64.0367
2872	63.8448
2856	63.9082
2840	63.9115
2824	63.9666
2808	63.9633
2792	64.0024
2776	64.109
2760	64.0879
2744	63.8813
2728	64.0095
2712	64.0274
2696	64.0619
2680	63.9839
2664	64.0023
2648	64.0528
2632	63.929
2616	63.9334
2600	63.9017
2584	63.8989
2568	63.9038
2552	63.8654
2536	63.8462
2520	63.8264
2504	63.8063
2488	63.9108
2472	63.8234
2456	63.8237
2440	63.821
2424	63.8089
2408	63.7413
2392	63.7792
2376	63.7275
2360	63.8728
2344	63.6913
2328	63.7643
2312	63.6571
2296	63.8399
2280	63.748
2264	63.722
2248	63.9125
2232	63.6864
2216	63.6794
2200	63.6946
2184	63.6253
2168	63.725
2152	63.6142
2136	63.7042
2120	63.6227
2104	63.6622
2088	63.6343
2072	63.5291
2056	63.7428
2040	63.5696
2024	63.519
2008	63.5296
1992	63.5892
1976	63.5528
1960	63.5444
1944	63.4429
1928	63.4053
1912	63.4558
1896	63.4748
1880	63.4219
1864	63.4679
1848	63.3964
1832	63.5029
1816	63.4451
1800	63.3812
1784	63.3716
1768	63.333
1752	63.1456
1736	62.906
1720	63.0796
1704	63.1937
1688	63.1619
1672	63.0887
1656	63.2502
1640	63.2105
1624	63.1844
1608	63.1705
1592	63.2558
1576	63.1215
1560	63.2159
1544	63.1201
1528	63.1007
1512	63.1197
1496	63.0994
1480	63.0022
1464	62.8382
1448	62.884
1432	63.0019
1416	62.9334
1400	62.925
1384	62.9398
1368	62.8425
1352	62.8792
1336	62.8255
1320	62.8946
1304	62.8441
1288	62.7153
1272	62.6408
1256	62.7648
1240	62.7509
1224	62.8317
1208	62.7312
1192	62.7119
1176	62.6697
1160	62.5308
1144	62.7054
1128	62.5839
1112	62.596
1096	62.8139
1080	62.3578
1064	62.5612
1048	62.4836
1032	62.6117
1016	62.489
1000	62.4696
984	 62.7227
968	 62.6348
952	 62.4035
936	 62.545
920	 62.6011
904	 62.5804
888	 62.3724
872	 62.5159
856	 62.6144
840	 62.4254
824	 62.5012
808	 62.568
792	 62.7517
776	 62.2462
760	 62.2953
744	 62.4511
728	 62.2599
712	 62.2093
696	 62.1333
680	 61.9981
664	 61.9926
648	 61.9442
632	 61.9574
616	 61.757
600	 62.276
584	 61.6479
568	 61.9537
552	 62.205
536	 62.6403
520	 61.7878
504	 62.6473
488	 61.9775
472	 62.5881
456	 61.6292
440	 60.5583
424	 61.488
408	 66.1409
392	 61.6563
376	 64.2595
370	 40.1491

File: BZ1503107-1_t98.asc
PE IR       SPECTRUM    SPECTRUM    ASCII       PEDS        1.60
  -1
BZ396B~1.ASC
17/04/07
21:18:20.00
17/04/07
21:18:47.00
tln
$BZ1503107-1_t0098$<tbV0>[-10.4,7.8,8.0,0.0,27,1,0]
27.028
64

2002,4.07
MIRTGS : RIGHTBACK : INTERNAL 2
MIR : ON : INTERNAL 2
OPTKBR

0.200000
8
8.000000
FILLER
RATIO
SPECTRUM
UNLOCKED 256

DOUBLE
64
COMBINED
1
0
0

0.002000
RATIO

1
0
TRUE
51149
0
LEFT NOT FITTED RIGHT NOT FITTED 0
NONE
NONE
15600
12
4.427000
51148
TRUE
1 0 8 72 0 0 0 0

15798

#HDR
-1
-1
#GR
µM
%T
2.38419e-05
0.0
2.000000
0.002000
12515
8
73.9503
53.073
#DATA
2.000000	 65.9687
2.084000	 65.6365
2.168000	 64.9311
2.252000	 73.9503
2.336000	 65.1012
2.420000	 65.2661
2.504000	 65.3475
2.588000	 65.1108
2.672000	 65.1437
2.756000	 65.1874
2.840000	 65.0698
2.924000	 65.1076
3.008000	 65.0444
3.092000	 65.0354
3.176000	 64.9842
3.260000	 65.1487
3.344000	 64.8484
3.428000	 64.7011
3.512000	 64.7755
3.596000	 64.9325
3.680000	 64.7689
3.764000	 64.764
3.848000	 64.7001
3.932000	 64.6964
4.016000	 64.7384
4.100000	 64.6061
4.184000	 64.5779
4.268000	 64.5603
4.352000	 64.4654
4.436000	 64.6138
4.520000	 64.5392
4.604000	 64.4187
4.688000	 64.4543
4.772000	 64.363
4.856000	 64.4598
4.940000	 64.2422
5.024000	 64.2466
5.108000	 64.3662
5.192000	 64.2006
5.276000	 64.2127
5.359999	 64.1504
5.444000	 64.1334
5.528000	 64.1832
5.612000	 63.8443
5.696000	 63.6333
5.780000	 62.7451
5.864000	 63.7635
5.948000	 63.7399
6.032000	 63.8645
6.116000	 63.9538
6.200000	 63.8039
6.284000	 63.8006
6.368000	 63.8375
6.452000	 63.5927
6.536000	 63.5919
6.620000	 63.7256
6.704000	 63.7757
6.788000	 63.6208
6.872000	 63.3784
6.956000	 63.3898
7.040000	 63.5701
7.124000	 63.4696
7.208000	 63.364
7.292000	 63.3094
7.376000	 63.43
7.460000	 63.3168
7.544000	 63.3428
7.628000	 63.4009
7.712000	 63.2308
7.796000	 63.1194
7.880000	 62.9538
7.964000	 62.8213
8.048000	 62.8113
8.132000	 62.8011
8.216000	 63.0011
8.300000	 63.0713
8.384000	 62.9045
8.468000	 62.7095
8.552000	 62.5084
8.635999	 62.4611
8.719999	 62.8128
8.804000	 62.9488
8.888000	 62.9634
8.972000	 62.9936
9.056000	 63.0072
9.140000	 62.9805
9.224000	 62.732
9.308000	 62.5974
9.391999	 62.8408
9.475999	 62.7766
9.560000	 62.9565
9.644000	 62.8861
9.728000	 62.9986
9.812000	 62.7957
9.896000	 62.7422
9.980000	 62.7855
10.064	62.9125
10.148	63.0736
10.232	63.0584
10.316	62.8307
10.4	62.9118
10.484	62.9269
10.568	62.8402
10.652	62.9029
10.736	62.9218
10.82	63.0686
10.904	62.9058
10.988	62.9022
11.072	62.7943
11.156	62.8315
11.24	62.9262
11.324	62.7654
11.408	62.7179
11.492	62.8455
11.576	62.9679
11.66	62.8623
11.744	62.7192
11.828	62.7144
11.912	62.6317
11.996	62.7057
12.08	62.716
12.164	62.8002
12.248	62.8865
12.332	62.7985
12.416	62.6852
12.5	62.6018
12.584	62.7141
12.668	62.7885
12.752	62.723
12.836	62.5533
12.92	62.4263
13.004	62.4518
13.088	62.5592
13.172	62.6576
13.256	62.7802
13.34	62.8005
13.424	62.7132
13.508	62.5949
13.592	62.5147
13.676	62.5666
13.76	62.5601
13.844	62.5388
13.928	62.6329
14.012	62.6102
14.096	62.4933
14.18	62.4918
14.264	62.4958
14.348	62.4477
14.432	62.4811
14.516	62.5602
14.6	62.5149
14.684	62.3341
14.768	62.2779
14.852	62.4865
14.936	62.586
15.02	62.3583
15.104	62.1653
15.188	62.1903
15.272	62.2774
15.356	62.4039
15.44	62.5696
15.524	62.6376
15.608	62.5417
15.692	62.4093
15.776	62.412
15.86	62.5675
15.944	62.6879
16.028	62.5797
16.112	62.3287
16.196	62.1462
16.28	62.1111
16.364	62.2758
16.448	62.5526
16.532	62.548
16.616	62.1378
16.7	61.7377
16.784	61.6203
16.868	61.6653
16.952	61.7297
17.036	61.7386
17.12	61.624
17.204	61.4707
17.288	61.5175
17.372	61.9066
17.456	62.5269
17.54	63.0697
17.624	63.2375
17.708	62.9972
17.792	62.5924
17.876	62.2848
17.96	62.1633
18.044	62.2315
18.128	62.4737
18.212	62.741
18.296	62.7855
18.38	62.5423
18.464	62.1844
18.548	61.8835
18.632	61.6763
18.716	61.5727
18.8	61.6196
18.884	61.8124
18.968	62.0741
19.052	62.3321
19.136	62.4717
19.22	62.2976
19.304	61.7603
19.388	61.1714
19.472	61.0126
19.556	61.4725
19.64	62.24
19.724	62.7989
19.808	62.8953
19.892	62.6733
19.976	62.4501
20.06	62.4231
20.144	62.5659
20.228	62.7221
20.312	62.7433
20.396	62.5642
20.48	62.2262
20.564	61.8496
20.648	61.5792
20.732	61.5204
20.816	61.7009
20.9	62.047
20.984	62.3887
21.068	62.5273
21.152	62.3651
21.236	61.986
21.32	61.5934
21.404	61.3671
21.488	61.3274
21.572	61.3382
21.656	61.2133
21.74	60.8442
21.824	60.2695
21.908	59.6463
21.992	59.1501
22.076	58.8972
22.16	58.9106
22.244	59.1273
22.328	59.463
22.412	59.8535
22.496	60.2647
22.58	60.6834
22.664	61.0934
22.748	61.4623
22.832	61.7577
22.916	61.9632
23	62.0644
23.084	62.0493
23.168	61.8971
23.252	61.5973
23.336	61.1916
23.42	60.8058
23.504	60.6199
23.588	60.7924
23.672	61.3699
23.756	62.22
23.84	63.0799
23.924	63.6376
24.008	63.687
24.092	63.2294
24.176	62.4586
24.26	61.6751
24.344	61.1802
24.428	61.1424
24.512	61.5968
24.596	62.4474
24.68	63.4923
24.764	64.4715
24.848	65.1478
24.932	65.334
25.016	64.9604
25.1	64.0958
25.184	62.9153
25.268	61.6332
25.352	60.4377
25.436	59.4281
25.52	58.6005
25.604	57.8969
25.688	57.235
25.772	56.5623
25.856	55.8824
25.94	55.222
26.024	54.6203
26.108	54.115
26.192	53.7131
26.276	53.41
26.36	53.1802
26.444	53.0731
26.528	53.2014
26.612	53.6519
26.696	54.4506
26.78	55.5233
26.864	56.7113
26.948	57.8399
27.028	58.7471

File: BZ1503107-1_t98_cm-1.asc
PE IR       SPECTRUM    SPECTRUM    ASCII       PEDS        1.60
  -1
BZ60B5~1.ASC
17/04/07
21:18:20.00
17/04/07
21:18:20.00
tln
$BZ1503107-1_t0098$<tbV0>[-10.4,7.8,8.0,0.0,27,1,0]
370
64

2002,4.07
MIRTGS : RIGHTBACK : INTERNAL 2
MIR : ON : INTERNAL 2
OPTKBR

0.200000
8
8.000000
FILLER
RATIO
SPECTRUM
UNLOCKED 256

DOUBLE
64
COMBINED
1
0
0

1.000000
RATIO

1
0
TRUE
51149
0
LEFT NOT FITTED RIGHT NOT FITTED 0
NONE
NONE
15600
12
4.427000
51148
TRUE
1 0 8 72 0 0 0 0

15798

#HDR
-1
-1
#GR
CM-1
%T
2.38419e-05
0.0
5000
-1.000000
4631
8
74.046
53.075
#DATA
5000	65.9687
4984	63.8658
4968	64.7237
4952	68.5
4936	64.2198
4920	66.1313
4904	65.6359
4888	64.6871
4872	65.3064
4856	65.1173
4840	65.2571
4824	65.5783
4808	65.1738
4792	65.376
4776	65.3342
4760	65.5582
4744	65.2535
4728	65.1728
4712	65.1805
4696	65.2764
4680	65.7157
4664	65.481
4648	65.5877
4632	65.3424
4616	65.1653
4600	65.2909
4584	64.7389
4568	65.113
4552	64.5592
4536	65.0829
4520	65.2492
4504	64.8365
4488	64.45
4472	64.1526
4456	63.4151
4440	74.046
4424	68.151
4408	65.733
4392	64.6401
4376	64.8625
4360	65.1335
4344	64.9916
4328	65.1038
4312	65.0123
4296	65.0151
4280	65.0953
4264	64.7698
4248	64.9349
4232	65.0079
4216	65.1562
4200	65.3043
4184	65.0244
4168	65.5273
4152	65.4629
4136	65.0556
4120	65.2621
4104	65.3505
4088	65.289
4072	65.4067
4056	65.2316
4040	65.3613
4024	65.3153
4008	65.1364
3992	65.2926
3976	65.1306
3960	65.2788
3944	65.0568
3928	65.2714
3912	65.1769
3896	65.2372
3880	65.0549
3864	65.111
3848	65.383
3832	65.3785
3816	65.2002
3800	65.1003
3784	65.2584
3768	65.2767
3752	65.333
3736	65.138
3720	65.3839
3704	65.3605
3688	65.2792
3672	65.3959
3656	65.1859
3640	65.2183
3624	65.0653
3608	65.3306
3592	65.2851
3576	65.1378
3560	65.2201
3544	65.0194
3528	65.2308
3512	65.1199
3496	65.3587
3480	65.1808
3464	65.1186
3448	64.8887
3432	64.9858
3416	65.0534
3400	64.9964
3384	65.1194
3368	65.1509
3352	65.1995
3336	64.9614
3320	65.1297
3304	65.1243
3288	65.0398
3272	65.0612
3256	65.1921
3240	65.0143
3224	65.0056
3208	65.0021
3192	65.1231
3176	65.0615
3160	65.076
3144	65.0027
3128	64.9907
3112	65.187
3096	65.1899
3080	64.9182
3064	65.0824
3048	65.0348
3032	64.856
3016	64.9839
3000	64.9425
2984	64.7344
2968	64.4794
2952	64.452
2936	64.5381
2920	64.707
2904	64.6091
2888	64.6972
2872	64.8226
2856	64.7444
2840	64.7986
2824	64.8628
2808	64.8293
2792	64.8282
2776	64.9812
2760	64.9005
2744	64.8526
2728	64.8843
2712	64.759
2696	64.6873
2680	64.685
2664	64.7842
2648	64.8697
2632	64.8224
2616	64.7907
2600	64.6977
2584	64.7948
2568	64.8287
2552	64.6791
2536	64.6997
2520	64.7063
2504	64.6745
2488	64.7487
2472	64.7914
2456	64.7697
2440	64.6193
2424	64.7886
2408	64.5897
2392	64.5965
2376	64.6109
2360	64.617
2344	64.5513
2328	64.5914
2312	64.5536
2296	64.5008
2280	64.4777
2264	64.5399
2248	64.5452
2232	64.5755
2216	64.5444
2200	64.3453
2184	64.3842
2168	64.3993
2152	64.3657
2136	64.4611
2120	64.454
2104	64.4191
2088	64.3687
2072	64.3563
2056	64.4935
2040	64.2967
2024	64.2426
2008	64.2405
1992	64.2643
1976	64.2101
1960	64.3367
1944	64.1212
1928	64.198
1912	64.1403
1896	64.2154
1880	64.1467
1864	64.1575
1848	64.0181
1832	64.0999
1816	64.0892
1800	64.1138
1784	63.8462
1768	63.9004
1752	63.5121
1736	62.5994
1720	63.4023
1704	63.7822
1688	63.7636
1672	63.7845
1656	63.854
1640	63.9127
1624	63.7951
1608	63.8298
1592	63.7903
1576	63.691
1560	63.7312
1544	63.6909
1528	63.5734
1512	63.7424
1496	63.6514
1480	63.6328
1464	63.4249
1448	63.4321
1432	63.4329
1416	63.5818
1400	63.4064
1384	63.4193
1368	63.2908
1352	63.4407
1336	63.2991
1320	63.3082
1304	63.3009
1288	63.1811
1272	63.0504
1256	62.8258
1240	62.8007
1224	62.945
1208	63.0287
1192	62.8988
1176	62.6744
1160	62.4252
1144	62.8764
1128	62.921
1112	62.9986
1096	62.9703
1080	62.705
1064	62.8478
1048	62.9445
1032	62.9193
1016	62.746
1000	62.8353
984	 63.1073
968	 62.8408
952	 62.9113
936	 62.9104
920	 62.9997
904	 62.8197
888	 62.9071
872	 62.8091
856	 62.8141
840	 62.6405
824	 62.7321
808	 62.7519
792	 62.7671
776	 62.4627
760	 62.6387
744	 62.6917
728	 62.5745
712	 62.5594
696	 62.4451
680	 62.2941
664	 62.237
648	 62.5558
632	 62.488
616	 62.11
600	 61.8666
584	 61.6175
568	 63.2399
552	 62.4318
536	 61.6333
520	 62.2467
504	 62.8276
488	 62.1726
472	 62.225
456	 59.4988
440	 61.3773
424	 60.7787
408	 61.5794
392	 58.6895
376	 53.5363
370	 58.7471