Folder: Masteroppgave/Bakgrunnsmateriale/MATLAB/FTIR/ftir_data/subAa/Mapping_121 (part 12)

File: BZ1503107-1_t21_cm-1.asc
PE IR       SPECTRUM    SPECTRUM    ASCII       PEDS        1.60
  -1
BZ6923~1.ASC
17/04/07
14:53:27.00
17/04/07
14:53:27.00
tln
$BZ1503107-1_t0021$<tbV0>[-10.4,-10.4,8.0,0.0,27,1,0]
370
64

2002,4.07
MIRTGS : RIGHTBACK : INTERNAL 2
MIR : ON : INTERNAL 2
OPTKBR

0.200000
8
8.000000
FILLER
RATIO
SPECTRUM
UNLOCKED 256

DOUBLE
64
COMBINED
1
0
0

1.000000
RATIO

1
0
TRUE
51149
0
LEFT NOT FITTED RIGHT NOT FITTED 0
NONE
NONE
15600
12
4.427000
51148
TRUE
1 0 8 72 0 0 0 0

15798

#HDR
-1
-1
#GR
CM-1
%T
2.38419e-05
0.0
5000
-1.000000
4631
8
73.0158
23.7562
#DATA
5000	64.9513
4984	64.8345
4968	64.7629
4952	65.1458
4936	64.914
4920	64.8328
4904	65.1526
4888	64.8252
4872	64.5571
4856	65.1146
4840	65.1263
4824	65.3788
4808	65.1137
4792	65.5842
4776	64.8963
4760	65.207
4744	64.9536
4728	64.7956
4712	64.5481
4696	64.699
4680	65.0866
4664	64.7443
4648	64.9899
4632	64.6441
4616	64.6172
4600	64.9165
4584	64.8306
4568	64.643
4552	64.6663
4536	64.8402
4520	64.2824
4504	65.2905
4488	68.0113
4472	64.8232
4456	62.6917
4440	59.1649
4424	73.0158
4408	65.5327
4392	64.3569
4376	64.6397
4360	64.9013
4344	64.6427
4328	64.7249
4312	64.8954
4296	64.4083
4280	64.9922
4264	64.821
4248	64.8817
4232	64.958
4216	65.0653
4200	65.1253
4184	65.3087
4168	64.9529
4152	64.8089
4136	65.0736
4120	65.1861
4104	65.3763
4088	65.3553
4072	65.1238
4056	65.0979
4040	64.9364
4024	64.9912
4008	65.1125
3992	64.9988
3976	65.3793
3960	65.0974
3944	65.2607
3928	65.3447
3912	64.951
3896	65.0415
3880	65.1267
3864	64.847
3848	65.1443
3832	64.9868
3816	65.265
3800	65.1386
3784	64.8623
3768	65.0954
3752	65.6055
3736	65.2577
3720	65.1608
3704	65.1463
3688	65.2143
3672	65.3836
3656	65.1157
3640	65.4673
3624	65.315
3608	65.2252
3592	65.1115
3576	65.2947
3560	64.9271
3544	65.2719
3528	65.0683
3512	65.1607
3496	65.2613
3480	65.2259
3464	65.0858
3448	65.0258
3432	65.2463
3416	65.3342
3400	65.0925
3384	65.0082
3368	65.232
3352	65.0583
3336	65.1659
3320	65.2397
3304	65.0941
3288	65.1702
3272	65.0503
3256	65.012
3240	64.9617
3224	65.1434
3208	65.1845
3192	65.1503
3176	65.1972
3160	65.4258
3144	65.2609
3128	65.1856
3112	65.1729
3096	65.3739
3080	65.1489
3064	65.1593
3048	65.0953
3032	65.1718
3016	65.2559
3000	65.2797
2984	65.1059
2968	65.1056
2952	64.9135
2936	64.9702
2920	64.9707
2904	64.9441
2888	65.0743
2872	65.12
2856	65.066
2840	65.0508
2824	64.9964
2808	65.0543
2792	65.0712
2776	65.0672
2760	65.0572
2744	65.0681
2728	65.0118
2712	65.0133
2696	65.1583
2680	64.9995
2664	64.9708
2648	64.9951
2632	65.0666
2616	65.0476
2600	65.0012
2584	65.1453
2568	65.0856
2552	65.0331
2536	65.2764
2520	65.1746
2504	65.1327
2488	64.9542
2472	65.0503
2456	65.0088
2440	64.9544
2424	64.9943
2408	64.9422
2392	65.0891
2376	65.0305
2360	65.1097
2344	64.9746
2328	64.9708
2312	65.0057
2296	64.9333
2280	64.9662
2264	64.9191
2248	65.0002
2232	64.842
2216	64.9507
2200	64.9682
2184	64.8419
2168	64.97
2152	64.8598
2136	64.8002
2120	64.8772
2104	64.7938
2088	64.8722
2072	64.8957
2056	64.8145
2040	64.9031
2024	64.8611
2008	64.8909
1992	64.8883
1976	64.898
1960	64.8133
1944	64.8029
1928	64.7576
1912	64.9484
1896	64.8185
1880	64.7946
1864	64.8115
1848	64.8148
1832	64.7708
1816	64.8197
1800	64.7654
1784	64.7795
1768	64.8397
1752	64.6751
1736	64.551
1720	64.6576
1704	64.7524
1688	64.6966
1672	64.7418
1656	64.8194
1640	64.6381
1624	64.7345
1608	64.5251
1592	64.6917
1576	64.9157
1560	64.8289
1544	64.7839
1528	64.657
1512	64.7956
1496	64.5759
1480	64.5557
1464	64.5897
1448	64.6478
1432	64.6524
1416	64.5465
1400	64.4639
1384	64.3993
1368	64.3629
1352	64.5104
1336	64.4146
1320	64.414
1304	64.2137
1288	64.447
1272	64.2378
1256	64.3067
1240	64.1801
1224	64.3443
1208	64.1726
1192	64.3474
1176	64.0255
1160	64.2023
1144	64.1504
1128	64.3208
1112	64.1825
1096	64.1459
1080	64.3708
1064	64.1583
1048	64.0152
1032	64.0923
1016	64.0898
1000	64.2589
984	 64.3213
968	 64.0676
952	 64.2993
936	 64.3494
920	 64.2005
904	 64.162
888	 64.136
872	 64.3487
856	 64.2094
840	 64.2734
824	 64.1502
808	 64.0366
792	 64.0247
776	 63.9165
760	 64.082
744	 63.7314
728	 63.9914
712	 64.0042
696	 64.0606
680	 64.112
664	 63.7666
648	 63.6133
632	 64.1751
616	 64.2072
600	 63.9937
584	 63.7707
568	 63.3977
552	 64.1641
536	 63.3984
520	 64.1078
504	 63.819
488	 64.7137
472	 64.9575
456	 64.5063
440	 62.495
424	 62.2712
408	 66.1686
392	 65.8593
376	 61.5308
370	 32.7042

File: BZ1503107-1_t22.asc
PE IR       SPECTRUM    SPECTRUM    ASCII       PEDS        1.60
  -1
BZ2159~1.ASC
17/04/07
14:58:05.00
17/04/07
14:58:31.00
tln
$BZ1503107-1_t0022$<tbV0>[-13.0,-10.4,8.0,0.0,27,1,0]
27.028
64

2002,4.07
MIRTGS : RIGHTBACK : INTERNAL 2
MIR : ON : INTERNAL 2
OPTKBR

0.200000
8
8.000000
FILLER
RATIO
SPECTRUM
UNLOCKED 256

DOUBLE
64
COMBINED
1
0
0

0.002000
RATIO

1
0
TRUE
51149
0
LEFT NOT FITTED RIGHT NOT FITTED 0
NONE
NONE
15600
12
4.427000
51148
TRUE
1 0 8 72 0 0 0 0

15798

#HDR
-1
-1
#GR
µM
%T
2.38419e-05
0.0
2.000000
0.002000
12515
8
109.254
47.2679
#DATA
2.000000	 64.6861
2.084000	 66.0755
2.168000	 64.6491
2.252000	 63.2466
2.336000	 64.9144
2.420000	 65.0461
2.504000	 65.0347
2.588000	 64.9525
2.672000	 65.3415
2.756000	 65.4006
2.840000	 65.1333
2.924000	 65.0388
3.008000	 65.2764
3.092000	 65.0745
3.176000	 65.2495
3.260000	 65.207
3.344000	 65.0043
3.428000	 65.0219
3.512000	 65.0914
3.596000	 65.1026
3.680000	 65.123
3.764000	 65.0416
3.848000	 64.9679
3.932000	 65.0282
4.016000	 65.0346
4.100000	 65.0933
4.184000	 65.0439
4.268000	 65.111
4.352000	 64.8919
4.436000	 65.0101
4.520000	 65.0722
4.604000	 64.927
4.688000	 64.8953
4.772000	 64.8487
4.856000	 64.9167
4.940000	 64.8935
5.024000	 64.8266
5.108000	 64.964
5.192000	 64.7966
5.276000	 64.8841
5.359999	 64.9703
5.444000	 64.8944
5.528000	 64.8223
5.612000	 64.8085
5.696000	 64.7678
5.780000	 64.4986
5.864000	 64.7852
5.948000	 64.8115
6.032000	 64.8397
6.116000	 64.8232
6.200000	 64.7623
6.284000	 64.6719
6.368000	 64.7588
6.452000	 64.6405
6.536000	 64.677
6.620000	 64.7103
6.704000	 64.6527
6.788000	 64.6365
6.872000	 64.6821
6.956000	 64.7257
7.040000	 64.586
7.124000	 64.4685
7.208000	 64.3676
7.292000	 64.4395
7.376000	 64.4939
7.460000	 64.5397
7.544000	 64.4577
7.628000	 64.2942
7.712000	 64.4197
7.796000	 64.4171
7.880000	 64.3062
7.964000	 64.4366
8.048000	 64.3214
8.132000	 64.3005
8.216000	 64.3507
8.300000	 64.4106
8.384000	 64.4606
8.468000	 64.3117
8.552000	 64.2764
8.635999	 64.0539
8.719999	 64.1697
8.804000	 64.4175
8.888000	 64.4688
8.972000	 64.5097
9.056000	 64.1543
9.140000	 64.3578
9.224000	 64.3597
9.308000	 64.4007
9.391999	 64.1893
9.475999	 64.2471
9.560000	 64.4324
9.644000	 64.2782
9.728000	 64.3844
9.812000	 64.1517
9.896000	 64.1285
9.980000	 64.267
10.064	64.3553
10.148	64.4363
10.232	64.451
10.316	64.3101
10.4	64.3845
10.484	64.4025
10.568	64.5646
10.652	64.518
10.736	64.3442
10.82	64.2598
10.904	64.3678
10.988	64.2417
11.072	64.2732
11.156	64.3816
11.24	64.3655
11.324	64.2372
11.408	64.2519
11.492	64.3279
11.576	64.2684
11.66	64.1629
11.744	64.3481
11.828	64.4567
11.912	64.2509
11.996	64.2843
12.08	64.2157
12.164	64.1971
12.248	64.2968
12.332	64.206
12.416	64.3302
12.5	64.3365
12.584	64.1513
12.668	64.3256
12.752	64.466
12.836	64.2987
12.92	64.2303
13.004	64.2772
13.088	64.3955
13.172	64.4345
13.256	64.3475
13.34	64.1375
13.424	63.9022
13.508	63.868
13.592	63.9865
13.676	64.1847
13.76	64.2843
13.844	64.1483
13.928	64.0833
14.012	64.0915
14.096	64.1058
14.18	64.1472
14.264	64.2783
14.348	64.367
14.432	64.2307
14.516	64.037
14.6	63.9461
14.684	63.936
14.768	64.0326
14.852	64.1838
14.936	64.1226
15.02	63.9278
15.104	64.1703
15.188	64.7125
15.272	64.764
15.356	64.3305
15.44	63.9548
15.524	63.8524
15.608	64.0634
15.692	64.4537
15.776	64.6576
15.86	64.5327
15.944	64.195
16.028	63.9624
16.112	64.1832
16.196	64.4852
16.28	64.1044
16.364	63.2325
16.448	62.7147
16.532	62.7262
16.616	62.9571
16.7	63.3396
16.784	63.8349
16.868	64.2402
16.952	64.377
17.036	64.2199
17.12	63.9266
17.204	63.725
17.288	63.651
17.372	63.5299
17.456	63.3131
17.54	63.2238
17.624	63.4728
17.708	63.9365
17.792	64.2876
17.876	64.3838
17.96	64.3472
18.044	64.3198
18.128	64.3392
18.212	64.3884
18.296	64.434
18.38	64.4372
18.464	64.3841
18.548	64.3038
18.632	64.2403
18.716	64.2049
18.8	64.1874
18.884	64.2153
18.968	64.3261
19.052	64.4812
19.136	64.5838
19.22	64.5829
19.304	64.4977
19.388	64.3684
19.472	64.2305
19.556	64.1231
19.64	64.0936
19.724	64.1824
19.808	64.3863
19.892	64.627
19.976	64.7945
20.06	64.8333
20.144	64.7763
20.228	64.6996
20.312	64.6449
20.396	64.5947
20.48	64.5132
20.564	64.3998
20.648	64.3032
20.732	64.2975
20.816	64.4433
20.9	64.7344
20.984	65.0572
21.068	65.2242
21.152	65.095
21.236	64.6857
21.32	64.1677
21.404	63.7539
21.488	63.5633
21.572	63.5685
21.656	63.6499
21.74	63.6973
21.824	63.6778
21.908	63.6329
21.992	63.6143
22.076	63.6286
22.16	63.6269
22.244	63.5491
22.328	63.3869
22.412	63.2054
22.496	63.1106
22.58	63.1659
22.664	63.3433
22.748	63.52
22.832	63.5688
22.916	63.4416
23	63.2173
23.084	63.0543
23.168	63.0945
23.252	63.3518
23.336	63.7101
23.42	64.0071
23.504	64.1139
23.588	64.0226
23.672	63.8285
23.756	63.6502
23.84	63.5682
23.924	63.5734
24.008	63.5951
24.092	63.5596
24.176	63.4334
24.26	63.2461
24.344	63.1065
24.428	63.1501
24.512	63.4525
24.596	64.0325
24.68	64.8169
24.764	65.619
24.848	66.2291
24.932	66.3636
25.016	65.7648
25.1	64.3696
25.184	62.2667
25.268	59.6899
25.352	56.9683
25.436	54.4488
25.52	52.3671
25.604	50.7941
25.688	49.5735
25.772	48.5086
25.856	47.5588
25.94	47.3598
26.024	48.5051
26.108	50.7581
26.192	53.8502
26.276	57.8065
26.36	63.5978
26.444	71.1918
26.528	79.3752
26.612	84.7282
26.696	85.4497
26.78	83.3605
26.864	84.2302
26.948	93.6371
27.028	109.254

File: BZ1503107-1_t22_cm-1.asc
PE IR       SPECTRUM    SPECTRUM    ASCII       PEDS        1.60
  -1
BZ6A23~1.ASC
17/04/07
14:58:05.00
17/04/07
14:58:05.00
tln
$BZ1503107-1_t0022$<tbV0>[-13.0,-10.4,8.0,0.0,27,1,0]
370
64

2002,4.07
MIRTGS : RIGHTBACK : INTERNAL 2
MIR : ON : INTERNAL 2
OPTKBR

0.200000
8
8.000000
FILLER
RATIO
SPECTRUM
UNLOCKED 256

DOUBLE
64
COMBINED
1
0
0

1.000000
RATIO

1
0
TRUE
51149
0
LEFT NOT FITTED RIGHT NOT FITTED 0
NONE
NONE
15600
12
4.427000
51148
TRUE
1 0 8 72 0 0 0 0

15798

#HDR
-1
-1
#GR
CM-1
%T
2.38419e-05
0.0
5000
-1.000000
4631
8
109.254
47.2682
#DATA
5000	64.6861
4984	64.5603
4968	64.3219
4952	64.8128
4936	64.6106
4920	65.0924
4904	64.7236
4888	64.9684
4872	64.3617
4856	65.615
4840	65.2747
4824	65.1904
4808	64.5348
4792	65.5285
4776	65.0216
4760	65.5349
4744	64.7978
4728	64.7809
4712	64.7193
4696	64.705
4680	64.964
4664	64.9678
4648	64.8683
4632	64.6734
4616	64.6052
4600	64.8882
4584	64.9261
4568	64.6021
4552	64.554
4536	64.7292
4520	64.7054
4504	65.2591
4488	67.8363
4472	65.0121
4456	62.1937
4440	63.2074
4424	67.8149
4408	66.1122
4392	66.3278
4376	64.6176
4360	64.7616
4344	65.0518
4328	64.9041
4312	64.8954
4296	64.8173
4280	64.8864
4264	65.0058
4248	64.8576
4232	65.1479
4216	65.0371
4200	64.8799
4184	65.2373
4168	65.1603
4152	64.8076
4136	65.0146
4120	65.2571
4104	65.2049
4088	65.3023
4072	65.2025
4056	65.3637
4040	65.1177
4024	65.1759
4008	65.038
3992	65.0376
3976	65.1289
3960	65.11
3944	65.3902
3928	64.856
3912	65.0177
3896	65.1728
3880	65.2524
3864	64.9525
3848	65.4507
3832	65.4043
3816	65.0428
3800	65.0991
3784	65.0914
3768	65.0136
3752	65.3654
3736	65.2949
3720	65.1195
3704	65.3088
3688	65.3084
3672	65.5545
3656	65.1533
3640	65.3832
3624	65.376
3608	65.2519
3592	65.2422
3576	65.3504
3560	65.125
3544	65.1349
3528	65.0925
3512	65.2556
3496	65.1458
3480	65.2124
3464	65.228
3448	65.0773
3432	65.2368
3416	65.09
3400	65.1232
3384	65.2136
3368	65.1326
3352	65.051
3336	65.2152
3320	65.2641
3304	65.2935
3288	65.2421
3272	65.0811
3256	65.261
3240	64.9131
3224	65.0082
3208	65.3406
3192	65.16
3176	65.2074
3160	65.174
3144	65.2225
3128	65.1272
3112	64.9467
3096	65.1474
3080	65.0294
3064	65.2627
3048	65.2143
3032	65.2341
3016	65.3259
3000	65.2508
2984	65.0271
2968	65.0186
2952	64.9167
2936	64.9963
2920	65.0255
2904	65.0709
2888	65.1057
2872	65.1339
2856	64.9517
2840	65.088
2824	65.0578
2808	65.1129
2792	65.1301
2776	65.0864
2760	65.0642
2744	65.1695
2728	65.2049
2712	65.0906
2696	65.1818
2680	65.1387
2664	65.1246
2648	64.9893
2632	65.0206
2616	65.1048
2600	64.9447
2584	65.1515
2568	65.0536
2552	65.0294
2536	65.0344
2520	65.1258
2504	65.0432
2488	65.0717
2472	65.0574
2456	64.9538
2440	65.0915
2424	64.9729
2408	65.0631
2392	65.017
2376	65.0855
2360	65.1041
2344	65.1273
2328	65.1765
2312	65.0674
2296	64.8767
2280	65.0167
2264	64.9776
2248	64.9607
2232	64.8931
2216	65.08
2200	65.0322
2184	64.8824
2168	64.9774
2152	64.8356
2136	64.878
2120	64.879
2104	64.926
2088	64.94
2072	64.9153
2056	64.9458
2040	64.9659
2024	64.8898
2008	64.9739
1992	64.8234
1976	65.014
1960	64.9645
1944	64.9305
1928	64.8145
1912	64.9565
1896	64.8768
1880	64.8151
1864	64.9542
1848	64.8446
1832	64.8374
1816	64.8752
1800	64.82
1784	64.8014
1768	64.8132
1752	64.8256
1736	64.5362
1720	64.6723
1704	64.8545
1688	64.7952
1672	64.7882
1656	64.8764
1640	64.729
1624	64.708
1608	64.8361
1592	64.6831
1576	64.7269
1560	64.9504
1544	64.76
1528	64.6585
1512	64.7042
1496	64.6795
1480	64.5688
1464	64.6704
1448	64.5669
1432	64.6742
1416	64.5889
1400	64.5172
1384	64.3977
1368	64.4831
1352	64.5248
1336	64.5277
1320	64.3712
1304	64.3737
1288	64.5149
1272	64.2835
1256	64.4292
1240	64.273
1224	64.4723
1208	64.4288
1192	64.4655
1176	64.1822
1160	64.0901
1144	64.2059
1128	64.5076
1112	64.4989
1096	64.264
1080	64.2836
1064	64.1832
1048	64.4237
1032	64.331
1016	64.0922
1000	64.29
984	 64.4759
968	 64.3486
952	 64.4347
936	 64.4402
920	 64.3071
904	 64.2411
888	 64.3351
872	 64.3146
856	 64.1818
840	 64.2628
824	 64.1765
808	 64.2317
792	 64.2016
776	 64.2314
760	 64.4397
744	 63.8765
728	 64.2856
712	 64.0958
696	 64.3544
680	 63.9487
664	 63.9674
648	 63.9791
632	 64.6245
616	 64.4185
600	 63.1675
584	 63.9159
568	 63.3899
552	 64.3339
536	 64.2275
520	 64.5759
504	 64.4839
488	 64.4987
472	 64.9536
456	 63.624
440	 63.4843
424	 64.0283
408	 63.441
392	 52.5825
376	 84.0806
370	 109.254

File: BZ1503107-1_t23.asc
PE IR       SPECTRUM    SPECTRUM    ASCII       PEDS        1.60
  -1
BZ2559~1.ASC
17/04/07
15:09:50.00
17/04/07
15:10:17.00
tln
$BZ1503107-1_t0023$<tbV0>[13.0,-7.8,8.0,0.0,27,1,0]
27.028
64

2002,4.07
MIRTGS : RIGHTBACK : INTERNAL 2
MIR : ON : INTERNAL 2
OPTKBR

0.200000
8
8.000000
FILLER
RATIO
SPECTRUM
UNLOCKED 256

DOUBLE
64
COMBINED
1
0
0

0.002000
RATIO

1
0
TRUE
51149
0
LEFT NOT FITTED RIGHT NOT FITTED 0
NONE
NONE
15600
12
4.427000
51148
TRUE
1 0 8 72 0 0 0 0

15798

#HDR
-1
-1
#GR
µM
%T
2.38419e-05
0.0
2.000000
0.002000
12515
8
83.0084
54.1496
#DATA
2.000000	 64.8986
2.084000	 64.7814
2.168000	 64.9822
2.252000	 63.7199
2.336000	 65.1903
2.420000	 65.4128
2.504000	 65.1716
2.588000	 64.9869
2.672000	 65.0361
2.756000	 65.2276
2.840000	 65.1967
2.924000	 65.41
3.008000	 65.1132
3.092000	 65.2678
3.176000	 64.9899
3.260000	 65.1492
3.344000	 65.1405
3.428000	 64.9655
3.512000	 65.1372
3.596000	 64.9754
3.680000	 65.1265
3.764000	 65.0918
3.848000	 65.0532
3.932000	 64.8968
4.016000	 64.9285
4.100000	 65.0295
4.184000	 65.0758
4.268000	 65.0554
4.352000	 64.9552
4.436000	 64.9195
4.520000	 64.8219
4.604000	 64.7675
4.688000	 64.7341
4.772000	 64.8431
4.856000	 64.7909
4.940000	 64.8186
5.024000	 64.7832
5.108000	 64.7191
5.192000	 64.7228
5.276000	 64.8145
5.359999	 64.7295
5.444000	 64.696
5.528000	 64.5973
5.612000	 64.5904
5.696000	 64.5067
5.780000	 64.3128
5.864000	 64.6457
5.948000	 64.5224
6.032000	 64.5347
6.116000	 64.6233
6.200000	 64.4341
6.284000	 64.4783
6.368000	 64.4378
6.452000	 64.4636
6.536000	 64.475
6.620000	 64.5162
6.704000	 64.5851
6.788000	 64.4291
6.872000	 64.618
6.956000	 64.5221
7.040000	 64.4176
7.124000	 64.2989
7.208000	 64.3469
7.292000	 64.4074
7.376000	 64.2681
7.460000	 64.3739
7.544000	 64.2403
7.628000	 64.3252
7.712000	 64.2226
7.796000	 64.0817
7.880000	 64.1033
7.964000	 64.1199
8.048000	 64.1895
8.132000	 64.221
8.216000	 64.1766
8.300000	 64.1216
8.384000	 64.1968
8.468000	 64.1375
8.552000	 64.0512
8.635999	 64.0112
8.719999	 64.1175
8.804000	 64.0382
8.888000	 63.9765
8.972000	 64.003
9.056000	 64.2696
9.140000	 63.9183
9.224000	 64.0299
9.308000	 64.192
9.391999	 64.1165
9.475999	 64.0863
9.560000	 63.9302
9.644000	 64.071
9.728000	 64.0734
9.812000	 64.1275
9.896000	 64.0498
9.980000	 64.1139
10.064	64.249
10.148	63.9561
10.232	63.9622
10.316	64.0901
10.4	64.0454
10.484	64.2508
10.568	64.2516
10.652	64.0259
10.736	64.2578
10.82	64.2616
10.904	64.4114
10.988	64.1153
11.072	64.0304
11.156	64.0468
11.24	64.0572
11.324	64.2735
11.408	64.3856
11.492	64.053
11.576	64.1257
11.66	64.1802
11.744	64.0986
11.828	63.9433
11.912	64.1907
11.996	64.3299
12.08	64.2698
12.164	64.2882
12.248	64.1886
12.332	64.0506
12.416	63.8883
12.5	64.1096
12.584	64.3883
12.668	64.1182
12.752	64.0308
12.836	64.057
12.92	64.2
13.004	64.1235
13.088	64.0003
13.172	63.972
13.256	63.7604
13.34	63.5633
13.424	63.8181
13.508	63.9763
13.592	63.7537
13.676	63.5643
13.76	63.6541
13.844	63.9762
13.928	64.0395
14.012	63.7124
14.096	63.6025
14.18	63.8393
14.264	64.1365
14.348	64.0511
14.432	63.7267
14.516	63.437
14.6	63.0928
14.684	63.0531
14.768	63.3181
14.852	63.4256
14.936	63.4264
15.02	63.5051
15.104	63.7268
15.188	64.2361
15.272	64.6749
15.356	64.6052
15.44	64.35
15.524	64.239
15.608	64.1412
15.692	64.0092
15.776	64.0338
15.86	64.3222
15.944	64.7033
16.028	64.7594
16.112	64.2142
16.196	63.3914
16.28	62.9975
16.364	63.2402
16.448	63.5665
16.532	63.5189
16.616	63.3314
16.7	63.2904
16.784	63.2161
16.868	63.0087
16.952	62.8796
17.036	62.8558
17.12	62.7791
17.204	62.7377
17.288	62.9222
17.372	63.2742
17.456	63.615
17.54	63.8788
17.624	64.0518
17.708	64.0945
17.792	64.0255
17.876	63.9463
17.96	63.9389
18.044	63.9923
18.128	64.0107
18.212	63.9094
18.296	63.6823
18.38	63.3915
18.464	63.1638
18.548	63.1334
18.632	63.3007
18.716	63.5003
18.8	63.5734
18.884	63.5277
18.968	63.4739
19.052	63.4589
19.136	63.4417
19.22	63.4047
19.304	63.4047
19.388	63.4947
19.472	63.6513
19.556	63.7922
19.64	63.8594
19.724	63.8694
19.808	63.8777
19.892	63.9154
19.976	63.9676
20.06	64.0098
20.144	64.0297
20.228	64.0182
20.312	63.9589
20.396	63.8529
20.48	63.7497
20.564	63.7288
20.648	63.8312
20.732	64.0074
20.816	64.1388
20.9	64.1225
20.984	63.9393
21.068	63.6558
21.152	63.3664
21.236	63.1396
21.32	63.0023
21.404	62.953
21.488	62.9756
21.572	63.0399
21.656	63.1059
21.74	63.1414
21.824	63.1443
21.908	63.1463
21.992	63.1932
22.076	63.3192
22.16	63.522
22.244	63.7652
22.328	64.0004
22.412	64.1856
22.496	64.2979
22.58	64.3271
22.664	64.274
22.748	64.158
22.832	64.0175
22.916	63.9051
23	63.8609
23.084	63.8733
23.168	63.8711
23.252	63.7633
23.336	63.4794
23.42	63.0279
23.504	62.5096
23.588	62.0832
23.672	61.8851
23.756	61.9697
23.84	62.3024
23.924	62.7737
24.008	63.2571
24.092	63.6645
24.176	63.9807
24.26	64.2095
24.344	64.3372
24.428	64.3136
24.512	64.0465
24.596	63.438
24.68	62.4758
24.764	61.3101
24.848	60.2057
24.932	59.4991
25.016	59.4405
25.1	60.0847
25.184	61.2211
25.268	62.4357
25.352	63.2823
25.436	63.4165
25.52	62.786
25.604	61.6602
25.688	60.6366
25.772	60.4334
25.856	61.5693
25.94	64.1774
26.024	67.8401
26.108	71.6398
26.192	74.5562
26.276	75.7737
26.36	74.9312
26.444	72.1712
26.528	68.0695
26.612	63.4103
26.696	59.0713
26.78	55.8171
26.864	54.2452
26.948	54.6091
27.028	56.4813

File: BZ1503107-1_t23_cm-1.asc
PE IR       SPECTRUM    SPECTRUM    ASCII       PEDS        1.60
  -1
BZ6B23~1.ASC
17/04/07
15:09:50.00
17/04/07
15:09:50.00
tln
$BZ1503107-1_t0023$<tbV0>[13.0,-7.8,8.0,0.0,27,1,0]
370
64

2002,4.07
MIRTGS : RIGHTBACK : INTERNAL 2
MIR : ON : INTERNAL 2
OPTKBR

0.200000
8
8.000000
FILLER
RATIO
SPECTRUM
UNLOCKED 256

DOUBLE
64
COMBINED
1
0
0

1.000000
RATIO

1
0
TRUE
51149
0
LEFT NOT FITTED RIGHT NOT FITTED 0
NONE
NONE
15600
12
4.427000
51148
TRUE
1 0 8 72 0 0 0 0

15798

#HDR
-1
-1
#GR
CM-1
%T
2.38419e-05
0.0
5000
-1.000000
4631
8
83.5359
54.1584
#DATA
5000	64.8986
4984	65.4804
4968	64.2732
4952	64.3276
4936	64.7307
4920	65.6013
4904	64.8216
4888	64.6974
4872	64.6163
4856	65.0561
4840	64.7149
4824	65.0913
4808	64.7102
4792	64.9908
4776	64.7308
4760	65.2482
4744	65.0801
4728	65.111
4712	66.0878
4696	65.4643
4680	65.0611
4664	64.9232
4648	65.346
4632	64.9633
4616	64.9826
4600	64.6454
4584	64.8799
4568	64.6629
4552	64.5778
4536	65.1392
4520	64.2101
4504	64.9853
4488	64.1439
4472	64.5731
4456	65.4433
4440	63.678
4424	74.3009
4408	66.0606
4392	64.749
4376	64.9923
4360	64.6036
4344	64.3814
4328	64.7748
4312	64.7141
4296	64.4788
4280	65.1864
4264	64.5736
4248	64.8116
4232	64.9027
4216	64.9334
4200	65.1908
4184	65.044
4168	66.0218
4152	64.9153
4136	65.367
4120	65.3401
4104	65.0478
4088	65.2356
4072	65.2994
4056	65.1076
4040	65.077
4024	64.9737
4008	65.3694
3992	65.2318
3976	64.9065
3960	65.1295
3944	65.0892
3928	65.1125
3912	65.0499
3896	65.1201
3880	65.0496
3864	64.9873
3848	65.3507
3832	65.1216
3816	65.0193
3800	65.4925
3784	65.2132
3768	65.174
3752	65.0488
3736	65.1357
3720	65.248
3704	65.4347
3688	65.0624
3672	65.3017
3656	65.3697
3640	65.3424
3624	65.1795
3608	65.3894
3592	65.2477
3576	65.0663
3560	64.9614
3544	65.1077
3528	65.0409
3512	65.2844
3496	65.0825
3480	64.9109
3464	65.19
3448	65.1885
3432	65.2195
3416	65.3808
3400	65.2041
3384	65.1884
3368	65.1434
3352	65.167
3336	65.2029
3320	65.1057
3304	65.0216
3288	65.2196
3272	65.2399
3256	65.1271
3240	65.2434
3224	65.1439
3208	65.2117
3192	65.1045
3176	65.1865
3160	65.0594
3144	64.9907
3128	65.325
3112	64.9774
3096	65.0965
3080	64.9737
3064	65.202
3048	65.1547
3032	65.0683
3016	65.0218
3000	65.0961
2984	65.2218
2968	65.0427
2952	65.0259
2936	64.9528
2920	64.9293
2904	64.969
2888	65.0429
2872	64.9625
2856	65.1357
2840	65.0538
2824	65.0452
2808	65.1614
2792	65.2147
2776	65.0926
2760	65.1659
2744	65.2399
2728	65.0409
2712	65.0908
2696	65.0953
2680	65.0471
2664	65.0087
2648	64.9749
2632	65.0466
2616	64.8359
2600	65.0125
2584	64.9579
2568	64.9776
2552	64.921
2536	65.0397
2520	65.049
2504	65.0376
2488	64.9175
2472	64.942
2456	64.7196
2440	65.0229
2424	64.8697
2408	65.0438
2392	65.0392
2376	64.9391
2360	65.0422
2344	65.061
2328	65.0052
2312	64.9111
2296	64.9289
2280	64.9896
2264	64.9194
2248	64.9756
2232	64.8771
2216	64.8961
2200	64.9919
2184	64.9603
2168	64.8055
2152	64.778
2136	64.717
2120	64.9297
2104	64.8704
2088	64.9416
2072	65.0397
2056	64.8114
2040	64.845
2024	64.8212
2008	64.8018
1992	64.798
1976	64.6825
1960	64.7362
1944	64.7956
1928	64.7341
1912	64.7378
1896	64.8146
1880	64.6728
1864	64.6874
1848	64.7089
1832	64.7264
1816	64.7545
1800	64.6231
1784	64.6258
1768	64.5714
1752	64.4912
1736	64.2888
1720	64.4399
1704	64.677
1688	64.6645
1672	64.5881
1656	64.5275
1640	64.5185
1624	64.44
1608	64.4268
1592	64.4704
1576	64.3947
1560	64.4815
1544	64.436
1528	64.4726
1512	64.5241
1496	64.6059
1480	64.5114
1464	64.313
1448	64.5078
1432	64.4495
1416	64.3903
1400	64.3121
1384	64.3326
1368	64.3576
1352	64.236
1336	64.4655
1320	64.2247
1304	64.241
1288	64.1359
1272	64.1528
1256	64.1143
1240	64.1646
1224	64.1991
1208	64.1732
1192	64.2054
1176	64.1086
1160	64.0259
1144	64.1593
1128	63.9838
1112	63.9781
1096	63.9795
1080	64.0626
1064	64.1033
1048	63.9926
1032	64.0749
1016	64.1284
1000	64.1881
984	 63.926
968	 64.0912
952	 64.296
936	 64.0922
920	 64.3715
904	 64.0313
888	 64.066
872	 64.1025
856	 64.1985
840	 64.1709
824	 64.2678
808	 63.9605
792	 64.2781
776	 64.1419
760	 63.9835
744	 63.8831
728	 63.5964
712	 63.6202
696	 63.9761
680	 63.1131
664	 63.5818
648	 64.3687
632	 64.1654
616	 63.1278
600	 63.2938
584	 62.7754
568	 64.0237
552	 64.0142
536	 63.3656
520	 63.4011
504	 63.8893
488	 63.7402
472	 63.2633
456	 63.1523
440	 64.1908
424	 62.0953
408	 64.0576
392	 62.8916
376	 64.305
370	 56.4813