Folder: Masteroppgave/Bakgrunnsmateriale/MATLAB/FTIR/ftir_data/subAa/Mapping_121 (part 25)

File: BZ1503107-1_t54.asc
PE IR       SPECTRUM    SPECTRUM    ASCII       PEDS        1.60
  -1
BZ2953~1.ASC
17/04/07
17:40:37.00
17/04/07
17:41:04.00
tln
$BZ1503107-1_t0054$<tbV0>[-10.4,-2.6,8.0,0.0,27,1,0]
27.028
64

2002,4.07
MIRTGS : RIGHTBACK : INTERNAL 2
MIR : ON : INTERNAL 2
OPTKBR

0.200000
8
8.000000
FILLER
RATIO
SPECTRUM
UNLOCKED 256

DOUBLE
64
COMBINED
1
0
0

0.002000
RATIO

1
0
TRUE
51149
0
LEFT NOT FITTED RIGHT NOT FITTED 0
NONE
NONE
15600
12
4.427000
51148
TRUE
1 0 8 72 0 0 0 0

15798

#HDR
-1
-1
#GR
µM
%T
2.38419e-05
0.0
2.000000
0.002000
12515
8
67.1027
45.0945
#DATA
2.000000	 64.8395
2.084000	 64.9272
2.168000	 64.5435
2.252000	 67.1027
2.336000	 64.9576
2.420000	 64.9956
2.504000	 65.1215
2.588000	 65.1874
2.672000	 64.9345
2.756000	 65.0354
2.840000	 65.0208
2.924000	 65.0539
3.008000	 65.1653
3.092000	 65.004
3.176000	 65.0533
3.260000	 65.0794
3.344000	 65.0475
3.428000	 64.7631
3.512000	 64.9265
3.596000	 64.9758
3.680000	 64.9545
3.764000	 64.8932
3.848000	 64.8992
3.932000	 64.8841
4.016000	 64.9803
4.100000	 64.874
4.184000	 64.8614
4.268000	 64.7812
4.352000	 64.8389
4.436000	 64.8115
4.520000	 64.7478
4.604000	 64.7251
4.688000	 64.7314
4.772000	 64.8313
4.856000	 64.7299
4.940000	 64.6472
5.024000	 64.5911
5.108000	 64.4885
5.192000	 64.6508
5.276000	 64.5654
5.359999	 64.5537
5.444000	 64.5655
5.528000	 64.4991
5.612000	 64.4474
5.696000	 64.3939
5.780000	 64.0993
5.864000	 64.3799
5.948000	 64.3245
6.032000	 64.3804
6.116000	 64.2653
6.200000	 64.251
6.284000	 64.2985
6.368000	 64.1637
6.452000	 64.1488
6.536000	 64.2299
6.620000	 64.2637
6.704000	 64.2617
6.788000	 64.1401
6.872000	 64.1359
6.956000	 63.9567
7.040000	 64.2862
7.124000	 64.1295
7.208000	 64.0359
7.292000	 64.0682
7.376000	 64.1825
7.460000	 63.9691
7.544000	 64.0652
7.628000	 64.12
7.712000	 64.1302
7.796000	 64.0579
7.880000	 63.9908
7.964000	 63.9606
8.048000	 64.0487
8.132000	 63.8584
8.216000	 63.9145
8.300000	 63.9483
8.384000	 63.873
8.468000	 63.9815
8.552000	 63.998
8.635999	 63.7174
8.719999	 63.7063
8.804000	 63.9884
8.888000	 63.8799
8.972000	 63.814
9.056000	 63.7275
9.140000	 63.8792
9.224000	 63.6926
9.308000	 63.8594
9.391999	 63.7559
9.475999	 63.7854
9.560000	 63.6644
9.644000	 63.7421
9.728000	 63.767
9.812000	 63.7057
9.896000	 63.8258
9.980000	 63.883
10.064	63.9226
10.148	63.8764
10.232	63.9672
10.316	63.8775
10.4	63.6665
10.484	63.5744
10.568	63.5241
10.652	63.6202
10.736	63.7675
10.82	63.8418
10.904	63.875
10.988	63.6805
11.072	63.6992
11.156	63.7562
11.24	63.7695
11.324	63.8851
11.408	64.0111
11.492	63.8772
11.576	63.6674
11.66	63.7925
11.744	63.8149
11.828	63.7587
11.912	63.8291
11.996	63.7719
12.08	63.6867
12.164	63.7301
12.248	63.7077
12.332	63.6066
12.416	63.6437
12.5	63.5952
12.584	63.6052
12.668	63.754
12.752	63.9045
12.836	63.8553
12.92	63.6678
13.004	63.69
13.088	63.6496
13.172	63.4637
13.256	63.2308
13.34	63.2594
13.424	63.5159
13.508	63.7021
13.592	63.6447
13.676	63.5077
13.76	63.6857
13.844	63.9041
13.928	63.8402
14.012	63.7638
14.096	63.6839
14.18	63.4416
14.264	63.3828
14.348	63.4507
14.432	63.4202
14.516	63.5335
14.6	63.5939
14.684	63.4897
14.768	63.4778
14.852	63.3551
14.936	63.0953
15.02	63.0385
15.104	63.341
15.188	63.7626
15.272	63.8833
15.356	63.8232
15.44	63.7608
15.524	63.4154
15.608	62.9706
15.692	62.8275
15.776	62.7866
15.86	62.6306
15.944	62.5937
16.028	62.8782
16.112	63.2901
16.196	63.394
16.28	63.0318
16.364	62.6897
16.448	62.9456
16.532	63.5859
16.616	63.9021
16.7	63.8099
16.784	63.8003
16.868	63.8624
16.952	63.5756
17.036	63.0932
17.12	62.9907
17.204	63.3436
17.288	63.7446
17.372	63.9319
17.456	63.9059
17.54	63.7237
17.624	63.4596
17.708	63.1783
17.792	62.9175
17.876	62.7693
17.96	62.8304
18.044	63.0346
18.128	63.2202
18.212	63.3657
18.296	63.5056
18.38	63.4917
18.464	63.1673
18.548	62.7129
18.632	62.4937
18.716	62.6331
18.8	62.9577
18.884	63.2969
18.968	63.6366
19.052	63.9827
19.136	64.2374
19.22	64.2833
19.304	64.1167
19.388	63.8459
19.472	63.6017
19.556	63.4718
19.64	63.4699
19.724	63.5239
19.808	63.5247
19.892	63.4341
19.976	63.3182
20.06	63.2635
20.144	63.2797
20.228	63.3086
20.312	63.3028
20.396	63.2721
20.48	63.2575
20.564	63.2754
20.648	63.2941
20.732	63.2539
20.816	63.1001
20.9	62.8151
20.984	62.4564
21.068	62.1494
21.152	62.0252
21.236	62.1408
21.32	62.4475
21.404	62.8246
21.488	63.1455
21.572	63.3358
21.656	63.3931
21.74	63.3581
21.824	63.2551
21.908	63.0614
21.992	62.7391
22.076	62.288
22.16	61.7821
22.244	61.3456
22.328	61.0809
22.412	61.0269
22.496	61.144
22.58	61.3627
22.664	61.6237
22.748	61.884
22.832	62.1016
22.916	62.2238
23	62.2407
23.084	62.1845
23.168	62.1376
23.252	62.1895
23.336	62.384
23.42	62.6798
23.504	62.9921
23.588	63.2169
23.672	63.2683
23.756	63.1086
23.84	62.7459
23.924	62.2321
24.008	61.663
24.092	61.1669
24.176	60.8541
24.26	60.7323
24.344	60.6543
24.428	60.364
24.512	59.5711
24.596	58.1255
24.68	56.1405
24.764	54.0216
24.848	52.2945
24.932	51.5114
25.016	51.9964
25.1	53.7031
25.184	56.2145
25.268	58.8757
25.352	61.0103
25.436	62.1199
25.52	62.0596
25.604	60.9991
25.688	59.3529
25.772	57.6138
25.856	56.1746
25.94	55.2717
26.024	54.9827
26.108	55.2581
26.192	55.9405
26.276	56.805
26.36	57.6191
26.444	58.1295
26.528	58.0976
26.612	57.3578
26.696	55.844
26.78	53.6197
26.864	50.889
26.948	47.9174
27.028	45.0945

File: BZ1503107-1_t54_cm-1.asc
PE IR       SPECTRUM    SPECTRUM    ASCII       PEDS        1.60
  -1
BZ6CA3~1.ASC
17/04/07
17:40:37.00
17/04/07
17:40:37.00
tln
$BZ1503107-1_t0054$<tbV0>[-10.4,-2.6,8.0,0.0,27,1,0]
370
64

2002,4.07
MIRTGS : RIGHTBACK : INTERNAL 2
MIR : ON : INTERNAL 2
OPTKBR

0.200000
8
8.000000
FILLER
RATIO
SPECTRUM
UNLOCKED 256

DOUBLE
64
COMBINED
1
0
0

1.000000
RATIO

1
0
TRUE
51149
0
LEFT NOT FITTED RIGHT NOT FITTED 0
NONE
NONE
15600
12
4.427000
51148
TRUE
1 0 8 72 0 0 0 0

15798

#HDR
-1
-1
#GR
CM-1
%T
2.38419e-05
0.0
5000
-1.000000
4631
8
67.1367
45.0945
#DATA
5000	64.8395
4984	65.3744
4968	64.2222
4952	65.3199
4936	64.5595
4920	64.4648
4904	65.0977
4888	65.047
4872	64.6462
4856	64.765
4840	64.554
4824	65.1186
4808	64.4629
4792	64.8878
4776	64.6656
4760	64.8028
4744	64.7123
4728	64.8342
4712	64.7977
4696	64.8142
4680	65.0666
4664	64.9673
4648	64.9467
4632	64.9189
4616	64.6279
4600	65.1898
4584	64.7826
4568	64.6601
4552	64.835
4536	64.8106
4520	64.8277
4504	64.8675
4488	64.5697
4472	64.4333
4456	66.0217
4440	67.0261
4424	56.9427
4408	63.9814
4392	65.0603
4376	64.9453
4360	65.4259
4344	64.8563
4328	65.0921
4312	64.7593
4296	65.0113
4280	64.9596
4264	65.1119
4248	64.8178
4232	64.943
4216	65.2311
4200	64.878
4184	65.1914
4168	64.9242
4152	64.9823
4136	64.8803
4120	65.0566
4104	64.9716
4088	64.906
4072	64.8024
4056	65.0608
4040	65.24
4024	65.0367
4008	64.8468
3992	65.2032
3976	65.1351
3960	64.9674
3944	65.1188
3928	64.7455
3912	65.0871
3896	64.8616
3880	64.9879
3864	65.1871
3848	64.9038
3832	65.0426
3816	64.9349
3800	64.9751
3784	65.1357
3768	64.9552
3752	65.1978
3736	65.009
3720	65.1059
3704	65.1839
3688	65.071
3672	64.9749
3656	65.1043
3640	65.2404
3624	64.9616
3608	64.9557
3592	65.0079
3576	65.0058
3560	65.0673
3544	65.0709
3528	64.8779
3512	65.1083
3496	64.9306
3480	65.0503
3464	65.1359
3448	64.9904
3432	64.7964
3416	65.0485
3400	64.9442
3384	64.9774
3368	65.2451
3352	64.9872
3336	65.1371
3320	65.0839
3304	65.2131
3288	65.0009
3272	65.0919
3256	65.0645
3240	65.1128
3224	65.0764
3208	65.0487
3192	65.0419
3176	64.983
3160	64.8708
3144	65.0822
3128	64.974
3112	64.8631
3096	65.1073
3080	65.0396
3064	65.0424
3048	64.9932
3032	64.9554
3016	64.9296
3000	65.1145
2984	64.9995
2968	64.7424
2952	64.9784
2936	64.8098
2920	64.7989
2904	64.804
2888	64.9743
2872	64.9418
2856	65.0219
2840	64.9363
2824	64.998
2808	65.0187
2792	64.9317
2776	65.0072
2760	64.9803
2744	65.09
2728	65.0059
2712	64.9922
2696	64.8919
2680	64.9801
2664	64.96
2648	64.9532
2632	64.98
2616	64.8548
2600	64.9099
2584	64.8977
2568	64.8226
2552	64.8419
2536	64.8087
2520	64.851
2504	64.8923
2488	64.9597
2472	64.8145
2456	64.8909
2440	64.8761
2424	64.9145
2408	64.8512
2392	64.8782
2376	64.8318
2360	64.8133
2344	64.7924
2328	64.72
2312	64.7444
2296	64.8269
2280	64.8253
2264	64.7539
2248	64.7538
2232	64.8029
2216	64.7356
2200	64.7968
2184	64.596
2168	64.6818
2152	64.7876
2136	64.7576
2120	64.7884
2104	64.7063
2088	64.7103
2072	64.6399
2056	64.6972
2040	64.6158
2024	64.6476
2008	64.72
1992	64.5945
1976	64.616
1960	64.4887
1944	64.5775
1928	64.6567
1912	64.6451
1896	64.5614
1880	64.5194
1864	64.551
1848	64.6272
1832	64.489
1816	64.4956
1800	64.4638
1784	64.4374
1768	64.5042
1752	64.3547
1736	64.0902
1720	64.1171
1704	64.3907
1688	64.3963
1672	64.2754
1656	64.3667
1640	64.3248
1624	64.2661
1608	64.3039
1592	64.3008
1576	64.1257
1560	64.2304
1544	64.2628
1528	64.2319
1512	64.2669
1496	64.2058
1480	64.1827
1464	64.1368
1448	64.0636
1432	64.0692
1416	64.2344
1400	64.1732
1384	64.0155
1368	64.0948
1352	64.1027
1336	64.0014
1320	64.1036
1304	64.1411
1288	64.1299
1272	63.988
1256	63.9649
1240	64.0357
1224	63.8304
1208	63.9953
1192	63.8906
1176	63.977
1160	63.7067
1144	63.7485
1128	63.8762
1112	63.8276
1096	63.8858
1080	63.7686
1064	63.7603
1048	63.7044
1032	63.7828
1016	63.6943
1000	63.8524
984	 63.8999
968	 63.8448
952	 63.5704
936	 63.6738
920	 63.8709
904	 63.69
888	 63.7886
872	 63.9492
856	 63.8381
840	 63.8305
824	 63.6979
808	 63.6211
792	 63.6793
776	 63.7202
760	 63.5036
744	 63.5658
728	 63.6063
712	 63.7516
696	 63.4461
680	 63.4776
664	 63.1423
648	 63.7751
632	 62.7054
616	 63.2739
600	 63.863
584	 62.9977
568	 63.5204
552	 63.1974
536	 62.5014
520	 64.2725
504	 63.498
488	 63.2583
472	 62.0441
456	 62.9912
440	 61.8217
424	 63.2115
408	 59.6001
392	 62.1227
376	 57.5622
370	 45.0945

File: BZ1503107-1_t55.asc
PE IR       SPECTRUM    SPECTRUM    ASCII       PEDS        1.60
  -1
BZ2D53~1.ASC
17/04/07
17:45:15.00
17/04/07
17:45:41.00
tln
$BZ1503107-1_t0055$<tbV0>[-13.0,-2.6,8.0,0.0,27,1,0]
27.028
64

2002,4.07
MIRTGS : RIGHTBACK : INTERNAL 2
MIR : ON : INTERNAL 2
OPTKBR

0.200000
8
8.000000
FILLER
RATIO
SPECTRUM
UNLOCKED 256

DOUBLE
64
COMBINED
1
0
0

0.002000
RATIO

1
0
TRUE
51149
0
LEFT NOT FITTED RIGHT NOT FITTED 0
NONE
NONE
15600
12
4.427000
51148
TRUE
1 0 8 72 0 0 0 0

15798

#HDR
-1
-1
#GR
µM
%T
2.38419e-05
0.0
2.000000
0.002000
12515
8
77.0812
51.7392
#DATA
2.000000	 66.8718
2.084000	 64.9116
2.168000	 64.7151
2.252000	 53.9318
2.336000	 65.2095
2.420000	 64.9479
2.504000	 65.0614
2.588000	 65.2485
2.672000	 65.0673
2.756000	 65.1432
2.840000	 65.1657
2.924000	 65.2787
3.008000	 65.1521
3.092000	 65.0781
3.176000	 65.0404
3.260000	 64.996
3.344000	 64.9286
3.428000	 64.802
3.512000	 64.9526
3.596000	 65.0878
3.680000	 64.9237
3.764000	 64.872
3.848000	 65.0319
3.932000	 64.9382
4.016000	 64.9743
4.100000	 65.0026
4.184000	 64.8777
4.268000	 64.7549
4.352000	 64.8034
4.436000	 64.8314
4.520000	 64.8194
4.604000	 64.7344
4.688000	 64.6837
4.772000	 64.6682
4.856000	 64.7554
4.940000	 64.6489
5.024000	 64.6672
5.108000	 64.4564
5.192000	 64.6014
5.276000	 64.569
5.359999	 64.5789
5.444000	 64.4831
5.528000	 64.5401
5.612000	 64.5125
5.696000	 64.3246
5.780000	 63.7499
5.864000	 64.308
5.948000	 64.3026
6.032000	 64.3434
6.116000	 64.2972
6.200000	 64.3386
6.284000	 64.3426
6.368000	 64.321
6.452000	 64.3393
6.536000	 64.1774
6.620000	 64.3508
6.704000	 64.2568
6.788000	 64.1668
6.872000	 64.1749
6.956000	 64.1781
7.040000	 64.2497
7.124000	 64.2369
7.208000	 64.143
7.292000	 64.0367
7.376000	 64.0527
7.460000	 64.0853
7.544000	 64.1844
7.628000	 64.0362
7.712000	 64.114
7.796000	 64.0713
7.880000	 63.9398
7.964000	 63.9097
8.048000	 63.8369
8.132000	 63.7714
8.216000	 63.9432
8.300000	 63.8649
8.384000	 63.763
8.468000	 63.84
8.552000	 63.6641
8.635999	 63.5941
8.719999	 63.8117
8.804000	 63.823
8.888000	 63.7868
8.972000	 63.9513
9.056000	 63.932
9.140000	 63.9658
9.224000	 63.8236
9.308000	 63.8382
9.391999	 63.8604
9.475999	 63.8372
9.560000	 63.7023
9.644000	 63.7913
9.728000	 63.8286
9.812000	 63.8277
9.896000	 63.6874
9.980000	 63.9085
10.064	64.0777
10.148	64.0529
10.232	64.1892
10.316	63.8574
10.4	63.8279
10.484	63.8889
10.568	63.7858
10.652	63.7442
10.736	63.8621
10.82	63.7985
10.904	63.8525
10.988	63.9119
11.072	64.1005
11.156	63.9155
11.24	63.7558
11.324	63.9233
11.408	63.89
11.492	63.9384
11.576	63.9511
11.66	64.0479
11.744	64.1042
11.828	63.9105
11.912	63.7768
11.996	63.9324
12.08	64.0688
12.164	64.066
12.248	64.0742
12.332	63.9502
12.416	63.7798
12.5	63.7944
12.584	63.7945
12.668	63.8149
12.752	63.8126
12.836	63.8195
12.92	63.7727
13.004	63.7286
13.088	63.6308
13.172	63.4704
13.256	63.3915
13.34	63.4582
13.424	63.7063
13.508	63.6719
13.592	63.5434
13.676	63.6222
13.76	63.6615
13.844	63.6616
13.928	63.5587
14.012	63.5655
14.096	63.5484
14.18	63.3486
14.264	63.2966
14.348	63.304
14.432	63.3396
14.516	63.4776
14.6	63.3679
14.684	63.2491
14.768	63.3683
14.852	63.3589
14.936	63.2254
15.02	63.1531
15.104	63.2842
15.188	63.6
15.272	63.7129
15.356	63.5588
15.44	63.4282
15.524	63.3535
15.608	63.314
15.692	63.3882
15.776	63.352
15.86	63.0369
15.944	62.8737
16.028	63.3003
16.112	63.8989
16.196	63.8292
16.28	63.0028
16.364	62.2376
16.448	62.2282
16.532	62.7756
16.616	63.2577
16.7	63.5007
16.784	63.6611
16.868	63.6202
16.952	63.3044
17.036	63.1764
17.12	63.6419
17.204	64.3706
17.288	64.7171
17.372	64.4464
17.456	63.8215
17.54	63.305
17.624	63.1669
17.708	63.2386
17.792	63.1706
17.876	62.932
17.96	62.8451
18.044	63.1217
18.128	63.6079
18.212	64.0274
18.296	64.2483
18.38	64.3036
18.464	64.2473
18.548	64.0904
18.632	63.8211
18.716	63.4698
18.8	63.1723
18.884	63.1421
18.968	63.4491
19.052	63.8458
19.136	63.9746
19.22	63.7369
19.304	63.3689
19.388	63.122
19.472	63.014
19.556	62.9335
19.64	62.8535
19.724	62.8152
19.808	62.7885
19.892	62.694
19.976	62.5333
20.06	62.4101
20.144	62.4074
20.228	62.4971
20.312	62.6166
20.396	62.7702
20.48	63.0051
20.564	63.3048
20.648	63.5557
20.732	63.6339
20.816	63.4915
20.9	63.1824
20.984	62.8326
21.068	62.5961
21.152	62.6008
21.236	62.8857
21.32	63.36
21.404	63.8244
21.488	64.0898
21.572	64.0942
21.656	63.9206
21.74	63.7188
21.824	63.5887
21.908	63.5245
21.992	63.4701
22.076	63.3993
22.16	63.3526
22.244	63.4016
22.328	63.5646
22.412	63.7748
22.496	63.9005
22.58	63.8313
22.664	63.5374
22.748	63.1032
22.832	62.6835
22.916	62.446
23	62.5166
23.084	62.9236
23.168	63.5756
23.252	64.3024
23.336	64.9067
23.42	65.232
23.504	65.2215
23.588	64.941
23.672	64.5194
23.756	64.081
23.84	63.7128
23.924	63.4423
24.008	63.2717
24.092	63.2141
24.176	63.2832
24.26	63.4477
24.344	63.5877
24.428	63.5376
24.512	63.1526
24.596	62.4361
24.68	61.6024
24.764	61.0302
24.848	61.0916
24.932	62.0025
25.016	63.6445
25.1	65.5609
25.184	67.0611
25.268	67.5179
25.352	66.5977
25.436	64.3543
25.52	61.2402
25.604	57.9046
25.688	55.0576
25.772	53.219
25.856	52.5704
25.94	52.9296
26.024	53.8664
26.108	54.9185
26.192	55.7941
26.276	56.4491
26.36	57.066
26.444	57.8383
26.528	58.7794
26.612	59.6485
26.696	60.0154
26.78	59.428
26.864	57.6602
26.948	54.8574
27.028	51.7392

File: BZ1503107-1_t55_cm-1.asc
PE IR       SPECTRUM    SPECTRUM    ASCII       PEDS        1.60
  -1
BZ6DA3~1.ASC
17/04/07
17:45:15.00
17/04/07
17:45:15.00
tln
$BZ1503107-1_t0055$<tbV0>[-13.0,-2.6,8.0,0.0,27,1,0]
370
64

2002,4.07
MIRTGS : RIGHTBACK : INTERNAL 2
MIR : ON : INTERNAL 2
OPTKBR

0.200000
8
8.000000
FILLER
RATIO
SPECTRUM
UNLOCKED 256

DOUBLE
64
COMBINED
1
0
0

1.000000
RATIO

1
0
TRUE
51149
0
LEFT NOT FITTED RIGHT NOT FITTED 0
NONE
NONE
15600
12
4.427000
51148
TRUE
1 0 8 72 0 0 0 0

15798

#HDR
-1
-1
#GR
CM-1
%T
2.38419e-05
0.0
5000
-1.000000
4631
8
78.6662
51.7392
#DATA
5000	66.8718
4984	67.1125
4968	66.3814
4952	63.9601
4936	65.6295
4920	65.1974
4904	64.8433
4888	65.2371
4872	64.9536
4856	64.7757
4840	65.0927
4824	64.5685
4808	64.6842
4792	64.8351
4776	64.7665
4760	64.9316
4744	64.8085
4728	64.9148
4712	65.054
4696	65.0716
4680	65.1431
4664	64.7464
4648	65.1747
4632	65.1437
4616	64.6153
4600	64.798
4584	64.7449
4568	64.6989
4552	65.4459
4536	65.034
4520	65.3741
4504	64.5705
4488	64.2684
4472	65.1954
4456	64.5226
4440	53.6063
4424	65.4846
4408	65.625
4392	65.4819
4376	65.2136
4360	65.3545
4344	65.1035
4328	65.1865
4312	64.69
4296	65.2038
4280	65.2116
4264	65.0345
4248	64.9695
4232	65.1526
4216	64.9034
4200	65.3333
4184	64.9554
4168	64.6471
4152	64.8771
4136	64.9487
4120	65.2091
4104	65.0131
4088	65.0835
4072	64.852
4056	65.1555
4040	65.0354
4024	65.2256
4008	64.877
3992	65.0996
3976	65.1346
3960	65.1505
3944	65.0464
3928	64.7203
3912	65.1506
3896	64.9306
3880	65.0184
3864	65.2483
3848	65.1764
3832	65.3989
3816	65.2336
3800	65.113
3784	65.0335
3768	65.0702
3752	65.115
3736	64.9726
3720	65.004
3704	65.0684
3688	65.1813
3672	65.0061
3656	65.1243
3640	65.2967
3624	65.1755
3608	65.3166
3592	65.0776
3576	65.0164
3560	65.1238
3544	65.1309
3528	65.1105
3512	65.3485
3496	65.2324
3480	65.167
3464	65.0851
3448	65.1495
3432	65.0857
3416	65.2012
3400	65.0531
3384	65.1033
3368	65.1671
3352	64.9107
3336	65.116
3320	65.0691
3304	65.1013
3288	65.0812
3272	65.0598
3256	65.0696
3240	65.0846
3224	65.0357
3208	65.1281
3192	65.2198
3176	65.137
3160	65.0428
3144	64.9991
3128	65.1131
3112	65.0175
3096	65.2343
3080	64.942
3064	65.0446
3048	64.9248
3032	65.0387
3016	65.0929
3000	64.9891
2984	64.9632
2968	64.7192
2952	64.7197
2936	64.6879
2920	64.8023
2904	64.9339
2888	65.0611
2872	64.8664
2856	64.8652
2840	64.9534
2824	64.97
2808	64.9341
2792	64.9489
2776	65.0614
2760	64.972
2744	64.9635
2728	64.9399
2712	65.0055
2696	64.965
2680	65.0638
2664	64.9602
2648	64.8611
2632	64.9772
2616	64.9488
2600	65.0196
2584	64.9609
2568	64.8421
2552	64.8661
2536	64.8671
2520	64.9257
2504	64.9877
2488	64.9616
2472	64.8202
2456	64.8781
2440	65.0138
2424	64.9053
2408	64.7863
2392	64.8939
2376	64.8299
2360	64.7724
2344	64.7721
2328	64.8486
2312	64.8417
2296	64.8106
2280	64.7056
2264	64.818
2248	64.7784
2232	64.7339
2216	64.8255
2200	64.8097
2184	64.6919
2168	64.7415
2152	64.7028
2136	64.6981
2120	64.7129
2104	64.6448
2088	64.5942
2072	64.6558
2056	64.7485
2040	64.643
2024	64.6503
2008	64.7128
1992	64.6367
1976	64.6688
1960	64.4493
1944	64.6194
1928	64.6039
1912	64.6311
1896	64.5603
1880	64.5868
1864	64.5878
1848	64.5977
1832	64.426
1816	64.474
1800	64.4956
1784	64.5228
1768	64.4424
1752	64.2312
1736	63.7849
1720	64.0984
1704	64.3126
1688	64.3438
1672	64.2939
1656	64.3415
1640	64.2682
1624	64.3043
1608	64.2763
1592	64.3488
1576	64.3504
1560	64.272
1544	64.2302
1528	64.1713
1512	64.3523
1496	64.3096
1480	64.2586
1464	64.2127
1448	64.0673
1432	64.1524
1416	64.0994
1400	64.2468
1384	64.0881
1368	64.1059
1352	64.0413
1336	64.0926
1320	64.208
1304	64.0447
1288	64.0418
1272	63.9109
1256	63.9137
1240	63.8288
1224	63.8315
1208	63.8414
1192	63.7643
1176	63.78
1160	63.5664
1144	63.7806
1128	63.7831
1112	63.9382
1096	63.973
1080	63.8586
1064	63.8542
1048	63.7038
1032	63.8046
1016	63.7311
1000	63.9943
984	 64.109
968	 63.821
952	 63.875
936	 63.7908
920	 63.8498
904	 64.086
888	 63.8042
872	 63.9276
856	 64.082
840	 63.7756
824	 64.0788
808	 63.8357
792	 63.8036
776	 63.796
760	 63.4939
744	 63.7345
728	 63.6538
712	 63.5857
696	 63.3
680	 63.2691
664	 63.1808
648	 63.4363
632	 63.196
616	 63.515
600	 63.4205
584	 63.6694
568	 63.1669
552	 63.5367
536	 63.7226
520	 63.6906
504	 62.762
488	 63.0448
472	 62.6859
456	 63.5117
440	 63.2154
424	 64.9543
408	 63.1672
392	 61.6243
376	 59.5087
370	 51.7392

File: BZ1503107-1_t56.asc
PE IR       SPECTRUM    SPECTRUM    ASCII       PEDS        1.60
  -1
BZ2163~1.ASC
17/04/07
17:50:29.00
17/04/07
17:50:55.00
tln
$BZ1503107-1_t0056$<tbV0>[13.0,0.0,8.0,0.0,27,1,0]
27.028
64

2002,4.07
MIRTGS : RIGHTBACK : INTERNAL 2
MIR : ON : INTERNAL 2
OPTKBR

0.200000
8
8.000000
FILLER
RATIO
SPECTRUM
UNLOCKED 256

DOUBLE
64
COMBINED
1
0
0

0.002000
RATIO

1
0
TRUE
51149
0
LEFT NOT FITTED RIGHT NOT FITTED 0
NONE
NONE
15600
12
4.427000
51148
TRUE
1 0 8 72 0 0 0 0

15798

#HDR
-1
-1
#GR
µM
%T
2.38419e-05
0.0
2.000000
0.002000
12515
8
74.1256
47.1955
#DATA
2.000000	 65.603
2.084000	 64.837
2.168000	 65.0095
2.252000	 68.5203
2.336000	 65.0822
2.420000	 65.0121
2.504000	 65.2526
2.588000	 65.2077
2.672000	 65.1947
2.756000	 65.0753
2.840000	 64.9076
2.924000	 65.1255
3.008000	 65.1995
3.092000	 65.009
3.176000	 65.0872
3.260000	 65.0939
3.344000	 65.0073
3.428000	 64.9651
3.512000	 65.0269
3.596000	 64.9184
3.680000	 64.9202
3.764000	 64.941
3.848000	 64.9166
3.932000	 64.9197
4.016000	 64.934
4.100000	 64.9059
4.184000	 64.9405
4.268000	 64.7754
4.352000	 64.8223
4.436000	 64.7961
4.520000	 64.7144
4.604000	 64.6943
4.688000	 64.6687
4.772000	 64.7397
4.856000	 64.7291
4.940000	 64.5773
5.024000	 64.6142
5.108000	 64.513
5.192000	 64.4877
5.276000	 64.4205
5.359999	 64.5421
5.444000	 64.5858
5.528000	 64.4637
5.612000	 64.4381
5.696000	 64.3428
5.780000	 64.2186
5.864000	 64.3137
5.948000	 64.2386
6.032000	 64.2967
6.116000	 64.1554
6.200000	 64.3109
6.284000	 64.1791
6.368000	 64.2606
6.452000	 64.2213
6.536000	 64.176
6.620000	 64.2767
6.704000	 64.3091
6.788000	 64.1233
6.872000	 64.2225
6.956000	 64.0878
7.040000	 64.1022
7.124000	 64.129
7.208000	 64.1168
7.292000	 63.9872
7.376000	 64.0399
7.460000	 64.1334
7.544000	 63.9989
7.628000	 64.0508
7.712000	 64.2389
7.796000	 64.0344
7.880000	 64.051
7.964000	 63.9156
8.048000	 63.9836
8.132000	 63.8142
8.216000	 63.872
8.300000	 63.9442
8.384000	 63.8543
8.468000	 63.8507
8.552000	 63.8957
8.635999	 63.6412
8.719999	 63.7465
8.804000	 63.8688
8.888000	 63.7706
8.972000	 63.5839
9.056000	 63.7135
9.140000	 63.7818
9.224000	 63.7839
9.308000	 63.5993
9.391999	 63.6194
9.475999	 63.8304
9.560000	 63.5839
9.644000	 63.6938
9.728000	 63.8343
9.812000	 63.8597
9.896000	 63.6098
9.980000	 63.8257
10.064	63.7327
10.148	63.7258
10.232	63.8592
10.316	63.8341
10.4	63.7393
10.484	63.6803
10.568	63.7979
10.652	63.6567
10.736	63.7303
10.82	63.7061
10.904	63.7821
10.988	63.9503
11.072	63.9346
11.156	63.7056
11.24	63.6852
11.324	63.8343
11.408	63.687
11.492	63.5416
11.576	63.4544
11.66	63.7403
11.744	63.6691
11.828	63.7508
11.912	63.8354
11.996	63.7067
12.08	63.821
12.164	63.7244
12.248	63.5146
12.332	63.6258
12.416	63.6116
12.5	63.698
12.584	63.7114
12.668	63.5243
12.752	63.3764
12.836	63.542
12.92	63.6471
13.004	63.6924
13.088	63.628
13.172	63.5008
13.256	63.387
13.34	63.1916
13.424	63.2517
13.508	63.4405
13.592	63.4189
13.676	63.3262
13.76	63.3582
13.844	63.4009
13.928	63.3793
14.012	63.4826
14.096	63.5325
14.18	63.3493
14.264	63.2663
14.348	63.4079
14.432	63.5508
14.516	63.6175
14.6	63.5148
14.684	63.4963
14.768	63.6571
14.852	63.5324
14.936	63.2907
15.02	63.2585
15.104	63.2747
15.188	63.3231
15.272	63.389
15.356	63.4428
15.44	63.4553
15.524	63.302
15.608	63.24
15.692	63.3969
15.776	63.354
15.86	63.0551
15.944	62.89
16.028	63.0417
16.112	63.36
16.196	63.4756
16.28	63.2277
16.364	62.9683
16.448	62.9913
16.532	63.1015
16.616	63.0537
16.7	62.9287
16.784	62.8892
16.868	62.9358
16.952	63.0573
17.036	63.3361
17.12	63.6843
17.204	63.7676
17.288	63.4692
17.372	63.0979
17.456	62.9346
17.54	62.9532
17.624	63.0832
17.708	63.3317
17.792	63.556
17.876	63.5456
17.96	63.4294
18.044	63.5865
18.128	64.0771
18.212	64.5368
18.296	64.7011
18.38	64.6979
18.464	64.6975
18.548	64.6243
18.632	64.3824
18.716	64.1419
18.8	64.1665
18.884	64.4448
18.968	64.6529
19.052	64.476
19.136	63.8883
19.22	63.1158
19.304	62.4318
19.388	62.0141
19.472	61.9315
19.556	62.1277
19.64	62.4246
19.724	62.6191
19.808	62.6309
19.892	62.5487
19.976	62.5246
20.06	62.6053
20.144	62.6934
20.228	62.6545
20.312	62.4497
20.396	62.1803
20.48	62.0124
20.564	62.0568
20.648	62.2867
20.732	62.573
20.816	62.8101
20.9	63.001
20.984	63.2264
21.068	63.519
21.152	63.7877
21.236	63.88
21.32	63.7364
21.404	63.4709
21.488	63.284
21.572	63.2861
21.656	63.4211
21.74	63.5314
21.824	63.4856
21.908	63.2757
21.992	62.9968
22.076	62.7608
22.16	62.6275
22.244	62.5799
22.328	62.5702
22.412	62.5592
22.496	62.53
22.58	62.4682
22.664	62.3461
22.748	62.1298
22.832	61.8096
22.916	61.416
23	61.0413
23.084	60.7902
23.168	60.7414
23.252	60.9111
23.336	61.2623
23.42	61.7355
23.504	62.2791
23.588	62.8429
23.672	63.3663
23.756	63.7827
23.84	64.0583
23.924	64.21
24.008	64.2955
24.092	64.3715
24.176	64.4316
24.26	64.3959
24.344	64.1181
24.428	63.4724
24.512	62.4439
24.596	61.1794
24.68	59.9449
24.764	59.0227
24.848	58.6031
24.932	58.7761
25.016	59.4944
25.1	60.5906
25.184	61.7691
25.268	62.704
25.352	63.1482
25.436	62.9732
25.52	62.2242
25.604	61.0755
25.688	59.7756
25.772	58.4864
25.856	57.1871
25.94	55.726
26.024	53.9343
26.108	51.7768
26.192	49.5452
26.276	47.795
26.36	47.201
26.444	48.1317
26.528	50.4266
26.612	53.3624
26.696	55.9679
26.78	57.3741
26.864	57.2883
26.948	56.1102
27.028	54.8006