Folder: Masteroppgave/Bakgrunnsmateriale/MATLAB/FTIR/ftir_data/subAa/Mapping_121 (part 35)

File: BZ1503107-1_t79.asc
PE IR       SPECTRUM    SPECTRUM    ASCII       PEDS        1.60
  -1
BZ2D6F~1.ASC
17/04/07
19:44:05.00
17/04/07
19:44:31.00
tln
$BZ1503107-1_t0079$<tbV0>[10.4,5.2,8.0,0.0,27,1,0]
27.028
64

2002,4.07
MIRTGS : RIGHTBACK : INTERNAL 2
MIR : ON : INTERNAL 2
OPTKBR

0.200000
8
8.000000
FILLER
RATIO
SPECTRUM
UNLOCKED 256

DOUBLE
64
COMBINED
1
0
0

0.002000
RATIO

1
0
TRUE
51149
0
LEFT NOT FITTED RIGHT NOT FITTED 0
NONE
NONE
15600
12
4.427000
51148
TRUE
1 0 8 72 0 0 0 0

15798

#HDR
-1
-1
#GR
µM
%T
2.38419e-05
0.0
2.000000
0.002000
12515
8
77.9144
45.3181
#DATA
2.000000	 64.5756
2.084000	 64.5474
2.168000	 65.1689
2.252000	 48.1809
2.336000	 64.6458
2.420000	 64.8204
2.504000	 64.8494
2.588000	 65.3288
2.672000	 65.1924
2.756000	 64.9207
2.840000	 65.1376
2.924000	 64.9388
3.008000	 65.1391
3.092000	 65.0013
3.176000	 64.9743
3.260000	 65.0047
3.344000	 64.977
3.428000	 64.8268
3.512000	 64.7283
3.596000	 64.9571
3.680000	 64.7427
3.764000	 64.8649
3.848000	 64.8793
3.932000	 64.7542
4.016000	 64.7227
4.100000	 64.745
4.184000	 64.6046
4.268000	 64.5262
4.352000	 64.5152
4.436000	 64.6476
4.520000	 64.571
4.604000	 64.4131
4.688000	 64.4147
4.772000	 64.4293
4.856000	 64.3926
4.940000	 64.3449
5.024000	 64.2983
5.108000	 64.485
5.192000	 64.3886
5.276000	 64.3845
5.359999	 64.2331
5.444000	 64.2025
5.528000	 64.2685
5.612000	 64.1362
5.696000	 64.1943
5.780000	 63.87
5.864000	 64.0082
5.948000	 64.0506
6.032000	 64.1007
6.116000	 64.0425
6.200000	 63.9869
6.284000	 63.8761
6.368000	 63.8408
6.452000	 63.9246
6.536000	 63.9114
6.620000	 63.9011
6.704000	 63.8265
6.788000	 63.9042
6.872000	 63.8444
6.956000	 63.7909
7.040000	 63.9704
7.124000	 63.6873
7.208000	 63.7078
7.292000	 63.6781
7.376000	 63.5745
7.460000	 63.8902
7.544000	 63.7209
7.628000	 63.7994
7.712000	 63.6105
7.796000	 63.5392
7.880000	 63.5499
7.964000	 63.6104
8.048000	 63.5299
8.132000	 63.5374
8.216000	 63.531
8.300000	 63.5734
8.384000	 63.5325
8.468000	 63.463
8.552000	 63.3022
8.635999	 63.4158
8.719999	 63.4535
8.804000	 63.4863
8.888000	 63.4133
8.972000	 63.4253
9.056000	 63.338
9.140000	 63.3002
9.224000	 63.432
9.308000	 63.395
9.391999	 63.3908
9.475999	 63.4177
9.560000	 63.5587
9.644000	 63.2694
9.728000	 63.372
9.812000	 63.3771
9.896000	 63.4015
9.980000	 63.3321
10.064	63.1735
10.148	63.499
10.232	63.669
10.316	63.4167
10.4	63.3522
10.484	63.3942
10.568	63.4421
10.652	63.3446
10.736	63.2608
10.82	63.2532
10.904	63.435
10.988	63.5041
11.072	63.4293
11.156	63.3833
11.24	63.4637
11.324	63.2625
11.408	63.3896
11.492	63.7491
11.576	63.6098
11.66	63.4119
11.744	63.2205
11.828	63.3725
11.912	63.4429
11.996	63.4327
12.08	63.1577
12.164	63.1112
12.248	63.1126
12.332	63.0391
12.416	63.0834
12.5	63.1578
12.584	63.0517
12.668	63.1177
12.752	63.2333
12.836	63.3424
12.92	63.3266
13.004	63.2317
13.088	63.1898
13.172	63.1604
13.256	63.1978
13.34	63.1891
13.424	63.1477
13.508	63.1514
13.592	63.2121
13.676	63.1155
13.76	62.7891
13.844	62.6241
13.928	62.7649
14.012	62.9491
14.096	62.9659
14.18	62.9093
14.264	62.8554
14.348	62.821
14.432	62.7927
14.516	62.7664
14.6	62.8365
14.684	63.0508
14.768	63.2029
14.852	63.053
14.936	62.686
15.02	62.4927
15.104	62.7133
15.188	62.937
15.272	62.7499
15.356	62.4156
15.44	62.3448
15.524	62.4818
15.608	62.5011
15.692	62.3884
15.776	62.3912
15.86	62.4499
15.944	62.322
16.028	62.1472
16.112	62.2761
16.196	62.7201
16.28	63.078
16.364	63.0269
16.448	62.8087
16.532	62.8696
16.616	63.1291
16.7	63.2104
16.784	63.0829
16.868	62.9108
16.952	62.7532
17.036	62.6641
17.12	62.6324
17.204	62.492
17.288	62.2315
17.372	62.014
17.456	61.8685
17.54	61.7858
17.624	61.9174
17.708	62.33
17.792	62.8197
17.876	63.1486
17.96	63.3109
18.044	63.3965
18.128	63.3982
18.212	63.2692
18.296	63.0063
18.38	62.5864
18.464	62.0373
18.548	61.5817
18.632	61.5103
18.716	61.8318
18.8	62.2093
18.884	62.3304
18.968	62.2552
19.052	62.3345
19.136	62.7777
19.22	63.4172
19.304	63.8731
19.388	63.9037
19.472	63.5536
19.556	63.0427
19.64	62.5929
19.724	62.3479
19.808	62.3487
19.892	62.4974
19.976	62.5949
20.06	62.4942
20.144	62.2193
20.228	61.9444
20.312	61.8503
20.396	62.0062
20.48	62.3547
20.564	62.777
20.648	63.1666
20.732	63.4522
20.816	63.5857
20.9	63.5338
20.984	63.2713
21.068	62.8118
21.152	62.23
21.236	61.6582
21.32	61.2452
21.404	61.0916
21.488	61.2066
21.572	61.5092
21.656	61.8723
21.74	62.1713
21.824	62.3192
21.908	62.2911
21.992	62.1346
22.076	61.9546
22.16	61.8692
22.244	61.9351
22.328	62.1174
22.412	62.3179
22.496	62.4447
22.58	62.4735
22.664	62.4432
22.748	62.415
22.832	62.412
22.916	62.4124
23	62.3726
23.084	62.2755
23.168	62.1709
23.252	62.147
23.336	62.2705
23.42	62.5481
23.504	62.915
23.588	63.2713
23.672	63.5459
23.756	63.7305
23.84	63.8505
23.924	63.9324
24.008	63.976
24.092	63.9572
24.176	63.8598
24.26	63.716
24.344	63.6033
24.428	63.5854
24.512	63.6632
24.596	63.7281
24.68	63.5801
24.764	63.016
24.848	61.9556
24.932	60.4873
25.016	58.8688
25.1	57.4453
25.184	56.5913
25.268	56.5435
25.352	57.3085
25.436	58.6785
25.52	60.2943
25.604	61.7783
25.688	62.8065
25.772	63.2292
25.856	63.0897
25.94	62.5201
26.024	61.67
26.108	60.6573
26.192	59.5049
26.276	58.2243
26.36	56.9122
26.444	55.7891
26.528	55.1651
26.612	55.4151
26.696	56.7557
26.78	59.0898
26.864	61.9281
26.948	64.4955
27.028	65.9215

File: BZ1503107-1_t79_cm-1.asc
PE IR       SPECTRUM    SPECTRUM    ASCII       PEDS        1.60
  -1
BZ61B6~1.ASC
17/04/07
19:44:05.00
17/04/07
19:44:05.00
tln
$BZ1503107-1_t0079$<tbV0>[10.4,5.2,8.0,0.0,27,1,0]
370
64

2002,4.07
MIRTGS : RIGHTBACK : INTERNAL 2
MIR : ON : INTERNAL 2
OPTKBR

0.200000
8
8.000000
FILLER
RATIO
SPECTRUM
UNLOCKED 256

DOUBLE
64
COMBINED
1
0
0

1.000000
RATIO

1
0
TRUE
51149
0
LEFT NOT FITTED RIGHT NOT FITTED 0
NONE
NONE
15600
12
4.427000
51148
TRUE
1 0 8 72 0 0 0 0

15798

#HDR
-1
-1
#GR
CM-1
%T
2.38419e-05
0.0
5000
-1.000000
4631
8
78.0642
44.3581
#DATA
5000	64.5756
4984	64.8185
4968	66.1514
4952	65.7946
4936	64.8518
4920	65.0268
4904	65.4627
4888	65.4398
4872	65.6778
4856	64.7565
4840	64.7921
4824	64.7084
4808	64.456
4792	64.8415
4776	64.63
4760	65.019
4744	64.6181
4728	64.8033
4712	64.9271
4696	64.938
4680	64.4608
4664	65.082
4648	64.701
4632	65.0667
4616	65.2458
4600	65.0913
4584	65.2873
4568	65.319
4552	65.0815
4536	65.4397
4520	65.5758
4504	65.6346
4488	65.422
4472	64.9927
4456	65.0592
4440	47.1077
4424	69.6206
4408	68.4638
4392	64.488
4376	65.4511
4360	65.7681
4344	65.4091
4328	64.9367
4312	65.0212
4296	64.9253
4280	64.6676
4264	64.9112
4248	64.87
4232	64.8891
4216	64.9717
4200	65.0215
4184	65.0021
4168	64.9901
4152	65.036
4136	64.8186
4120	65.0619
4104	64.8406
4088	64.9376
4072	64.8599
4056	64.962
4040	65.2005
4024	65.1719
4008	65.2722
3992	64.8468
3976	64.9972
3960	64.7737
3944	65.081
3928	64.8003
3912	65.0199
3896	64.9388
3880	64.858
3864	65.3288
3848	64.9375
3832	64.9012
3816	64.9648
3800	65.0398
3784	65.1484
3768	64.8818
3752	64.7775
3736	65.2145
3720	65.0067
3704	65.0878
3688	65.0344
3672	65.1244
3656	65.102
3640	65.1654
3624	64.9759
3608	65.1508
3592	65.1025
3576	64.9685
3560	64.9829
3544	65.0487
3528	65.0639
3512	65.0081
3496	65.0018
3480	65.1371
3464	64.9481
3448	65.0728
3432	64.969
3416	65.0058
3400	64.9658
3384	64.9785
3368	65.0307
3352	65.0062
3336	65.106
3320	65.1162
3304	65.0616
3288	64.8426
3272	64.8849
3256	64.805
3240	64.9172
3224	65.0343
3208	64.8304
3192	65.0093
3176	65.0085
3160	64.8033
3144	65.1152
3128	64.7835
3112	65.0829
3096	64.9701
3080	64.9163
3064	65.0533
3048	64.9606
3032	64.9816
3016	64.9755
3000	65.1188
2984	64.8095
2968	64.8408
2952	64.775
2936	64.8194
2920	64.8393
2904	64.7147
2888	64.7954
2872	64.784
2856	64.7347
2840	64.7573
2824	64.7871
2808	64.9514
2792	64.8557
2776	64.8792
2760	64.8837
2744	64.8609
2728	64.7763
2712	64.7993
2696	64.842
2680	64.9614
2664	64.7177
2648	64.849
2632	64.7781
2616	64.7426
2600	64.8863
2584	64.772
2568	64.7393
2552	64.5639
2536	64.7842
2520	64.7089
2504	64.6489
2488	64.7164
2472	64.7233
2456	64.6641
2440	64.7193
2424	64.7993
2408	64.5672
2392	64.6412
2376	64.5806
2360	64.5671
2344	64.5225
2328	64.7317
2312	64.64
2296	64.4968
2280	64.5728
2264	64.6234
2248	64.5037
2232	64.5759
2216	64.5421
2200	64.4607
2184	64.4924
2168	64.4109
2152	64.5092
2136	64.3841
2120	64.4353
2104	64.5295
2088	64.398
2072	64.3699
2056	64.3871
2040	64.4489
2024	64.3495
2008	64.4404
1992	64.2981
1976	64.3564
1960	64.5049
1944	64.3335
1928	64.4175
1912	64.2706
1896	64.3843
1880	64.3394
1864	64.2277
1848	64.3271
1832	64.1864
1816	64.1793
1800	64.1737
1784	64.1258
1768	64.3097
1752	64.1257
1736	63.8815
1720	64.0485
1704	64.0015
1688	64.0586
1672	64.044
1656	64.1048
1640	64.1204
1624	64.1193
1608	63.977
1592	63.8794
1576	63.7943
1560	63.7989
1544	63.9392
1528	63.8829
1512	63.9118
1496	63.8031
1480	63.9779
1464	63.765
1448	63.8084
1432	63.7837
1416	63.8702
1400	63.775
1384	63.7056
1368	63.6567
1352	63.6122
1336	63.8626
1320	63.7493
1304	63.7177
1288	63.6058
1272	63.5245
1256	63.6079
1240	63.5244
1224	63.5821
1208	63.5267
1192	63.5139
1176	63.3964
1160	63.4134
1144	63.4365
1128	63.4163
1112	63.4191
1096	63.2769
1080	63.3951
1064	63.3961
1048	63.5049
1032	63.2952
1016	63.4034
1000	63.2724
984	 63.5536
968	 63.4058
952	 63.4244
936	 63.2761
920	 63.3329
904	 63.4333
888	 63.4323
872	 63.6825
856	 63.3441
840	 63.4349
824	 63.1037
808	 63.0303
792	 63.0629
776	 63.3566
760	 63.1602
744	 63.1435
728	 62.8835
712	 62.9745
696	 62.8155
680	 63.1099
664	 62.5578
648	 62.338
632	 62.4368
616	 62.9208
600	 63.2112
584	 62.6299
568	 61.8626
552	 63.4055
536	 61.5742
520	 63.4932
504	 62.4006
488	 62.4122
472	 61.9852
456	 62.2595
440	 62.4196
424	 63.2595
408	 63.6609
392	 60.1079
376	 55.2821
370	 65.9215

File: BZ1503107-1_t80.asc
PE IR       SPECTRUM    SPECTRUM    ASCII       PEDS        1.60
  -1
BZ2945~1.ASC
17/04/07
19:48:42.00
17/04/07
19:49:09.00
tln
$BZ1503107-1_t0080$<tbV0>[7.8,5.2,8.0,0.0,27,1,0]
27.028
64

2002,4.07
MIRTGS : RIGHTBACK : INTERNAL 2
MIR : ON : INTERNAL 2
OPTKBR

0.200000
8
8.000000
FILLER
RATIO
SPECTRUM
UNLOCKED 256

DOUBLE
64
COMBINED
1
0
0

0.002000
RATIO

1
0
TRUE
51149
0
LEFT NOT FITTED RIGHT NOT FITTED 0
NONE
NONE
15600
12
4.427000
51148
TRUE
1 0 8 72 0 0 0 0

15798

#HDR
-1
-1
#GR
µM
%T
2.38419e-05
0.0
2.000000
0.002000
12515
8
77.6363
48.5214
#DATA
2.000000	 64.6998
2.084000	 64.5115
2.168000	 65.0561
2.252000	 55.0984
2.336000	 64.9519
2.420000	 64.8926
2.504000	 64.8708
2.588000	 65.0285
2.672000	 65.1487
2.756000	 65.083
2.840000	 65.0802
2.924000	 64.9484
3.008000	 64.7077
3.092000	 64.8319
3.176000	 64.8592
3.260000	 64.8369
3.344000	 64.8589
3.428000	 64.8342
3.512000	 64.7399
3.596000	 64.883
3.680000	 64.8278
3.764000	 64.6947
3.848000	 64.8318
3.932000	 64.7275
4.016000	 64.6593
4.100000	 64.5433
4.184000	 64.5497
4.268000	 64.5191
4.352000	 64.4894
4.436000	 64.4819
4.520000	 64.5175
4.604000	 64.4533
4.688000	 64.4586
4.772000	 64.3607
4.856000	 64.3466
4.940000	 64.3872
5.024000	 64.2909
5.108000	 64.3788
5.192000	 64.3202
5.276000	 64.1509
5.359999	 64.2095
5.444000	 64.3689
5.528000	 64.218
5.612000	 64.1262
5.696000	 64.1014
5.780000	 63.881
5.864000	 63.95
5.948000	 63.9586
6.032000	 63.9832
6.116000	 63.9398
6.200000	 64.0629
6.284000	 63.9276
6.368000	 63.9424
6.452000	 63.8363
6.536000	 63.8178
6.620000	 63.937
6.704000	 63.8717
6.788000	 63.6664
6.872000	 63.7789
6.956000	 63.7993
7.040000	 63.8109
7.124000	 63.6617
7.208000	 63.7293
7.292000	 63.7065
7.376000	 63.5929
7.460000	 63.6982
7.544000	 63.6653
7.628000	 63.5876
7.712000	 63.6635
7.796000	 63.4115
7.880000	 63.3018
7.964000	 63.5052
8.048000	 63.5287
8.132000	 63.4726
8.216000	 63.4176
8.300000	 63.479
8.384000	 63.3423
8.468000	 63.4622
8.552000	 63.4678
8.635999	 63.3243
8.719999	 63.4441
8.804000	 63.378
8.888000	 63.3584
8.972000	 63.5006
9.056000	 63.3067
9.140000	 63.2054
9.224000	 63.2456
9.308000	 63.1441
9.391999	 63.4278
9.475999	 63.4378
9.560000	 63.3231
9.644000	 63.1208
9.728000	 63.0264
9.812000	 63.2318
9.896000	 63.3899
9.980000	 63.3956
10.064	63.2693
10.148	63.2361
10.232	63.2891
10.316	63.238
10.4	63.3769
10.484	63.2651
10.568	63.1576
10.652	63.2632
10.736	63.1371
10.82	63.377
10.904	63.1907
10.988	63.2247
11.072	63.3294
11.156	63.2064
11.24	63.4369
11.324	63.4369
11.408	63.3299
11.492	63.3573
11.576	63.2146
11.66	63.1533
11.744	63.0848
11.828	63.1957
11.912	63.2774
11.996	63.233
12.08	63.2335
12.164	63.2882
12.248	63.174
12.332	63.0586
12.416	63.0238
12.5	63.0736
12.584	63.0029
12.668	63.0011
12.752	63.1262
12.836	63.2753
12.92	63.1662
13.004	63.0388
13.088	62.9925
13.172	62.9111
13.256	62.9334
13.34	62.9997
13.424	62.9688
13.508	62.8899
13.592	62.7687
13.676	62.6923
13.76	62.6783
13.844	62.7144
13.928	62.7532
14.012	62.7751
14.096	62.6656
14.18	62.437
14.264	62.3717
14.348	62.4477
14.432	62.7003
14.516	63.0493
14.6	63.0875
14.684	63.0225
14.768	63.0615
14.852	62.9558
14.936	62.7366
15.02	62.6387
15.104	62.7781
15.188	62.8513
15.272	62.6293
15.356	62.4248
15.44	62.3933
15.524	62.2684
15.608	62.0322
15.692	62.0454
15.776	62.3638
15.86	62.5769
15.944	62.3923
16.028	62.034
16.112	62.0339
16.196	62.6239
16.28	63.3628
16.364	63.6456
16.448	63.4351
16.532	63.1277
16.616	62.8242
16.7	62.36
16.784	61.9158
16.868	61.8215
16.952	61.9758
17.036	62.0927
17.12	62.1808
17.204	62.3334
17.288	62.469
17.372	62.5355
17.456	62.6527
17.54	62.9012
17.624	63.1713
17.708	63.3359
17.792	63.423
17.876	63.5051
17.96	63.5355
18.044	63.4137
18.128	63.1667
18.212	62.9598
18.296	62.8862
18.38	62.808
18.464	62.5189
18.548	62.0391
18.632	61.651
18.716	61.605
18.8	61.8732
18.884	62.2132
18.968	62.4228
19.052	62.4927
19.136	62.5309
19.22	62.6301
19.304	62.8005
19.388	62.9588
19.472	62.9476
19.556	62.6567
19.64	62.1475
19.724	61.6225
19.808	61.29
19.892	61.2726
19.976	61.5937
20.06	62.1846
20.144	62.8869
20.228	63.5013
20.312	63.8719
20.396	63.9556
20.48	63.8035
20.564	63.5004
20.648	63.1316
20.732	62.7928
20.816	62.5793
20.9	62.5358
20.984	62.6074
21.068	62.6672
21.152	62.6203
21.236	62.4829
21.32	62.3665
21.404	62.3726
21.488	62.5041
21.572	62.6645
21.656	62.7458
21.74	62.71
21.824	62.6105
21.908	62.5454
21.992	62.5749
22.076	62.6784
22.16	62.7673
22.244	62.726
22.328	62.4887
22.412	62.0797
22.496	61.6179
22.58	61.2496
22.664	61.0779
22.748	61.1072
22.832	61.2549
22.916	61.3999
23	61.4609
23.084	61.4334
23.168	61.3938
23.252	61.4447
23.336	61.6589
23.42	62.029
23.504	62.4697
23.588	62.8515
23.672	63.0609
23.756	63.0434
23.84	62.8288
23.924	62.5094
24.008	62.1824
24.092	61.9023
24.176	61.666
24.26	61.4299
24.344	61.1362
24.428	60.7561
24.512	60.3197
24.596	59.8944
24.68	59.5573
24.764	59.3594
24.848	59.3202
24.932	59.4016
25.016	59.5135
25.1	59.5752
25.184	59.4726
25.268	59.101
25.352	58.4143
25.436	57.4906
25.52	56.5097
25.604	55.6616
25.688	55.1359
25.772	55.0181
25.856	55.2295
25.94	55.5054
26.024	55.4927
26.108	54.9354
26.192	53.7373
26.276	52.05
26.36	50.3068
26.444	48.9947
26.528	48.5231
26.612	49.1403
26.696	50.9915
26.78	54.1149
26.864	58.4136
26.948	63.5811
27.028	68.7618

File: BZ1503107-1_t80_cm-1.asc
PE IR       SPECTRUM    SPECTRUM    ASCII       PEDS        1.60
  -1
BZ6826~1.ASC
17/04/07
19:48:42.00
17/04/07
19:48:42.00
tln
$BZ1503107-1_t0080$<tbV0>[7.8,5.2,8.0,0.0,27,1,0]
370
64

2002,4.07
MIRTGS : RIGHTBACK : INTERNAL 2
MIR : ON : INTERNAL 2
OPTKBR

0.200000
8
8.000000
FILLER
RATIO
SPECTRUM
UNLOCKED 256

DOUBLE
64
COMBINED
1
0
0

1.000000
RATIO

1
0
TRUE
51149
0
LEFT NOT FITTED RIGHT NOT FITTED 0
NONE
NONE
15600
12
4.427000
51148
TRUE
1 0 8 72 0 0 0 0

15798

#HDR
-1
-1
#GR
CM-1
%T
2.38419e-05
0.0
5000
-1.000000
4631
8
78.3276
48.5216
#DATA
5000	64.6998
4984	65.0223
4968	65.3149
4952	65.4158
4936	64.8948
4920	64.472
4904	64.5522
4888	64.9539
4872	65.4148
4856	64.978
4840	64.9804
4824	64.6358
4808	64.711
4792	64.5106
4776	64.7246
4760	64.8854
4744	64.5819
4728	64.9533
4712	64.7935
4696	64.588
4680	64.4979
4664	64.688
4648	64.967
4632	64.7784
4616	65.0047
4600	65.3975
4584	64.9883
4568	65.426
4552	65.1162
4536	65.193
4520	65.7182
4504	65.662
4488	66.041
4472	65.6809
4456	63.3574
4440	55.5245
4424	71.9345
4408	67.5833
4392	65.0482
4376	64.9149
4360	65.8776
4344	65.8414
4328	65.1231
4312	65.4166
4296	65.3022
4280	64.9741
4264	65.0275
4248	65.0057
4232	64.6203
4216	64.975
4200	64.9316
4184	64.8501
4168	64.9
4152	64.7885
4136	64.7109
4120	64.7506
4104	64.9597
4088	65.0082
4072	64.8799
4056	65.1394
4040	64.8965
4024	64.9783
4008	65.1605
3992	64.8945
3976	65.2153
3960	65.0302
3944	65.1359
3928	64.7906
3912	64.9924
3896	65.1104
3880	65.037
3864	65.0283
3848	64.886
3832	64.8755
3816	64.6868
3800	65.2109
3784	65.0702
3768	64.9544
3752	65.1285
3736	65.1857
3720	65.0544
3704	65.1205
3688	65.0318
3672	65.1761
3656	65.0568
3640	65.143
3624	65.007
3608	64.9709
3592	64.9728
3576	65.0481
3560	65.0603
3544	65.1535
3528	65.0699
3512	65.1674
3496	65.0626
3480	64.8974
3464	65.2115
3448	65.2661
3432	64.869
3416	64.962
3400	64.9852
3384	65.0662
3368	65.0717
3352	65.0374
3336	64.9662
3320	64.7677
3304	65.0031
3288	64.8102
3272	64.9496
3256	64.8325
3240	64.8171
3224	65.0206
3208	64.9643
3192	64.9939
3176	65.0498
3160	65.0046
3144	64.9589
3128	64.7547
3112	65.0839
3096	64.8189
3080	64.8362
3064	64.9406
3048	65.0415
3032	64.9543
3016	64.8348
3000	64.8308
2984	64.8488
2968	64.7254
2952	64.6537
2936	64.7211
2920	64.8208
2904	64.745
2888	64.8696
2872	64.8554
2856	64.7565
2840	64.8769
2824	64.7655
2808	65.0349
2792	64.8058
2776	64.8071
2760	64.898
2744	64.6901
2728	64.91
2712	64.6831
2696	64.8191
2680	64.8166
2664	64.754
2648	64.7962
2632	64.7786
2616	64.8144
2600	64.8443
2584	64.6024
2568	64.6608
2552	64.6203
2536	64.6801
2520	64.6716
2504	64.6694
2488	64.6873
2472	64.5868
2456	64.6194
2440	64.5461
2424	64.6916
2408	64.5863
2392	64.5631
2376	64.5811
2360	64.5678
2344	64.5077
2328	64.6471
2312	64.5382
2296	64.4769
2280	64.5416
2264	64.5979
2248	64.5626
2232	64.5679
2216	64.5079
2200	64.5899
2184	64.5645
2168	64.4593
2152	64.5675
2136	64.4639
2120	64.4214
2104	64.3897
2088	64.3526
2072	64.4025
2056	64.377
2040	64.3309
2024	64.3876
2008	64.3249
1992	64.285
1976	64.319
1960	64.4019
1944	64.2188
1928	64.327
1912	64.183
1896	64.1554
1880	64.2389
1864	64.2019
1848	64.2482
1832	64.3285
1816	64.1855
1800	64.2369
1784	64.1283
1768	64.2006
1752	63.9683
1736	63.8985
1720	63.9535
1704	63.9616
1688	63.9463
1672	63.9575
1656	64.0138
1640	63.993
1624	64.2232
1608	63.9361
1592	63.9239
1576	63.8486
1560	63.8052
1544	63.9322
1528	63.8283
1512	63.9471
1496	63.8354
1480	63.7764
1464	63.7071
1448	63.7561
1432	63.8954
1416	63.6986
1400	63.7149
1384	63.6642
1368	63.6851
1352	63.5508
1336	63.7576
1320	63.6686
1304	63.6879
1288	63.5188
1272	63.2501
1256	63.4948
1240	63.4965
1224	63.4918
1208	63.4801
1192	63.3195
1176	63.4275
1160	63.3323
1144	63.4478
1128	63.289
1112	63.4404
1096	63.2212
1080	63.226
1064	63.4298
1048	63.3556
1032	63.0407
1016	63.3201
1000	63.3603
984	 63.2417
968	 63.2624
952	 63.195
936	 63.1862
920	 63.2874
904	 63.3253
888	 63.4922
872	 63.3821
856	 63.1304
840	 63.2761
824	 63.2888
808	 63.0167
792	 62.9869
776	 63.2369
760	 62.9213
744	 62.9561
728	 62.677
712	 62.7573
696	 62.4857
680	 63.0317
664	 62.6848
648	 62.3957
632	 62.5247
616	 62.9802
600	 62.5625
584	 62.1855
568	 63.119
552	 63.204
536	 61.5964
520	 62.6486
504	 61.2421
488	 63.7683
472	 62.5696
456	 62.5431
440	 61.0845
424	 62.8402
408	 60.3312
392	 56.6199
376	 48.9263
370	 68.7618

File: BZ1503107-1_t81.asc
PE IR       SPECTRUM    SPECTRUM    ASCII       PEDS        1.60
  -1
BZ2D45~1.ASC
17/04/07
19:53:20.00
17/04/07
19:53:46.00
tln
$BZ1503107-1_t0081$<tbV0>[5.2,5.2,8.0,0.0,27,1,0]
27.028
64

2002,4.07
MIRTGS : RIGHTBACK : INTERNAL 2
MIR : ON : INTERNAL 2
OPTKBR

0.200000
8
8.000000
FILLER
RATIO
SPECTRUM
UNLOCKED 256

DOUBLE
64
COMBINED
1
0
0

0.002000
RATIO

1
0
TRUE
51149
0
LEFT NOT FITTED RIGHT NOT FITTED 0
NONE
NONE
15600
12
4.427000
51148
TRUE
1 0 8 72 0 0 0 0

15798

#HDR
-1
-1
#GR
µM
%T
2.38419e-05
0.0
2.000000
0.002000
12515
8
71.6566
48.3762
#DATA
2.000000	 66.1013
2.084000	 64.522
2.168000	 65.0189
2.252000	 52.5307
2.336000	 64.9244
2.420000	 64.8316
2.504000	 64.7677
2.588000	 65.0174
2.672000	 65.0553
2.756000	 64.852
2.840000	 65.0549
2.924000	 64.9399
3.008000	 64.8833
3.092000	 64.9063
3.176000	 65.0167
3.260000	 64.9987
3.344000	 64.9519
3.428000	 64.7089
3.512000	 64.6334
3.596000	 64.7648
3.680000	 64.768
3.764000	 64.6255
3.848000	 64.6362
3.932000	 64.6689
4.016000	 64.6374
4.100000	 64.5426
4.184000	 64.5628
4.268000	 64.4487
4.352000	 64.3757
4.436000	 64.4904
4.520000	 64.4821
4.604000	 64.2988
4.688000	 64.4796
4.772000	 64.4234
4.856000	 64.3097
4.940000	 64.3299
5.024000	 64.3037
5.108000	 64.2045
5.192000	 64.2025
5.276000	 64.109
5.359999	 64.1629
5.444000	 64.0635
5.528000	 64.1292
5.612000	 64.0604
5.696000	 63.9776
5.780000	 63.8693
5.864000	 63.8068
5.948000	 63.9347
6.032000	 63.8934
6.116000	 63.8357
6.200000	 63.7821
6.284000	 63.6937
6.368000	 63.6917
6.452000	 63.7913
6.536000	 63.7967
6.620000	 63.8018
6.704000	 63.6109
6.788000	 63.6676
6.872000	 63.6365
6.956000	 63.7426
7.040000	 63.7568
7.124000	 63.5761
7.208000	 63.6182
7.292000	 63.5912
7.376000	 63.4927
7.460000	 63.592
7.544000	 63.5854
7.628000	 63.5733
7.712000	 63.4631
7.796000	 63.485
7.880000	 63.4487
7.964000	 63.4649
8.048000	 63.3796
8.132000	 63.4783
8.216000	 63.2825
8.300000	 63.2898
8.384000	 63.4643
8.468000	 63.3385
8.552000	 63.2633
8.635999	 63.1744
8.719999	 63.4094
8.804000	 63.2933
8.888000	 63.2458
8.972000	 63.14
9.056000	 63.2038
9.140000	 63.1793
9.224000	 63.2557
9.308000	 63.2678
9.391999	 63.3536
9.475999	 63.2888
9.560000	 63.2877
9.644000	 63.2188
9.728000	 63.1212
9.812000	 63.0992
9.896000	 63.133
9.980000	 63.3256
10.064	63.2135
10.148	63.2317
10.232	63.3014
10.316	63.1251
10.4	63.2119
10.484	63.3397
10.568	63.3475
10.652	63.2148
10.736	63.1204
10.82	63.3013
10.904	63.3353
10.988	63.3081
11.072	63.3571
11.156	63.1132
11.24	63.1133
11.324	63.2067
11.408	63.1949
11.492	63.3267
11.576	63.0502
11.66	63.0556
11.744	63.0096
11.828	62.8793
11.912	63.1499
11.996	63.2765
12.08	63.3446
12.164	63.3563
12.248	63.0281
12.332	62.8975
12.416	63.0809
12.5	63.0072
12.584	62.7669
12.668	62.9551
12.752	63.0028
12.836	62.9381
12.92	62.9325
13.004	62.7568
13.088	62.6594
13.172	62.765
13.256	62.8843
13.34	62.893
13.424	62.8117
13.508	62.7975
13.592	62.8135
13.676	62.781
13.76	62.7519
13.844	62.7206
13.928	62.7664
14.012	62.8095
14.096	62.7507
14.18	62.7569
14.264	62.84
14.348	62.7194
14.432	62.5716
14.516	62.6812
14.6	62.9534
14.684	63.1662
14.768	63.1363
14.852	62.9797
14.936	62.7618
15.02	62.5405
15.104	62.6617
15.188	62.9067
15.272	62.8749
15.356	62.7893
15.44	62.8093
15.524	62.7115
15.608	62.3224
15.692	61.9106
15.776	61.9132
15.86	62.1969
15.944	62.3169
16.028	62.3105
16.112	62.4376
16.196	62.6215
16.28	62.6812
16.364	62.6702
16.448	62.707
16.532	62.7337
16.616	62.5873
16.7	62.2393
16.784	61.891
16.868	61.7859
16.952	61.9172
17.036	62.1109
17.12	62.2548
17.204	62.2823
17.288	62.2435
17.372	62.309
17.456	62.4946
17.54	62.5797
17.624	62.4411
17.708	62.3115
17.792	62.5054
17.876	62.9856
17.96	63.3824
18.044	63.4326
18.128	63.2363
18.212	63.0932
18.296	63.1867
18.38	63.468
18.464	63.7926
18.548	64.0435
18.632	64.1168
18.716	63.9328
18.8	63.5629
18.884	63.2355
18.968	63.1058
19.052	63.0362
19.136	62.7523
19.22	62.1825
19.304	61.5374
19.388	61.0583
19.472	60.7992
19.556	60.7074
19.64	60.7978
19.724	61.1434
19.808	61.6996
19.892	62.2515
19.976	62.5661
20.06	62.6057
20.144	62.5452
20.228	62.6124
20.312	62.9221
20.396	63.4325
20.48	63.9938
20.564	64.4481
20.648	64.7078
20.732	64.7757
20.816	64.6816
20.9	64.411
20.984	63.9113
21.068	63.1744
21.152	62.317
21.236	61.5609
21.32	61.1186
21.404	61.0641
21.488	61.3177
21.572	61.7214
21.656	62.1325
21.74	62.4556
21.824	62.6352
21.908	62.6377
21.992	62.4453
22.076	62.0774
22.16	61.6179
22.244	61.2062
22.328	60.9796
22.412	61.0093
22.496	61.2618
22.58	61.6169
22.664	61.9301
22.748	62.0912
22.832	62.0526
22.916	61.8168
23	61.4168
23.084	60.9044
23.168	60.38
23.252	59.9791
23.336	59.8383
23.42	60.032
23.504	60.5137
23.588	61.118
23.672	61.6409
23.756	61.9229
23.84	61.9415
23.924	61.8177
24.008	61.709
24.092	61.7066
24.176	61.8152
24.26	61.9594
24.344	62.0457
24.428	62.0231
24.512	61.8812
24.596	61.6163
24.68	61.2077
24.764	60.6197
24.848	59.8449
24.932	58.9006
25.016	57.8271
25.1	56.6875
25.184	55.4991
25.268	54.2525
25.352	52.9761
25.436	51.7954
25.52	50.9708
25.604	50.8446
25.688	51.7417
25.772	53.7873
25.856	56.8002
25.94	60.3121
26.024	63.6254
26.108	66.0096
26.192	67.03
26.276	66.6337
26.36	65.0845
26.444	62.9522
26.528	60.9283
26.612	59.578
26.696	59.2692
26.78	60.1007
26.864	62.0139
26.948	64.8562
27.028	68.1833