Folder: Masteroppgave/Bakgrunnsmateriale/MATLAB/FTIR/ftir_data/subAa/Mapping_121 (part 49)

File: BZ1503107-1_t114.asc
PE IR       SPECTRUM    SPECTRUM    ASCII       PEDS        1.60
  -1
BZDAB2~1.ASC
17/04/07
22:39:07.00
17/04/07
22:39:33.00
tln
$BZ1503107-1_t0114$<tbV0>[5.2,13.0,8.0,0.0,27,1,0]
27.028
64

2002,4.07
MIRTGS : RIGHTBACK : INTERNAL 2
MIR : ON : INTERNAL 2
OPTKBR

0.200000
8
8.000000
FILLER
RATIO
SPECTRUM
UNLOCKED 256

DOUBLE
64
COMBINED
1
0
0

0.002000
RATIO

1
0
TRUE
51149
0
LEFT NOT FITTED RIGHT NOT FITTED 0
NONE
NONE
15600
12
4.427000
51148
TRUE
1 0 8 72 0 0 0 0

15798

#HDR
-1
-1
#GR
µM
%T
2.38419e-05
0.0
2.000000
0.002000
12515
8
80.7338
51.9574
#DATA
2.000000	 65.7937
2.084000	 65.2976
2.168000	 65.0671
2.252000	 61.1222
2.336000	 64.9497
2.420000	 64.9143
2.504000	 64.9401
2.588000	 64.8824
2.672000	 64.8904
2.756000	 65.1073
2.840000	 64.9399
2.924000	 64.9855
3.008000	 64.7521
3.092000	 64.7888
3.176000	 64.9262
3.260000	 64.8507
3.344000	 64.8304
3.428000	 64.4688
3.512000	 64.6376
3.596000	 64.7079
3.680000	 64.5159
3.764000	 64.5802
3.848000	 64.5351
3.932000	 64.4034
4.016000	 64.437
4.100000	 64.3853
4.184000	 64.3768
4.268000	 64.3085
4.352000	 64.2177
4.436000	 64.2803
4.520000	 64.2267
4.604000	 64.2392
4.688000	 64.1998
4.772000	 64.08
4.856000	 64.1186
4.940000	 63.9569
5.024000	 63.8966
5.108000	 63.8516
5.192000	 63.9094
5.276000	 63.8215
5.359999	 63.863
5.444000	 63.7992
5.528000	 63.8107
5.612000	 63.782
5.696000	 63.6914
5.780000	 63.4312
5.864000	 63.6159
5.948000	 63.6119
6.032000	 63.6073
6.116000	 63.5176
6.200000	 63.4189
6.284000	 63.425
6.368000	 63.4078
6.452000	 63.3173
6.536000	 63.2459
6.620000	 63.446
6.704000	 63.4086
6.788000	 63.3136
6.872000	 63.1734
6.956000	 63.168
7.040000	 63.0831
7.124000	 63.1547
7.208000	 63.0687
7.292000	 62.9648
7.376000	 63.0819
7.460000	 63.0692
7.544000	 63.1438
7.628000	 62.9836
7.712000	 63.0539
7.796000	 62.9818
7.880000	 62.921
7.964000	 62.7957
8.048000	 62.7692
8.132000	 62.8034
8.216000	 62.8295
8.300000	 62.727
8.384000	 62.7252
8.468000	 62.7303
8.552000	 62.6449
8.635999	 62.7607
8.719999	 62.6045
8.804000	 62.7333
8.888000	 62.7466
8.972000	 62.6341
9.056000	 62.6676
9.140000	 62.6618
9.224000	 62.6411
9.308000	 62.58
9.391999	 62.7219
9.475999	 62.7276
9.560000	 62.8212
9.644000	 62.6154
9.728000	 62.6236
9.812000	 62.4722
9.896000	 62.6052
9.980000	 62.7049
10.064	62.4878
10.148	62.5507
10.232	62.5735
10.316	62.597
10.4	62.4627
10.484	62.4844
10.568	62.4878
10.652	62.564
10.736	62.6117
10.82	62.6396
10.904	62.7484
10.988	62.6065
11.072	62.5452
11.156	62.3947
11.24	62.5692
11.324	62.6784
11.408	62.4593
11.492	62.4619
11.576	62.4744
11.66	62.4724
11.744	62.6643
11.828	62.374
11.912	62.2667
11.996	62.4108
12.08	62.6018
12.164	62.4477
12.248	62.546
12.332	62.5088
12.416	62.343
12.5	62.3188
12.584	62.4328
12.668	62.4921
12.752	62.4017
12.836	62.1421
12.92	61.9373
13.004	62.0782
13.088	62.2178
13.172	62.2532
13.256	62.1608
13.34	62.1789
13.424	62.2471
13.508	62.104
13.592	62.1231
13.676	62.1618
13.76	62.1612
13.844	62.0281
13.928	61.9062
14.012	61.9616
14.096	61.9288
14.18	61.7267
14.264	61.602
14.348	61.6847
14.432	61.9457
14.516	62.1376
14.6	62.0119
14.684	61.9837
14.768	62.1599
14.852	62.247
14.936	62.2772
15.02	62.1237
15.104	61.6939
15.188	61.2217
15.272	61.0414
15.356	61.322
15.44	61.7252
15.524	61.8636
15.608	61.8306
15.692	61.8599
15.776	61.8012
15.86	61.2733
15.944	60.4279
16.028	60.1014
16.112	60.7039
16.196	61.5449
16.28	61.779
16.364	61.3953
16.448	60.9087
16.532	60.7887
16.616	61.1105
16.7	61.4783
16.784	61.5188
16.868	61.3061
16.952	61.1834
17.036	61.3296
17.12	61.5544
17.204	61.4896
17.288	61.0399
17.372	60.5486
17.456	60.4498
17.54	60.8337
17.624	61.3769
17.708	61.717
17.792	61.8014
17.876	61.8128
17.96	61.8452
18.044	61.8196
18.128	61.6731
18.212	61.5007
18.296	61.4592
18.38	61.5953
18.464	61.797
18.548	61.8874
18.632	61.746
18.716	61.4089
18.8	61.0444
18.884	60.7888
18.968	60.6394
19.052	60.5151
19.136	60.377
19.22	60.2623
19.304	60.2438
19.388	60.3713
19.472	60.6304
19.556	60.9221
19.64	61.1069
19.724	61.1202
19.808	61.0255
19.892	60.9378
19.976	60.9278
20.06	61.0041
20.144	61.1394
20.228	61.28
20.312	61.3643
20.396	61.3557
20.48	61.262
20.564	61.1268
20.648	61.0051
20.732	60.9321
20.816	60.9061
20.9	60.8992
20.984	60.886
21.068	60.856
21.152	60.8105
21.236	60.7476
21.32	60.6613
21.404	60.5566
21.488	60.4608
21.572	60.4076
21.656	60.3999
21.74	60.4029
21.824	60.3826
21.908	60.3512
21.992	60.3624
22.076	60.4589
22.16	60.616
22.244	60.7338
22.328	60.7108
22.412	60.5135
22.496	60.2097
22.58	59.9214
22.664	59.7546
22.748	59.7568
22.832	59.9231
22.916	60.2195
23	60.5963
23.084	60.9813
23.168	61.2705
23.252	61.3682
23.336	61.226
23.42	60.8845
23.504	60.4709
23.588	60.1442
23.672	60.0128
23.756	60.0827
23.84	60.2573
23.924	60.4012
24.008	60.4027
24.092	60.208
24.176	59.8411
24.26	59.3713
24.344	58.8804
24.428	58.4224
24.512	58.0093
24.596	57.6445
24.68	57.3665
24.764	57.2607
24.848	57.4138
24.932	57.8769
25.016	58.612
25.1	59.4766
25.184	60.2732
25.268	60.8555
25.352	61.1989
25.436	61.4853
25.52	62.0038
25.604	62.9696
25.688	64.4503
25.772	66.2861
25.856	68.153
25.94	69.6968
26.024	70.7002
26.108	71.2109
26.192	71.4671
26.276	71.7537
26.36	72.3046
26.444	73.0831
26.528	73.792
26.612	73.9797
26.696	73.3249
26.78	71.8633
26.864	70.0154
26.948	68.3491
27.028	67.2799

File: BZ1503107-1_t114_cm-1.asc
PE IR       SPECTRUM    SPECTRUM    ASCII       PEDS        1.60
  -1
BZ4C7A~1.ASC
17/04/07
22:39:07.00
17/04/07
22:39:07.00
tln
$BZ1503107-1_t0114$<tbV0>[5.2,13.0,8.0,0.0,27,1,0]
370
64

2002,4.07
MIRTGS : RIGHTBACK : INTERNAL 2
MIR : ON : INTERNAL 2
OPTKBR

0.200000
8
8.000000
FILLER
RATIO
SPECTRUM
UNLOCKED 256

DOUBLE
64
COMBINED
1
0
0

1.000000
RATIO

1
0
TRUE
51149
0
LEFT NOT FITTED RIGHT NOT FITTED 0
NONE
NONE
15600
12
4.427000
51148
TRUE
1 0 8 72 0 0 0 0

15798

#HDR
-1
-1
#GR
CM-1
%T
2.38419e-05
0.0
5000
-1.000000
4631
8
80.7654
51.8996
#DATA
5000	65.7937
4984	65.8027
4968	64.5096
4952	65.4645
4936	65.0979
4920	65.1439
4904	65.2015
4888	64.7249
4872	64.6089
4856	64.7701
4840	64.6011
4824	64.6513
4808	64.474
4792	65.1124
4776	64.5913
4760	65.1232
4744	64.8158
4728	65.0722
4712	64.936
4696	64.9351
4680	64.6745
4664	65.1723
4648	64.9351
4632	64.9736
4616	65.2642
4600	64.7532
4584	65.0379
4568	65.1901
4552	64.779
4536	64.9041
4520	64.5263
4504	64.5731
4488	64.6223
4472	64.8349
4456	66.3769
4440	60.5383
4424	76.811
4408	66.1927
4392	64.3488
4376	65.2694
4360	65.0869
4344	64.9958
4328	64.7647
4312	64.672
4296	64.7466
4280	64.9136
4264	64.754
4248	64.7994
4232	64.806
4216	65.1571
4200	65.1184
4184	65.1353
4168	65.0245
4152	64.9363
4136	64.8544
4120	64.9709
4104	65.183
4088	65.0217
4072	65.1855
4056	65.173
4040	65.0558
4024	64.8662
4008	64.9819
3992	64.9405
3976	64.9971
3960	64.7043
3944	65.0997
3928	64.8672
3912	64.8999
3896	65.0028
3880	65.2478
3864	64.8823
3848	65.0059
3832	65.1317
3816	64.9807
3800	65.3401
3784	65.0133
3768	65.0789
3752	64.8148
3736	64.8492
3720	65.019
3704	65.0349
3688	65.0626
3672	65.0593
3656	65.1299
3640	65.1205
3624	65.0473
3608	65.116
3592	64.8766
3576	65.0642
3560	64.9785
3544	64.9154
3528	64.757
3512	65.0066
3496	64.9341
3480	64.9956
3464	64.9435
3448	64.9156
3432	64.9884
3416	65.1074
3400	64.937
3384	64.8307
3368	64.8517
3352	65.0548
3336	64.8978
3320	64.8086
3304	64.751
3288	64.8316
3272	64.769
3256	64.92
3240	64.7157
3224	64.7493
3208	64.9502
3192	64.9302
3176	64.8031
3160	64.7842
3144	64.8928
3128	64.7308
3112	64.9446
3096	64.8804
3080	64.8147
3064	64.9156
3048	64.7899
3032	64.8571
3016	64.6677
3000	64.7817
2984	64.6968
2968	64.6854
2952	64.5623
2936	64.523
2920	64.469
2904	64.4267
2888	64.7517
2872	64.5828
2856	64.6481
2840	64.6244
2824	64.5755
2808	64.6674
2792	64.6316
2776	64.6902
2760	64.6639
2744	64.5777
2728	64.684
2712	64.5514
2696	64.507
2680	64.5801
2664	64.5462
2648	64.5761
2632	64.5347
2616	64.5621
2600	64.52
2584	64.349
2568	64.4334
2552	64.4424
2536	64.4304
2520	64.5502
2504	64.4422
2488	64.4033
2472	64.4454
2456	64.4026
2440	64.3897
2424	64.3132
2408	64.2884
2392	64.4021
2376	64.4129
2360	64.428
2344	64.3159
2328	64.4088
2312	64.2205
2296	64.2244
2280	64.2955
2264	64.358
2248	64.21
2232	64.2624
2216	64.2421
2200	64.2288
2184	64.2262
2168	64.1813
2152	64.1644
2136	64.2443
2120	64.2092
2104	64.0761
2088	64.1917
2072	64.0146
2056	64.113
2040	63.995
2024	63.9542
2008	63.9388
1992	63.9039
1976	63.8501
1960	63.8506
1944	63.9703
1928	63.9164
1912	63.8528
1896	63.8209
1880	63.86
1864	63.8684
1848	63.7308
1832	63.8886
1816	63.717
1800	63.7908
1784	63.7737
1768	63.6518
1752	63.6372
1736	63.4488
1720	63.5254
1704	63.6049
1688	63.6265
1672	63.6056
1656	63.5838
1640	63.4944
1624	63.4241
1608	63.3044
1592	63.4226
1576	63.3882
1560	63.3991
1544	63.2969
1528	63.2495
1512	63.4473
1496	63.4214
1480	63.277
1464	63.233
1448	63.2037
1432	63.2033
1416	63.1767
1400	63.1121
1384	63.0282
1368	62.9786
1352	63.1209
1336	63.0756
1320	63.0045
1304	62.8762
1288	62.9489
1272	62.9299
1256	62.7968
1240	62.7341
1224	62.7908
1208	62.8058
1192	62.7259
1176	62.729
1160	62.7584
1144	62.6952
1128	62.762
1112	62.6611
1096	62.6996
1080	62.6908
1064	62.7228
1048	62.7981
1032	62.6144
1016	62.4594
1000	62.6688
984	 62.5776
968	 62.5996
952	 62.5034
936	 62.5666
920	 62.6751
904	 62.5491
888	 62.6621
872	 62.4471
856	 62.5425
840	 62.2651
824	 62.4982
808	 62.4101
792	 62.482
776	 61.9785
760	 62.2548
744	 62.2246
728	 62.1684
712	 61.9739
696	 61.7329
680	 62.0249
664	 61.9421
648	 61.6958
632	 61.5769
616	 61.747
600	 61.3587
584	 61.5592
568	 61.2666
552	 61.6994
536	 61.6609
520	 60.2532
504	 60.9842
488	 61.2443
472	 60.7872
456	 60.3475
440	 59.7401
424	 60.153
408	 58.0195
392	 61.9221
376	 74.0081
370	 67.2799

File: BZ1503107-1_t115.asc
PE IR       SPECTRUM    SPECTRUM    ASCII       PEDS        1.60
  -1
BZDAB6~1.ASC
17/04/07
22:43:44.00
17/04/07
22:44:10.00
tln
$BZ1503107-1_t0115$<tbV0>[2.6,13.0,8.0,0.0,27,1,0]
27.028
64

2002,4.07
MIRTGS : RIGHTBACK : INTERNAL 2
MIR : ON : INTERNAL 2
OPTKBR

0.200000
8
8.000000
FILLER
RATIO
SPECTRUM
UNLOCKED 256

DOUBLE
64
COMBINED
1
0
0

0.002000
RATIO

1
0
TRUE
51149
0
LEFT NOT FITTED RIGHT NOT FITTED 0
NONE
NONE
15600
12
4.427000
51148
TRUE
1 0 8 72 0 0 0 0

15798

#HDR
-1
-1
#GR
µM
%T
2.38419e-05
0.0
2.000000
0.002000
12515
8
67.9772
40.6172
#DATA
2.000000	 65.9962
2.084000	 65.1463
2.168000	 65.5987
2.252000	 62.2912
2.336000	 65.8501
2.420000	 65.1539
2.504000	 65.1776
2.588000	 65.5255
2.672000	 65.2982
2.756000	 65.448
2.840000	 64.9389
2.924000	 65.1914
3.008000	 65.1778
3.092000	 65.0805
3.176000	 64.9231
3.260000	 64.9209
3.344000	 64.9775
3.428000	 64.4948
3.512000	 64.722
3.596000	 64.7331
3.680000	 64.7579
3.764000	 64.6472
3.848000	 64.7332
3.932000	 64.6972
4.016000	 64.5648
4.100000	 64.5684
4.184000	 64.4758
4.268000	 64.4051
4.352000	 64.3
4.436000	 64.197
4.520000	 64.4088
4.604000	 64.2267
4.688000	 64.2703
4.772000	 64.1444
4.856000	 64.0755
4.940000	 64.025
5.024000	 63.9511
5.108000	 63.9337
5.192000	 63.9817
5.276000	 63.8504
5.359999	 63.8375
5.444000	 63.8223
5.528000	 63.9499
5.612000	 63.7541
5.696000	 63.6427
5.780000	 62.914
5.864000	 63.5881
5.948000	 63.625
6.032000	 63.5577
6.116000	 63.5631
6.200000	 63.2692
6.284000	 63.4303
6.368000	 63.4306
6.452000	 63.4357
6.536000	 63.3318
6.620000	 63.3877
6.704000	 63.5216
6.788000	 63.227
6.872000	 63.2366
6.956000	 63.1127
7.040000	 63.2078
7.124000	 63.1139
7.208000	 63.0132
7.292000	 63.0448
7.376000	 63.0727
7.460000	 63.0258
7.544000	 63.0565
7.628000	 63.0766
7.712000	 63.0289
7.796000	 62.8112
7.880000	 62.7767
7.964000	 62.6298
8.048000	 62.6926
8.132000	 62.7374
8.216000	 62.7391
8.300000	 62.7316
8.384000	 62.7272
8.468000	 62.5244
8.552000	 62.2913
8.635999	 62.4479
8.719999	 62.5774
8.804000	 62.5777
8.888000	 62.6568
8.972000	 62.5542
9.056000	 62.4848
9.140000	 62.5978
9.224000	 62.4676
9.308000	 62.5675
9.391999	 62.5993
9.475999	 62.4237
9.560000	 62.4931
9.644000	 62.4149
9.728000	 62.3841
9.812000	 62.3645
9.896000	 62.4943
9.980000	 62.4474
10.064	62.5265
10.148	62.5076
10.232	62.6239
10.316	62.3797
10.4	62.4046
10.484	62.5537
10.568	62.4561
10.652	62.365
10.736	62.3014
10.82	62.4593
10.904	62.4547
10.988	62.5636
11.072	62.5762
11.156	62.4689
11.24	62.2142
11.324	62.3079
11.408	62.5156
11.492	62.4096
11.576	62.2696
11.66	62.2569
11.744	62.2754
11.828	62.3731
11.912	62.2752
11.996	62.343
12.08	62.5044
12.164	62.4687
12.248	62.4021
12.332	62.4437
12.416	62.3334
12.5	62.401
12.584	62.3837
12.668	62.083
12.752	62.0636
12.836	62.0703
12.92	62.042
13.004	62.1268
13.088	62.0491
13.172	61.9264
13.256	61.8809
13.34	61.9733
13.424	62.0071
13.508	61.894
13.592	61.9503
13.676	62.0336
13.76	62.117
13.844	62.1781
13.928	62.0954
14.012	61.9256
14.096	61.7526
14.18	61.5063
14.264	61.4685
14.348	61.7517
14.432	62.1472
14.516	62.3499
14.6	62.1868
14.684	62.0283
14.768	61.989
14.852	61.9573
14.936	61.9596
15.02	61.8455
15.104	61.6373
15.188	61.6014
15.272	61.7659
15.356	61.9189
15.44	61.9364
15.524	61.8426
15.608	61.6316
15.692	61.3531
15.776	61.2029
15.86	61.2027
15.944	61.1789
16.028	61.1146
16.112	61.0611
16.196	61.0681
16.28	61.2948
16.364	61.631
16.448	61.6539
16.532	61.4172
16.616	61.44
16.7	61.8332
16.784	62.1626
16.868	62.0314
16.952	61.5652
17.036	61.2551
17.12	61.3343
17.204	61.4984
17.288	61.36
17.372	60.953
17.456	60.6732
17.54	60.8384
17.624	61.314
17.708	61.6962
17.792	61.796
17.876	61.7499
17.96	61.6962
18.044	61.6132
18.128	61.4712
18.212	61.3494
18.296	61.3518
18.38	61.5257
18.464	61.8189
18.548	62.0583
18.632	62.0242
18.716	61.647
18.8	61.1051
18.884	60.6748
18.968	60.4846
19.052	60.4532
19.136	60.466
19.22	60.5328
19.304	60.7551
19.388	61.1486
19.472	61.5698
19.556	61.8316
19.64	61.8661
19.724	61.7495
19.808	61.5934
19.892	61.4516
19.976	61.3248
20.06	61.2109
20.144	61.1173
20.228	61.0337
20.312	60.9311
20.396	60.7939
20.48	60.6396
20.564	60.4986
20.648	60.3896
20.732	60.3106
20.816	60.2527
20.9	60.2058
20.984	60.1666
21.068	60.1367
21.152	60.1364
21.236	60.2101
21.32	60.408
21.404	60.7459
21.488	61.1726
21.572	61.5826
21.656	61.8628
21.74	61.9578
21.824	61.9041
21.908	61.802
21.992	61.7322
22.076	61.692
22.16	61.5986
22.244	61.3673
22.328	60.9908
22.412	60.5526
22.496	60.1788
22.58	59.9563
22.664	59.8985
22.748	59.948
22.832	60.0388
22.916	60.1359
23	60.2457
23.084	60.3847
23.168	60.5481
23.252	60.6954
23.336	60.7617
23.42	60.6845
23.504	60.4442
23.588	60.085
23.672	59.6876
23.756	59.327
23.84	59.0328
23.924	58.7716
24.008	58.4819
24.092	58.1328
24.176	57.7676
24.26	57.5012
24.344	57.4665
24.428	57.7221
24.512	58.2071
24.596	58.772
24.68	59.2615
24.764	59.6021
24.848	59.8355
24.932	60.1067
25.016	60.5513
25.1	61.1439
25.184	61.712
25.268	62.0006
25.352	61.7738
25.436	60.9593
25.52	59.7193
25.604	58.3656
25.688	57.2577
25.772	56.6346
25.856	56.526
25.94	56.7498
26.024	57.0463
26.108	57.2509
26.192	57.3699
26.276	57.5454
26.36	57.9742
26.444	58.7392
26.528	59.656
26.612	60.2756
26.696	59.9196
26.78	57.9085
26.864	53.8203
26.948	47.7056
27.028	40.6172

File: BZ1503107-1_t115_cm-1.asc
PE IR       SPECTRUM    SPECTRUM    ASCII       PEDS        1.60
  -1
BZ4CFB~1.ASC
17/04/07
22:43:44.00
17/04/07
22:43:44.00
tln
$BZ1503107-1_t0115$<tbV0>[2.6,13.0,8.0,0.0,27,1,0]
370
64

2002,4.07
MIRTGS : RIGHTBACK : INTERNAL 2
MIR : ON : INTERNAL 2
OPTKBR

0.200000
8
8.000000
FILLER
RATIO
SPECTRUM
UNLOCKED 256

DOUBLE
64
COMBINED
1
0
0

1.000000
RATIO

1
0
TRUE
51149
0
LEFT NOT FITTED RIGHT NOT FITTED 0
NONE
NONE
15600
12
4.427000
51148
TRUE
1 0 8 72 0 0 0 0

15798

#HDR
-1
-1
#GR
CM-1
%T
2.38419e-05
0.0
5000
-1.000000
4631
8
68.0158
40.6172
#DATA
5000	65.9962
4984	66.2849
4968	65.1817
4952	66.0407
4936	65.4359
4920	65.6252
4904	65.4541
4888	65.1892
4872	64.7382
4856	65.4882
4840	65.3574
4824	64.9557
4808	64.6529
4792	65.2975
4776	64.8232
4760	65.1877
4744	64.9113
4728	65.2024
4712	64.8001
4696	64.776
4680	65.0848
4664	65.0779
4648	65.2985
4632	65.2811
4616	65.5356
4600	65.5668
4584	65.5575
4568	65.8415
4552	66.1681
4536	65.8876
4520	65.9559
4504	66.3451
4488	66.1556
4472	66.5674
4456	67.5636
4440	61.5859
4424	51.0751
4408	67.7155
4392	66.2567
4376	66.5813
4360	66.197
4344	65.9383
4328	66.3042
4312	65.8678
4296	65.6028
4280	65.8511
4264	65.5482
4248	65.502
4232	65.4737
4216	65.2805
4200	65.4309
4184	64.9754
4168	65.0917
4152	65.0763
4136	65.0002
4120	65.1241
4104	65.0615
4088	65.0835
4072	65.0906
4056	65.2112
4040	64.9801
4024	64.8526
4008	65.0501
3992	65.1872
3976	65.2504
3960	65.3268
3944	65.6079
3928	65.7068
3912	65.3602
3896	65.2842
3880	65.5315
3864	65.5252
3848	65.303
3832	65.585
3816	65.2171
3800	65.3778
3784	65.0826
3768	65.436
3752	65.2512
3736	65.2317
3720	65.2578
3704	65.1866
3688	65.1992
3672	65.3308
3656	65.2251
3640	65.1853
3624	65.3234
3608	65.2174
3592	65.1254
3576	65.0845
3560	65.3477
3544	65.2093
3528	64.9503
3512	65.1138
3496	65.1112
3480	65.1562
3464	65.1811
3448	65.2739
3432	65.3713
3416	65.1875
3400	65.0772
3384	65.1058
3368	65.2631
3352	65.1902
3336	65.1102
3320	65.1717
3304	64.9568
3288	64.9297
3272	65.1436
3256	65.0112
3240	65.1046
3224	64.9026
3208	65.0094
3192	65.0501
3176	64.8985
3160	65.0914
3144	64.9322
3128	64.8199
3112	64.8305
3096	64.9699
3080	64.9736
3064	65.0077
3048	64.9305
3032	65.0905
3016	64.9195
3000	64.87
2984	64.7655
2968	64.589
2952	64.4966
2936	64.6572
2920	64.4906
2904	64.6539
2888	64.9341
2872	64.6626
2856	64.7012
2840	64.7766
2824	64.7038
2808	64.881
2792	64.6803
2776	64.768
2760	64.7432
2744	64.6904
2728	64.7732
2712	64.7483
2696	64.7543
2680	64.6753
2664	64.7318
2648	64.7356
2632	64.6312
2616	64.6625
2600	64.7243
2584	64.5969
2568	64.5926
2552	64.6502
2536	64.5198
2520	64.5593
2504	64.6358
2488	64.59
2472	64.66
2456	64.5493
2440	64.5587
2424	64.4306
2408	64.3651
2392	64.4787
2376	64.448
2360	64.4096
2344	64.3938
2328	64.4026
2312	64.3094
2296	64.3052
2280	64.465
2264	64.3071
2248	64.3148
2232	64.1544
2216	64.4107
2200	64.2991
2184	64.3082
2168	64.2165
2152	64.2859
2136	64.2915
2120	64.2689
2104	64.2141
2088	64.1651
2072	64.2058
2056	64.1033
2040	64.043
2024	64.0237
2008	63.981
1992	63.9771
1976	63.9168
1960	63.9471
1944	63.9198
1928	64.0172
1912	63.8561
1896	63.8557
1880	63.8299
1864	63.8418
1848	63.8502
1832	63.7909
1816	63.8767
1800	63.8067
1784	63.7257
1768	63.7359
1752	63.5402
1736	62.8855
1720	63.2836
1704	63.5894
1688	63.7128
1672	63.6245
1656	63.5407
1640	63.5456
1624	63.3759
1608	63.3492
1592	63.4223
1576	63.3906
1560	63.3502
1544	63.408
1528	63.329
1512	63.412
1496	63.5741
1480	63.2967
1464	63.0723
1448	63.0802
1432	63.139
1416	63.2129
1400	63.1195
1384	63.0151
1368	63.0434
1352	63.0968
1336	63.0323
1320	63.0762
1304	62.9965
1288	62.8386
1272	62.825
1256	62.6294
1240	62.6989
1224	62.6569
1208	62.7993
1192	62.7318
1176	62.4042
1160	62.4641
1144	62.6039
1128	62.638
1112	62.5081
1096	62.6047
1080	62.6006
1064	62.6011
1048	62.4408
1032	62.3767
1016	62.3335
1000	62.4428
984	 62.5475
968	 62.3642
952	 62.5397
936	 62.3121
920	 62.4711
904	 62.5747
888	 62.2058
872	 62.4572
856	 62.2485
840	 62.2795
824	 62.5104
808	 62.3893
792	 62.2287
776	 62.0334
760	 61.941
744	 61.9832
728	 62.0912
712	 61.8649
696	 61.8433
680	 62.0144
664	 61.7407
648	 61.9401
632	 61.196
616	 61.1368
600	 61.6541
584	 61.342
568	 61.2044
552	 61.493
536	 61.9454
520	 60.5508
504	 61.5347
488	 60.6184
472	 60.1545
456	 61.7788
440	 59.9298
424	 60.0993
408	 58.1929
392	 59.8746
376	 60.2161
370	 40.6172

File: BZ1503107-1_t116.asc
PE IR       SPECTRUM    SPECTRUM    ASCII       PEDS        1.60
  -1
BZEABA~1.ASC
17/04/07
22:48:22.00
17/04/07
22:48:48.00
tln
$BZ1503107-1_t0116$<tbV0>[0.0,13.0,8.0,0.0,27,1,0]
27.028
64

2002,4.07
MIRTGS : RIGHTBACK : INTERNAL 2
MIR : ON : INTERNAL 2
OPTKBR

0.200000
8
8.000000
FILLER
RATIO
SPECTRUM
UNLOCKED 256

DOUBLE
64
COMBINED
1
0
0

0.002000
RATIO

1
0
TRUE
51149
0
LEFT NOT FITTED RIGHT NOT FITTED 0
NONE
NONE
15600
12
4.427000
51148
TRUE
1 0 8 72 0 0 0 0

15798

#HDR
-1
-1
#GR
µM
%T
2.38419e-05
0.0
2.000000
0.002000
12515
8
71.4729
34.7091
#DATA
2.000000	 65.8665
2.084000	 66.164
2.168000	 65.9236
2.252000	 62.9949
2.336000	 65.9176
2.420000	 65.5498
2.504000	 65.7025
2.588000	 65.6766
2.672000	 65.6711
2.756000	 65.6404
2.840000	 65.4992
2.924000	 65.2791
3.008000	 65.3693
3.092000	 65.1435
3.176000	 65.1321
3.260000	 65.0991
3.344000	 64.9811
3.428000	 64.7275
3.512000	 64.886
3.596000	 64.9202
3.680000	 65.0144
3.764000	 64.923
3.848000	 64.67
3.932000	 64.7028
4.016000	 64.6245
4.100000	 64.8324
4.184000	 64.5649
4.268000	 64.5156
4.352000	 64.5661
4.436000	 64.4648
4.520000	 64.4542
4.604000	 64.3227
4.688000	 64.2969
4.772000	 64.169
4.856000	 64.1743
4.940000	 64.0603
5.024000	 64.0476
5.108000	 63.9968
5.192000	 63.9732
5.276000	 63.9574
5.359999	 63.9681
5.444000	 63.8025
5.528000	 63.875
5.612000	 63.8277
5.696000	 63.4393
5.780000	 61.9984
5.864000	 63.4374
5.948000	 63.6457
6.032000	 63.5175
6.116000	 63.5359
6.200000	 63.4864
6.284000	 63.3343
6.368000	 63.4341
6.452000	 63.3757
6.536000	 63.2944
6.620000	 63.351
6.704000	 63.2715
6.788000	 63.1687
6.872000	 63.1189
6.956000	 63.0938
7.040000	 63.1586
7.124000	 63.092
7.208000	 62.8391
7.292000	 62.9571
7.376000	 63.0379
7.460000	 62.9984
7.544000	 62.9797
7.628000	 63.0242
7.712000	 62.8685
7.796000	 62.7593
7.880000	 62.5449
7.964000	 62.3949
8.048000	 62.3798
8.132000	 62.2834
8.216000	 62.4948
8.300000	 62.5536
8.384000	 62.3998
8.468000	 62.2446
8.552000	 61.9374
8.635999	 62.0084
8.719999	 62.3832
8.804000	 62.7538
8.888000	 62.3966
8.972000	 62.2625
9.056000	 62.4808
9.140000	 62.3471
9.224000	 62.1753
9.308000	 62.2222
9.391999	 62.4283
9.475999	 62.4189
9.560000	 62.2891
9.644000	 62.2843
9.728000	 62.3662
9.812000	 62.4627
9.896000	 62.4974
9.980000	 62.4442
10.064	62.4147
10.148	62.4241
10.232	62.3309
10.316	62.398
10.4	62.3828
10.484	62.3317
10.568	62.4174
10.652	62.2515
10.736	62.3264
10.82	62.559
10.904	62.6828
10.988	62.5285
11.072	62.4001
11.156	62.3926
11.24	62.3421
11.324	62.5094
11.408	62.2981
11.492	62.2158
11.576	62.2335
11.66	62.2932
11.744	62.5372
11.828	62.438
11.912	62.3282
11.996	62.3321
12.08	62.2259
12.164	62.1904
12.248	62.3654
12.332	62.3755
12.416	62.2779
12.5	62.2897
12.584	62.1909
12.668	62.0121
12.752	61.9994
12.836	61.973
12.92	61.906
13.004	61.7663
13.088	61.7236
13.172	61.8498
13.256	61.8773
13.34	61.756
13.424	61.7469
13.508	61.9268
13.592	62.022
13.676	61.9073
13.76	61.8026
13.844	61.7749
13.928	61.7213
14.012	61.618
14.096	61.4966
14.18	61.571
14.264	61.8544
14.348	62.0735
14.432	62.1844
14.516	62.1785
14.6	61.9763
14.684	61.6398
14.768	61.2949
14.852	61.1732
14.936	61.4366
15.02	61.7778
15.104	61.5778
15.188	60.868
15.272	60.387
15.356	60.3978
15.44	60.6274
15.524	60.9654
15.608	61.358
15.692	61.6466
15.776	61.8075
15.86	61.9428
15.944	61.8735
16.028	61.3892
16.112	60.8769
16.196	60.911
16.28	61.4673
16.364	62.0758
16.448	62.3449
16.532	62.2442
16.616	62.0733
16.7	62.0649
16.784	62.1189
16.868	62.0309
16.952	61.7569
17.036	61.4232
17.12	61.2634
17.204	61.4336
17.288	61.7493
17.372	61.8121
17.456	61.5835
17.54	61.5231
17.624	61.8815
17.708	62.2472
17.792	62.1201
17.876	61.5831
17.96	61.0868
18.044	60.8663
18.128	60.8839
18.212	61.0762
18.296	61.4036
18.38	61.7955
18.464	62.1294
18.548	62.2697
18.632	62.1279
18.716	61.7441
18.8	61.2853
18.884	60.9227
18.968	60.7135
19.052	60.6151
19.136	60.5777
19.22	60.5875
19.304	60.6583
19.388	60.7883
19.472	60.9367
19.556	61.0321
19.64	61.012
19.724	60.8705
19.808	60.6733
19.892	60.5244
19.976	60.4993
20.06	60.5961
20.144	60.7348
20.228	60.8123
20.312	60.7892
20.396	60.716
20.48	60.6799
20.564	60.7178
20.648	60.7907
20.732	60.8235
20.816	60.757
20.9	60.5831
20.984	60.3457
21.068	60.1315
21.152	60.0468
21.236	60.1632
21.32	60.4475
21.404	60.747
21.488	60.8699
21.572	60.7039
21.656	60.2722
21.74	59.7158
21.824	59.229
21.908	58.9766
21.992	59.0302
22.076	59.3448
22.16	59.7767
22.244	60.1606
22.328	60.3868
22.412	60.4348
22.496	60.3688
22.58	60.2775
22.664	60.2248
22.748	60.2263
22.832	60.2694
22.916	60.3516
23	60.49
23.084	60.71
23.168	61.0011
23.252	61.2855
23.336	61.4289
23.42	61.3148
23.504	60.8976
23.588	60.2554
23.672	59.5597
23.756	59.0085
23.84	58.7256
23.924	58.7228
24.008	58.8974
24.092	59.0837
24.176	59.1662
24.26	59.1564
24.344	59.1953
24.428	59.4621
24.512	60.0866
24.596	61.0207
24.68	62.0417
24.764	62.8418
24.848	63.1307
24.932	62.7233
25.016	61.6346
25.1	60.0359
25.184	58.2487
25.268	56.6672
25.352	55.6773
25.436	55.588
25.52	56.5315
25.604	58.4507
25.688	61.1208
25.772	64.1673
25.856	67.1343
25.94	69.5699
26.024	71.0869
26.108	71.4473
26.192	70.5747
26.276	68.5073
26.36	65.4092
26.444	61.4875
26.528	56.972
26.612	52.1266
26.696	47.2491
26.78	42.6634
26.864	38.744
26.948	35.9252
27.028	34.7091