Folder: Masteroppgave/Bakgrunnsmateriale/MATLAB/FTIR/ftir_data/subAa/Mapping_121 (part 8)

File: BZ1503107-1_t11_cm-1.asc
PE IR       SPECTRUM    SPECTRUM    ASCII       PEDS        1.60
  -1
BZ69A1~1.ASC
17/04/07
14:06:39.00
17/04/07
14:06:39.00
tln
$BZ1503107-1_t0011$<tbV0>[-13.0,-13.0,8.0,0.0,27,1,0]
370
64

2002,4.07
MIRTGS : RIGHTBACK : INTERNAL 2
MIR : ON : INTERNAL 2
OPTKBR

0.200000
8
8.000000
FILLER
RATIO
SPECTRUM
UNLOCKED 256

DOUBLE
64
COMBINED
1
0
0

1.000000
RATIO

1
0
TRUE
51149
0
LEFT NOT FITTED RIGHT NOT FITTED 0
NONE
NONE
15600
12
4.427000
51148
TRUE
1 0 8 72 0 0 0 0

15798

#HDR
-1
-1
#GR
CM-1
%T
2.38419e-05
0.0
5000
-1.000000
4631
8
92.8159
61.6125
#DATA
5000	65.1273
4984	63.7483
4968	65.5776
4952	63.0722
4936	65.6505
4920	63.7452
4904	64.7923
4888	65.3887
4872	64.8174
4856	65.1423
4840	65.6551
4824	64.688
4808	65.3025
4792	65.7115
4776	65.1426
4760	65.6053
4744	64.9213
4728	64.8693
4712	65.0081
4696	64.9322
4680	64.9899
4664	64.8933
4648	64.8218
4632	64.3972
4616	64.421
4600	64.3481
4584	64.1911
4568	64.0458
4552	63.4851
4536	64.1063
4520	63.4646
4504	63.8207
4488	67.8017
4472	63.3844
4456	63.4249
4440	82.1503
4424	64.6219
4408	64.0321
4392	64.1325
4376	63.1818
4360	64.0935
4344	64.0847
4328	64.3727
4312	64.7742
4296	64.4018
4280	64.6515
4264	64.7505
4248	64.8226
4232	64.9491
4216	64.8941
4200	65.0222
4184	65.061
4168	65.1009
4152	65.0004
4136	65.4136
4120	65.4725
4104	65.6232
4088	65.4528
4072	65.1479
4056	65.3922
4040	65.1689
4024	65.0577
4008	65.0739
3992	65.0775
3976	65.1159
3960	64.8788
3944	65.0399
3928	64.9442
3912	65.1356
3896	64.7491
3880	64.866
3864	64.8412
3848	65.3125
3832	65.0887
3816	65.0198
3800	65.1594
3784	64.9722
3768	65.3085
3752	65.3536
3736	65.257
3720	65.1916
3704	65.3078
3688	65.3967
3672	65.3494
3656	65.3863
3640	65.2828
3624	65.4252
3608	65.2597
3592	65.0764
3576	65.0838
3560	65.1113
3544	65.27
3528	65.0108
3512	65.1562
3496	65.1467
3480	65.149
3464	65.0387
3448	64.9842
3432	65.0939
3416	65.2481
3400	65.0552
3384	65.1509
3368	65.065
3352	65.1035
3336	65.1681
3320	65.2225
3304	65.1683
3288	65.2187
3272	65.0848
3256	65.2622
3240	65.0141
3224	65.2289
3208	65.2672
3192	65.0068
3176	64.978
3160	65.1365
3144	65.1815
3128	65.0766
3112	64.9985
3096	65.2418
3080	65.0713
3064	65.0849
3048	65.1856
3032	65.0365
3016	65.2205
3000	65.1855
2984	65.0335
2968	65.0908
2952	64.9759
2936	65.0058
2920	64.9349
2904	64.9834
2888	65.0049
2872	65.143
2856	65.1957
2840	65.1939
2824	65.0719
2808	65.1438
2792	65.0962
2776	65.1175
2760	64.9992
2744	65.1461
2728	65.1024
2712	65.043
2696	65.1547
2680	65.1675
2664	65.1791
2648	65.0057
2632	65.0946
2616	65.0199
2600	65.066
2584	65.0467
2568	65.138
2552	65.0722
2536	65.0653
2520	64.9651
2504	65.0331
2488	65.2798
2472	65.0685
2456	65.1236
2440	65.0893
2424	64.989
2408	65.1049
2392	65.0572
2376	65.1061
2360	65.1487
2344	65.0389
2328	65.0326
2312	64.9403
2296	64.9603
2280	64.8522
2264	64.8732
2248	65.0169
2232	64.967
2216	64.9661
2200	64.936
2184	64.8864
2168	64.9325
2152	64.6736
2136	64.8537
2120	65.0051
2104	64.9167
2088	64.7863
2072	64.8712
2056	64.8853
2040	64.9756
2024	64.9861
2008	64.9485
1992	64.9124
1976	64.8961
1960	64.986
1944	64.8989
1928	64.8443
1912	64.9796
1896	64.9101
1880	64.8361
1864	64.9221
1848	64.8368
1832	64.7827
1816	64.8231
1800	64.8793
1784	64.7957
1768	64.9141
1752	64.7519
1736	64.7594
1720	64.5931
1704	64.7468
1688	64.8212
1672	64.782
1656	64.9205
1640	64.7622
1624	64.7708
1608	64.6433
1592	64.6564
1576	64.8633
1560	64.9111
1544	64.7562
1528	64.7017
1512	64.8279
1496	64.7802
1480	64.7452
1464	64.6435
1448	64.5343
1432	64.7308
1416	64.571
1400	64.477
1384	64.4487
1368	64.5444
1352	64.5501
1336	64.4874
1320	64.4706
1304	64.3821
1288	64.5225
1272	64.366
1256	64.4036
1240	64.2421
1224	64.3016
1208	64.51
1192	64.3834
1176	64.2816
1160	64.3048
1144	64.3764
1128	64.5169
1112	64.3844
1096	64.3751
1080	64.4185
1064	64.2047
1048	64.1311
1032	64.3545
1016	64.4218
1000	64.2874
984	 64.4534
968	 64.378
952	 64.3575
936	 64.4152
920	 64.412
904	 64.3771
888	 64.0659
872	 64.1877
856	 64.3821
840	 64.3034
824	 64.3043
808	 64.2331
792	 64.3615
776	 64.3945
760	 64.1585
744	 64.1496
728	 64.3036
712	 64.1929
696	 64.0092
680	 64.1634
664	 64.0027
648	 63.8781
632	 64.1139
616	 64.0162
600	 63.975
584	 64.3152
568	 63.609
552	 65.3571
536	 64.6222
520	 65.3178
504	 64.6077
488	 64.2787
472	 62.7517
456	 63.8574
440	 64.3123
424	 64.1428
408	 67.0629
392	 62.9917
376	 73.1319
370	 92.8159

File: BZ1503107-1_t12.asc
PE IR       SPECTRUM    SPECTRUM    ASCII       PEDS        1.60
  -1
BZ215B~1.ASC
17/04/07
14:11:54.00
17/04/07
14:12:20.00
tln
$BZ1503107-1_t0012$<tbV0>[13.0,-10.4,8.0,0.0,27,1,0]
27.028
64

2002,4.07
MIRTGS : RIGHTBACK : INTERNAL 2
MIR : ON : INTERNAL 2
OPTKBR

0.200000
8
8.000000
FILLER
RATIO
SPECTRUM
UNLOCKED 256

DOUBLE
64
COMBINED
1
0
0

0.002000
RATIO

1
0
TRUE
51149
0
LEFT NOT FITTED RIGHT NOT FITTED 0
NONE
NONE
15600
12
4.427000
51148
TRUE
1 0 8 72 0 0 0 0

15798

#HDR
-1
-1
#GR
µM
%T
2.38419e-05
0.0
2.000000
0.002000
12515
8
79.6671
46.2642
#DATA
2.000000	 66.2944
2.084000	 66.2576
2.168000	 64.8609
2.252000	 67.4181
2.336000	 65.1401
2.420000	 65.0669
2.504000	 65.288
2.588000	 65.2703
2.672000	 65.4957
2.756000	 65.4865
2.840000	 65.1254
2.924000	 65.3256
3.008000	 65.2742
3.092000	 65.2088
3.176000	 65.0434
3.260000	 65.1758
3.344000	 65.1772
3.428000	 65.0056
3.512000	 65.0515
3.596000	 65.1539
3.680000	 65.0961
3.764000	 65.1364
3.848000	 64.9927
3.932000	 65.0545
4.016000	 65.0441
4.100000	 65.0043
4.184000	 65.0271
4.268000	 65.0098
4.352000	 64.9534
4.436000	 65.0328
4.520000	 65.0816
4.604000	 64.9134
4.688000	 64.9418
4.772000	 64.8697
4.856000	 64.887
4.940000	 64.959
5.024000	 64.8688
5.108000	 64.9189
5.192000	 64.7491
5.276000	 64.8235
5.359999	 64.8483
5.444000	 64.8202
5.528000	 64.9193
5.612000	 64.8081
5.696000	 64.7546
5.780000	 64.5149
5.864000	 64.838
5.948000	 64.8503
6.032000	 64.8235
6.116000	 64.773
6.200000	 64.6932
6.284000	 64.6881
6.368000	 64.6761
6.452000	 64.5886
6.536000	 64.6456
6.620000	 64.7162
6.704000	 64.7044
6.788000	 64.7023
6.872000	 64.5267
6.956000	 64.5466
7.040000	 64.6352
7.124000	 64.4531
7.208000	 64.4092
7.292000	 64.3344
7.376000	 64.4845
7.460000	 64.5038
7.544000	 64.3681
7.628000	 64.3876
7.712000	 64.3765
7.796000	 64.3872
7.880000	 64.2637
7.964000	 64.3739
8.048000	 64.2209
8.132000	 64.2494
8.216000	 64.2787
8.300000	 64.2331
8.384000	 64.3071
8.468000	 64.203
8.552000	 64.2594
8.635999	 64.153
8.719999	 63.9758
8.804000	 64.4404
8.888000	 64.3012
8.972000	 64.4993
9.056000	 64.3473
9.140000	 64.3028
9.224000	 64.3771
9.308000	 64.3216
9.391999	 64.0474
9.475999	 64.2973
9.560000	 64.2346
9.644000	 64.237
9.728000	 64.2181
9.812000	 64.1534
9.896000	 64.0785
9.980000	 64.1887
10.064	64.2619
10.148	64.269
10.232	64.3129
10.316	64.195
10.4	64.2891
10.484	64.2292
10.568	64.4765
10.652	64.3559
10.736	64.2852
10.82	64.2339
10.904	64.2459
10.988	64.2961
11.072	64.1851
11.156	64.3328
11.24	64.1216
11.324	64.2201
11.408	64.2483
11.492	64.1821
11.576	64.2739
11.66	64.3305
11.744	64.3989
11.828	64.4417
11.912	64.3277
11.996	63.9482
12.08	63.8652
12.164	64.219
12.248	64.2665
12.332	64.2127
12.416	64.1577
12.5	64.0077
12.584	64.0508
12.668	64.1277
12.752	64.0602
12.836	64.0714
12.92	64.1859
13.004	64.1807
13.088	64.1715
13.172	64.1759
13.256	64.0896
13.34	64.1396
13.424	64.1594
13.508	64.1285
13.592	64.1341
13.676	64.0847
13.76	64.0472
13.844	64.0193
13.928	63.9956
14.012	63.9801
14.096	63.9049
14.18	63.8393
14.264	63.8144
14.348	63.8268
14.432	63.9777
14.516	64.1839
14.6	64.2845
14.684	64.2451
14.768	64.2674
14.852	64.3443
14.936	64.2406
15.02	64.0351
15.104	63.9912
15.188	64.121
15.272	64.202
15.356	64.1995
15.44	64.2508
15.524	64.3406
15.608	64.3822
15.692	64.3386
15.776	64.2606
15.86	64.2335
15.944	64.2276
16.028	64.2055
16.112	64.1993
16.196	64.1673
16.28	64.0921
16.364	64.0972
16.448	64.1765
16.532	64.075
16.616	63.6947
16.7	63.3322
16.784	63.2722
16.868	63.4052
16.952	63.4462
17.036	63.4
17.12	63.4961
17.204	63.7697
17.288	64.0649
17.372	64.232
17.456	64.1641
17.54	63.9069
17.624	63.7158
17.708	63.7463
17.792	63.849
17.876	63.8866
17.96	63.9539
18.044	64.1116
18.128	64.2384
18.212	64.2702
18.296	64.3444
18.38	64.5762
18.464	64.8339
18.548	64.8877
18.632	64.7079
18.716	64.4892
18.8	64.4101
18.884	64.4655
18.968	64.5567
19.052	64.6482
19.136	64.7749
19.22	64.9463
19.304	65.1221
19.388	65.2494
19.472	65.2975
19.556	65.2676
19.64	65.1922
19.724	65.1199
19.808	65.0889
19.892	65.1038
19.976	65.1357
20.06	65.1263
20.144	65.0129
20.228	64.7637
20.312	64.4217
20.396	64.1008
20.48	63.9126
20.564	63.883
20.648	63.9501
20.732	64.0358
20.816	64.1203
20.9	64.2445
20.984	64.4486
21.068	64.7034
21.152	64.9113
21.236	64.9719
21.32	64.8503
21.404	64.6084
21.488	64.36
21.572	64.1977
21.656	64.1365
21.74	64.1242
21.824	64.1046
21.908	64.0725
21.992	64.0596
22.076	64.0804
22.16	64.0896
22.244	64.0064
22.328	63.7967
22.412	63.5229
22.496	63.3344
22.58	63.3701
22.664	63.6778
22.748	64.1721
22.832	64.6944
22.916	65.0904
23	65.2686
23.084	65.2129
23.168	64.9521
23.252	64.5329
23.336	64.0265
23.42	63.5273
23.504	63.155
23.588	63.0249
23.672	63.192
23.756	63.5996
23.84	64.1151
23.924	64.5516
24.008	64.7735
24.092	64.7714
24.176	64.6322
24.26	64.4952
24.344	64.4969
24.428	64.6959
24.512	65.0389
24.596	65.4497
24.68	65.874
24.764	66.2942
24.848	66.7286
24.932	67.191
25.016	67.6447
25.1	67.9936
25.184	68.0727
25.268	67.6929
25.352	66.6922
25.436	64.993
25.52	62.6485
25.604	59.8191
25.688	56.5928
25.772	53.1175
25.856	49.7078
25.94	47.2114
26.024	46.2841
26.108	46.6569
26.192	48.1471
26.276	50.9859
26.36	56.5047
26.444	64.681
26.528	73.7718
26.612	79.2895
26.696	78.2643
26.78	71.7625
26.864	65.5779
26.948	65.9893
27.028	72.1028

File: BZ1503107-1_t12_cm-1.asc
PE IR       SPECTRUM    SPECTRUM    ASCII       PEDS        1.60
  -1
BZ6AA1~1.ASC
17/04/07
14:11:54.00
17/04/07
14:11:54.00
tln
$BZ1503107-1_t0012$<tbV0>[13.0,-10.4,8.0,0.0,27,1,0]
370
64

2002,4.07
MIRTGS : RIGHTBACK : INTERNAL 2
MIR : ON : INTERNAL 2
OPTKBR

0.200000
8
8.000000
FILLER
RATIO
SPECTRUM
UNLOCKED 256

DOUBLE
64
COMBINED
1
0
0

1.000000
RATIO

1
0
TRUE
51149
0
LEFT NOT FITTED RIGHT NOT FITTED 0
NONE
NONE
15600
12
4.427000
51148
TRUE
1 0 8 72 0 0 0 0

15798

#HDR
-1
-1
#GR
CM-1
%T
2.38419e-05
0.0
5000
-1.000000
4631
8
79.3809
46.2643
#DATA
5000	66.2944
4984	65.2677
4968	65.8005
4952	65.7132
4936	64.1293
4920	64.2736
4904	65.6111
4888	65.1499
4872	65.0492
4856	65.5097
4840	65.25
4824	65.1352
4808	64.9838
4792	65.7991
4776	64.5768
4760	65.2751
4744	64.7928
4728	64.4615
4712	64.6466
4696	65.1313
4680	65.1652
4664	64.8021
4648	65.2598
4632	64.8112
4616	64.6396
4600	65.0437
4584	64.9389
4568	64.8661
4552	64.9944
4536	64.9373
4520	65.081
4504	65.5937
4488	68.1982
4472	65.4031
4456	62.267
4440	68.9769
4424	66.5717
4408	65.3475
4392	65.2836
4376	65.1207
4360	64.8884
4344	65.5195
4328	65.1053
4312	65.0089
4296	64.8545
4280	65.1167
4264	64.8184
4248	65.2225
4232	65.2451
4216	65.1473
4200	65.3022
4184	64.8823
4168	65.1824
4152	65.0882
4136	64.9729
4120	65.0327
4104	65.6791
4088	65.3393
4072	65.1561
4056	65.4018
4040	65.1361
4024	65.0154
4008	65.0667
3992	65.2624
3976	65.499
3960	65.3881
3944	65.499
3928	65.3764
3912	65.2577
3896	65.3061
3880	65.2499
3864	65.2702
3848	65.2681
3832	65.2932
3816	65.2304
3800	65.2956
3784	65.0235
3768	65.3554
3752	65.4281
3736	65.4539
3720	65.2809
3704	65.3664
3688	65.3189
3672	65.4466
3656	65.1866
3640	65.3637
3624	65.4754
3608	65.2464
3592	65.2116
3576	65.2187
3560	65.3098
3544	65.3123
3528	65.1965
3512	65.2311
3496	65.1887
3480	65.2828
3464	65.1025
3448	65.1783
3432	65.1179
3416	65.3075
3400	65.1312
3384	65.3318
3368	65.1661
3352	65.1112
3336	65.1607
3320	65.3125
3304	65.215
3288	65.2054
3272	65.1497
3256	65.2288
3240	65.117
3224	65.1237
3208	65.2236
3192	65.226
3176	65.1415
3160	65.216
3144	65.0407
3128	65.1356
3112	65.1271
3096	65.2259
3080	65.3299
3064	65.1108
3048	65.1358
3032	65.0075
3016	65.1907
3000	65.2545
2984	65.1005
2968	65.0881
2952	65.0432
2936	65.0586
2920	64.9972
2904	64.9494
2888	65.0444
2872	65.1748
2856	65.1948
2840	65.1321
2824	65.1422
2808	65.0071
2792	65.0162
2776	65.1161
2760	65.1472
2744	65.0968
2728	65.1695
2712	65.1394
2696	65.2531
2680	65.1959
2664	65.137
2648	64.8689
2632	64.9514
2616	64.9961
2600	64.9917
2584	65.1026
2568	65.113
2552	65.1067
2536	65.0874
2520	65.1637
2504	65.1244
2488	65.0645
2472	65.0723
2456	65.0375
2440	65.0112
2424	65.0109
2408	64.9565
2392	65.0205
2376	65.0728
2360	65.0798
2344	65.028
2328	64.959
2312	65.0297
2296	64.9298
2280	65.0725
2264	64.9349
2248	65.0306
2232	64.9221
2216	65.1029
2200	64.942
2184	64.9913
2168	64.8891
2152	64.8576
2136	64.9192
2120	65.0053
2104	64.981
2088	64.8635
2072	64.9186
2056	64.895
2040	64.8815
2024	64.958
2008	64.8894
1992	64.8544
1976	64.8516
1960	64.94
1944	64.9178
1928	64.7628
1912	64.872
1896	64.8288
1880	64.8669
1864	64.8437
1848	64.8285
1832	64.8598
1816	64.9479
1800	64.8768
1784	64.8197
1768	64.7056
1752	64.7272
1736	64.6229
1720	64.6063
1704	64.8987
1688	64.8264
1672	64.9172
1656	64.8494
1640	64.6952
1624	64.7494
1608	64.7308
1592	64.6715
1576	64.7674
1560	65.0038
1544	64.7534
1528	64.6702
1512	64.6925
1496	64.68
1480	64.6041
1464	64.6011
1448	64.5984
1432	64.5526
1416	64.5326
1400	64.422
1384	64.4641
1368	64.336
1352	64.5961
1336	64.4991
1320	64.4171
1304	64.4085
1288	64.4179
1272	64.2327
1256	64.3749
1240	64.227
1224	64.3138
1208	64.2673
1192	64.2992
1176	64.2172
1160	64.1843
1144	64.0277
1128	64.3335
1112	64.4603
1096	64.2625
1080	64.3987
1064	64.0457
1048	64.3095
1032	64.2686
1016	64.1222
1000	64.2257
984	 64.295
968	 64.2243
952	 64.2841
936	 64.3102
920	 64.1992
904	 64.1701
888	 64.1227
872	 64.1954
856	 64.3542
840	 64.3532
824	 64.1136
808	 64.1916
792	 64.1121
776	 64.1446
760	 64.1852
744	 64.15
728	 64.0546
712	 63.958
696	 63.8496
680	 64.2369
664	 63.9841
648	 64.2429
632	 64.238
616	 64.1332
600	 63.4483
584	 63.5041
568	 63.7388
552	 64.227
536	 64.6366
520	 64.9697
504	 65.0901
488	 63.8995
472	 64.9582
456	 64.0657
440	 64.0411
424	 63.0244
408	 65.0289
392	 62.9484
376	 78.7398
370	 72.1028

File: BZ1503107-1_t13.asc
PE IR       SPECTRUM    SPECTRUM    ASCII       PEDS        1.60
  -1
BZ255B~1.ASC
17/04/07
14:16:31.00
17/04/07
14:16:57.00
tln
$BZ1503107-1_t0013$<tbV0>[10.4,-10.4,8.0,0.0,27,1,0]
27.028
64

2002,4.07
MIRTGS : RIGHTBACK : INTERNAL 2
MIR : ON : INTERNAL 2
OPTKBR

0.200000
8
8.000000
FILLER
RATIO
SPECTRUM
UNLOCKED 256

DOUBLE
64
COMBINED
1
0
0

0.002000
RATIO

1
0
TRUE
51149
0
LEFT NOT FITTED RIGHT NOT FITTED 0
NONE
NONE
15600
12
4.427000
51148
TRUE
1 0 8 72 0 0 0 0

15798

#HDR
-1
-1
#GR
µM
%T
2.38419e-05
0.0
2.000000
0.002000
12515
8
76.6111
46.3107
#DATA
2.000000	 64.1522
2.084000	 65.8084
2.168000	 64.4273
2.252000	 62.363
2.336000	 64.8128
2.420000	 65.159
2.504000	 64.8954
2.588000	 65.0757
2.672000	 65.3187
2.756000	 65.1838
2.840000	 65.0855
2.924000	 64.9785
3.008000	 65.0383
3.092000	 64.8802
3.176000	 65.1531
3.260000	 65.0095
3.344000	 65.0276
3.428000	 64.8915
3.512000	 64.9328
3.596000	 65.0598
3.680000	 64.9526
3.764000	 65.0731
3.848000	 64.9828
3.932000	 65.0152
4.016000	 64.965
4.100000	 64.8395
4.184000	 64.9658
4.268000	 64.931
4.352000	 64.8718
4.436000	 64.9367
4.520000	 64.8919
4.604000	 64.9127
4.688000	 64.7367
4.772000	 64.7876
4.856000	 64.7799
4.940000	 64.8611
5.024000	 64.8026
5.108000	 64.7543
5.192000	 64.6764
5.276000	 64.8287
5.359999	 64.8666
5.444000	 64.7732
5.528000	 64.7697
5.612000	 64.678
5.696000	 64.6917
5.780000	 64.4417
5.864000	 64.6116
5.948000	 64.7045
6.032000	 64.7468
6.116000	 64.6094
6.200000	 64.5386
6.284000	 64.4846
6.368000	 64.6178
6.452000	 64.6239
6.536000	 64.4811
6.620000	 64.6455
6.704000	 64.5851
6.788000	 64.5512
6.872000	 64.5625
6.956000	 64.659
7.040000	 64.5784
7.124000	 64.4506
7.208000	 64.3807
7.292000	 64.3999
7.376000	 64.484
7.460000	 64.4735
7.544000	 64.3542
7.628000	 64.2662
7.712000	 64.421
7.796000	 64.4272
7.880000	 64.2793
7.964000	 64.3103
8.048000	 64.2166
8.132000	 64.3494
8.216000	 64.3441
8.300000	 64.1625
8.384000	 64.3072
8.468000	 64.1535
8.552000	 64.1848
8.635999	 64.1332
8.719999	 63.9892
8.804000	 64.1467
8.888000	 64.1289
8.972000	 64.2442
9.056000	 64.1205
9.140000	 64.504
9.224000	 64.4252
9.308000	 64.2324
9.391999	 64.094
9.475999	 64.2009
9.560000	 64.1736
9.644000	 64.2735
9.728000	 64.1436
9.812000	 64.2329
9.896000	 64.2647
9.980000	 64.2413
10.064	64.1642
10.148	64.288
10.232	64.3967
10.316	64.2778
10.4	64.1145
10.484	64.1416
10.568	64.4984
10.652	64.335
10.736	64.3323
10.82	64.3481
10.904	64.401
10.988	64.3532
11.072	64.1446
11.156	64.1929
11.24	63.971
11.324	63.9546
11.408	64.2676
11.492	64.3098
11.576	64.1082
11.66	64.0168
11.744	64.1139
11.828	64.266
11.912	64.3264
11.996	64.0915
12.08	63.9952
12.164	64.1233
12.248	64.0624
12.332	64.0751
12.416	64.0686
12.5	64.0533
12.584	64.2798
12.668	64.3834
12.752	64.3629
12.836	64.1198
12.92	64.0209
13.004	63.9691
13.088	63.9322
13.172	64.1392
13.256	64.2118
13.34	63.9574
13.424	63.736
13.508	63.8536
13.592	63.9632
13.676	63.9936
13.76	64.0181
13.844	63.9102
13.928	63.8154
14.012	63.8048
14.096	63.7895
14.18	63.7846
14.264	63.8094
14.348	63.7977
14.432	63.8124
14.516	63.8364
14.6	63.7915
14.684	63.8448
14.768	64.0343
14.852	64.1784
14.936	64.1737
15.02	64.1068
15.104	64.137
15.188	64.1098
15.272	63.8621
15.356	63.7319
15.44	63.9731
15.524	64.2972
15.608	64.4434
15.692	64.4556
15.776	64.386
15.86	64.3028
15.944	64.2433
16.028	64.0817
16.112	63.8612
16.196	63.87
16.28	64.0931
16.364	64.2064
16.448	64.1737
16.532	64.1694
16.616	64.117
16.7	63.9153
16.784	63.7858
16.868	63.9208
16.952	64.1322
17.036	64.1887
17.12	64.1475
17.204	64.1407
17.288	64.1276
17.372	63.9807
17.456	63.6726
17.54	63.3377
17.624	63.2151
17.708	63.3663
17.792	63.5205
17.876	63.3601
17.96	62.8935
18.044	62.4074
18.128	62.2225
18.212	62.54
18.296	63.2782
18.38	63.9523
18.464	64.0334
18.548	63.5291
18.632	62.9703
18.716	62.8158
18.8	63.0662
18.884	63.4418
18.968	63.7074
19.052	63.7627
19.136	63.6543
19.22	63.5997
19.304	63.8471
19.388	64.4042
19.472	64.9679
19.556	65.177
19.64	64.9414
19.724	64.5032
19.808	64.2048
19.892	64.2295
19.976	64.5285
20.06	64.8959
20.144	65.1133
20.228	65.0629
20.312	64.7648
20.396	64.3508
20.48	63.9809
20.564	63.749
20.648	63.6386
20.732	63.57
20.816	63.5152
20.9	63.526
20.984	63.6599
21.068	63.8725
21.152	64.0162
21.236	63.9571
21.32	63.6984
21.404	63.3957
21.488	63.2451
21.572	63.3424
21.656	63.6192
21.74	63.9052
21.824	64.0404
21.908	63.9657
21.992	63.72
22.076	63.3725
22.16	62.9795
22.244	62.5796
22.328	62.2087
22.412	61.9092
22.496	61.716
22.58	61.6436
22.664	61.6927
22.748	61.8584
22.832	62.1314
22.916	62.5039
23	62.9552
23.084	63.4487
23.168	63.9323
23.252	64.3518
23.336	64.6518
23.42	64.791
23.504	64.7326
23.588	64.4716
23.672	64.0434
23.756	63.5178
23.84	62.998
23.924	62.5958
24.008	62.4269
24.092	62.6052
24.176	63.1891
24.26	64.1372
24.344	65.2953
24.428	66.4425
24.512	67.3143
24.596	67.7469
24.68	67.7041
24.764	67.2595
24.848	66.5591
24.932	65.7262
25.016	64.7933
25.1	63.716
25.184	62.4372
25.268	60.9312
25.352	59.1958
25.436	57.2945
25.52	55.3218
25.604	53.3477
25.688	51.4455
25.772	49.6702
25.856	48.0949
25.94	46.8527
26.024	46.3107
26.108	47.0382
26.192	49.4098
26.276	53.2397
26.36	57.1469
26.444	60.1947
26.528	62.3266
26.612	64.8733
26.696	68.7645
26.78	73.4723
26.864	76.4941
26.948	74.9845
27.028	68.8387

File: BZ1503107-1_t13_cm-1.asc
PE IR       SPECTRUM    SPECTRUM    ASCII       PEDS        1.60
  -1
BZ6BA1~1.ASC
17/04/07
14:16:31.00
17/04/07
14:16:31.00
tln
$BZ1503107-1_t0013$<tbV0>[10.4,-10.4,8.0,0.0,27,1,0]
370
64

2002,4.07
MIRTGS : RIGHTBACK : INTERNAL 2
MIR : ON : INTERNAL 2
OPTKBR

0.200000
8
8.000000
FILLER
RATIO
SPECTRUM
UNLOCKED 256

DOUBLE
64
COMBINED
1
0
0

1.000000
RATIO

1
0
TRUE
51149
0
LEFT NOT FITTED RIGHT NOT FITTED 0
NONE
NONE
15600
12
4.427000
51148
TRUE
1 0 8 72 0 0 0 0

15798

#HDR
-1
-1
#GR
CM-1
%T
2.38419e-05
0.0
5000
-1.000000
4631
8
76.6097
46.3449
#DATA
5000	64.1522
4984	65.3542
4968	64.2061
4952	64.2106
4936	63.747
4920	64.9419
4904	64.5355
4888	65.1926
4872	64.7166
4856	64.6582
4840	65.2595
4824	65.205
4808	64.7174
4792	65.2063
4776	64.8128
4760	65.1801
4744	65.0845
4728	64.8507
4712	64.1446
4696	64.4095
4680	64.7482
4664	65.1374
4648	65.0434
4632	64.2113
4616	64.3651
4600	64.9851
4584	64.9503
4568	64.318
4552	64.1435
4536	64.5783
4520	63.9903
4504	65.2384
4488	67.3808
4472	65.1518
4456	63.4359
4440	62.4394
4424	65.1287
4408	65.1658
4392	65.3972
4376	65.1534
4360	64.7896
4344	64.5323
4328	64.8835
4312	64.6701
4296	64.9253
4280	64.8272
4264	64.6301
4248	64.8461
4232	64.9586
4216	64.73
4200	64.819
4184	64.3692
4168	65.2153
4152	64.8345
4136	65.2851
4120	64.8967
4104	65.3273
4088	65.0491
4072	64.91
4056	65.3733
4040	65.0391
4024	65.1234
4008	64.9834
3992	64.8465
3976	64.9449
3960	65.0124
3944	64.9853
3928	64.8908
3912	64.9701
3896	65.1412
3880	65.0536
3864	65.0756
3848	65.0652
3832	65.1712
3816	65.1457
3800	65.0594
3784	64.9046
3768	65.1852
3752	65.2257
3736	65.1966
3720	65.12
3704	65.2622
3688	65.3231
3672	65.3956
3656	65.1649
3640	65.1272
3624	65.1478
3608	65.3185
3592	65.1412
3576	65.1451
3560	65.0184
3544	65.176
3528	64.9373
3512	65.0324
3496	64.9992
3480	64.912
3464	64.8408
3448	65.0484
3432	65.133
3416	65.0604
3400	65.0482
3384	65.0476
3368	64.8522
3352	64.9699
3336	65.0398
3320	65.0389
3304	65.0565
3288	64.9951
3272	65.0583
3256	65.1489
3240	64.8651
3224	64.978
3208	65.0687
3192	65.1057
3176	65.1872
3160	65.2177
3144	65.0738
3128	65.1828
3112	65.0614
3096	65.1613
3080	65.0342
3064	64.9275
3048	65.0935
3032	64.9489
3016	64.9982
3000	65.0638
2984	65.0392
2968	64.9037
2952	64.9108
2936	65.065
2920	64.9155
2904	65.0397
2888	64.857
2872	65.0315
2856	65.051
2840	64.9251
2824	64.92
2808	65.0619
2792	64.9123
2776	64.9214
2760	65.0181
2744	64.9494
2728	65.1533
2712	64.8866
2696	64.964
2680	64.9763
2664	64.9928
2648	64.9213
2632	65.0267
2616	64.8209
2600	64.956
2584	64.9609
2568	65.0026
2552	65.0522
2536	65.0305
2520	64.9284
2504	64.793
2488	65.0203
2472	64.9919
2456	64.9434
2440	64.8383
2424	64.9614
2408	64.8181
2392	64.9567
2376	64.9596
2360	65.0082
2344	64.9485
2328	64.8503
2312	64.8909
2296	64.8776
2280	64.8213
2264	64.9045
2248	64.8885
2232	64.8414
2216	64.9102
2200	64.8535
2184	64.8522
2168	64.9465
2152	64.6216
2136	64.7036
2120	64.8607
2104	64.7667
2088	64.7857
2072	64.7429
2056	64.8143
2040	64.8787
2024	64.863
2008	64.8491
1992	64.7885
1976	64.8113
1960	64.7624
1944	64.734
1928	64.6762
1912	64.8385
1896	64.827
1880	64.6644
1864	64.8425
1848	64.7966
1832	64.6982
1816	64.8383
1800	64.8082
1784	64.6952
1768	64.9526
1752	64.7034
1736	64.5548
1720	64.599
1704	64.6262
1688	64.6638
1672	64.5922
1656	64.8098
1640	64.6091
1624	64.6757
1608	64.557
1592	64.4898
1576	64.6812
1560	64.6934
1544	64.6241
1528	64.4914
1512	64.667
1496	64.6016
1480	64.5331
1464	64.5058
1448	64.4568
1432	64.6525
1416	64.5354
1400	64.4486
1384	64.382
1368	64.4808
1352	64.4752
1336	64.3884
1320	64.37
1304	64.3132
1288	64.4502
1272	64.2717
1256	64.3114
1240	64.2357
1224	64.4063
1208	64.1637
1192	64.3146
1176	64.1086
1160	64.1443
1144	64.0038
1128	64.1706
1112	64.2112
1096	64.4815
1080	64.4088
1064	64.0778
1048	64.2232
1032	64.2969
1016	64.2996
1000	64.24
984	 64.3211
968	 64.2585
952	 64.2515
936	 64.325
920	 64.3487
904	 64.1464
888	 63.9358
872	 64.3699
856	 64.0119
840	 64.3288
824	 64.1013
808	 64.0936
792	 64.3509
776	 64.028
760	 64.1019
744	 63.7379
728	 64.0221
712	 63.8017
696	 63.7952
680	 63.8875
664	 64.1093
648	 63.9403
632	 64.3349
616	 63.9631
600	 64.0049
584	 64.1463
568	 63.215
552	 62.2208
536	 62.8731
520	 63.6111
504	 64.1736
488	 63.9391
472	 64.0204
456	 63.9156
440	 61.8072
424	 64.4844
408	 67.2969
392	 55.5527
376	 64.2718
370	 68.8387