Folder: Masteroppgave/Bakgrunnsmateriale/MATLAB/FTIR/ftir_data/subAa/Mapping_121 (part 50)

File: BZ1503107-1_t116_cm-1.asc
PE IR       SPECTRUM    SPECTRUM    ASCII       PEDS        1.60
  -1
BZ4C79~1.ASC
17/04/07
22:48:22.00
17/04/07
22:48:22.00
tln
$BZ1503107-1_t0116$<tbV0>[0.0,13.0,8.0,0.0,27,1,0]
370
64

2002,4.07
MIRTGS : RIGHTBACK : INTERNAL 2
MIR : ON : INTERNAL 2
OPTKBR

0.200000
8
8.000000
FILLER
RATIO
SPECTRUM
UNLOCKED 256

DOUBLE
64
COMBINED
1
0
0

1.000000
RATIO

1
0
TRUE
51149
0
LEFT NOT FITTED RIGHT NOT FITTED 0
NONE
NONE
15600
12
4.427000
51148
TRUE
1 0 8 72 0 0 0 0

15798

#HDR
-1
-1
#GR
CM-1
%T
2.38419e-05
0.0
5000
-1.000000
4631
8
71.4419
34.7091
#DATA
5000	65.8665
4984	65.9611
4968	65.7116
4952	66.5575
4936	66.0981
4920	66.5183
4904	66.1133
4888	65.8482
4872	65.8779
4856	65.728
4840	65.6253
4824	65.4374
4808	65.4854
4792	65.8772
4776	65.089
4760	65.3828
4744	65.4512
4728	65.545
4712	65.4518
4696	65.763
4680	65.4639
4664	65.7296
4648	65.791
4632	65.9587
4616	66.0403
4600	66.0506
4584	66.108
4568	66.4104
4552	65.8642
4536	66.2696
4520	66.1005
4504	66.4166
4488	66.0766
4472	65.7878
4456	67.6178
4440	62.2971
4424	54.833
4408	69.0972
4392	66.917
4376	66.9558
4360	66.4956
4344	66.0398
4328	66.2716
4312	65.807
4296	65.9824
4280	65.8801
4264	65.6828
4248	65.5465
4232	65.5416
4216	65.6029
4200	65.5077
4184	65.6402
4168	65.606
4152	65.5293
4136	65.4164
4120	65.4749
4104	65.4994
4088	65.5392
4072	65.4482
4056	65.795
4040	65.4433
4024	65.4796
4008	65.4819
3992	65.6371
3976	65.4791
3960	65.6219
3944	65.6634
3928	65.2096
3912	65.6934
3896	65.5757
3880	65.6582
3864	65.6767
3848	65.6349
3832	65.5171
3816	65.9944
3800	65.6553
3784	65.6824
3768	65.5413
3752	65.5747
3736	65.5499
3720	65.5805
3704	65.5756
3688	65.499
3672	65.5968
3656	65.5455
3640	65.4808
3624	65.6316
3608	65.6359
3592	65.5636
3576	65.3371
3560	65.4757
3544	65.4925
3528	65.2654
3512	65.403
3496	65.5287
3480	65.5399
3464	65.3126
3448	65.4182
3432	65.486
3416	65.3527
3400	65.4901
3384	65.2956
3368	65.4154
3352	65.3972
3336	65.3058
3320	65.2926
3304	65.2737
3288	65.3328
3272	65.2084
3256	65.2777
3240	65.1143
3224	65.127
3208	65.0777
3192	65.2356
3176	65.178
3160	65.2422
3144	65.0801
3128	65.1335
3112	65.2045
3096	65.0067
3080	65.0948
3064	65.2016
3048	65.0263
3032	65.2125
3016	65.0036
3000	64.9873
2984	64.8752
2968	64.493
2952	64.4202
2936	64.5884
2920	64.6469
2904	64.701
2888	64.764
2872	64.5412
2856	64.9404
2840	65.0698
2824	64.8563
2808	64.9643
2792	64.8457
2776	65.0229
2760	64.8401
2744	64.8505
2728	64.9112
2712	64.9789
2696	64.8183
2680	64.9875
2664	64.8871
2648	64.7738
2632	64.8239
2616	64.7104
2600	64.651
2584	64.8376
2568	64.8111
2552	64.6791
2536	64.8219
2520	64.8226
2504	64.6471
2488	64.6726
2472	64.7295
2456	64.6744
2440	64.828
2424	64.4808
2408	64.4742
2392	64.5259
2376	64.55
2360	64.5533
2344	64.5081
2328	64.5399
2312	64.4541
2296	64.571
2280	64.4911
2264	64.4361
2248	64.4589
2232	64.3619
2216	64.4949
2200	64.4321
2184	64.3728
2168	64.328
2152	64.3102
2136	64.3439
2120	64.2354
2104	64.2273
2088	64.2393
2072	64.1928
2056	64.1337
2040	64.0988
2024	64.0604
2008	64.0706
1992	64.0774
1976	64.0338
1960	64.0233
1944	64.0665
1928	63.9771
1912	64.0191
1896	63.9617
1880	64.0444
1864	63.9763
1848	63.9401
1832	63.8447
1816	63.848
1800	63.8259
1784	63.7944
1768	63.6292
1752	63.3122
1736	61.9172
1720	63.0678
1704	63.4513
1688	63.657
1672	63.6671
1656	63.4973
1640	63.4985
1624	63.4682
1608	63.453
1592	63.3283
1576	63.3752
1560	63.4413
1544	63.3621
1528	63.2957
1512	63.3369
1496	63.2652
1480	63.1831
1464	63.1055
1448	63.2004
1432	63.0693
1416	63.1593
1400	63.0545
1384	62.7772
1368	63.0189
1352	63.0422
1336	62.9783
1320	63.0021
1304	62.8734
1288	62.8295
1272	62.5763
1256	62.3997
1240	62.406
1224	62.3508
1208	62.6123
1192	62.3804
1176	62.1071
1160	61.9597
1144	62.5211
1128	62.518
1112	62.3171
1096	62.3872
1080	62.2597
1064	62.435
1048	62.2891
1032	62.317
1016	62.478
1000	62.4127
984	 62.4017
968	 62.3954
952	 62.3439
936	 62.2325
920	 62.6291
904	 62.4022
888	 62.3706
872	 62.2085
856	 62.349
840	 62.3305
824	 62.1589
808	 62.3152
792	 62.0907
776	 61.9365
760	 61.8276
744	 61.7728
728	 61.8214
712	 61.5645
696	 62.1064
680	 61.5438
664	 61.774
648	 60.6012
632	 61.8885
616	 61.1208
600	 62.0485
584	 61.2637
568	 61.78
552	 60.8697
536	 62.0344
520	 60.5929
504	 60.6027
488	 60.6808
472	 60.069
456	 58.9605
440	 60.2216
424	 60.2808
408	 60.0659
392	 56.3691
376	 53.073
370	 34.7091

File: BZ1503107-1_t117.asc
PE IR       SPECTRUM    SPECTRUM    ASCII       PEDS        1.60
  -1
BZEABE~1.ASC
17/04/07
22:52:59.00
17/04/07
22:53:25.00
tln
$BZ1503107-1_t0117$<tbV0>[-2.6,13.0,8.0,0.0,27,1,0]
27.028
64

2002,4.07
MIRTGS : RIGHTBACK : INTERNAL 2
MIR : ON : INTERNAL 2
OPTKBR

0.200000
8
8.000000
FILLER
RATIO
SPECTRUM
UNLOCKED 256

DOUBLE
64
COMBINED
1
0
0

0.002000
RATIO

1
0
TRUE
51149
0
LEFT NOT FITTED RIGHT NOT FITTED 0
NONE
NONE
15600
12
4.427000
51148
TRUE
1 0 8 72 0 0 0 0

15798

#HDR
-1
-1
#GR
µM
%T
2.38419e-05
0.0
2.000000
0.002000
12515
8
83.5605
38.889
#DATA
2.000000	 65.3796
2.084000	 64.7739
2.168000	 65.5226
2.252000	 61.026
2.336000	 64.9665
2.420000	 65.1897
2.504000	 64.9879
2.588000	 65.1914
2.672000	 65.3098
2.756000	 65.182
2.840000	 65.0932
2.924000	 65.1132
3.008000	 65.0074
3.092000	 64.8329
3.176000	 64.9372
3.260000	 64.9233
3.344000	 64.7447
3.428000	 64.503
3.512000	 64.6004
3.596000	 64.699
3.680000	 64.6087
3.764000	 64.5873
3.848000	 64.4729
3.932000	 64.5404
4.016000	 64.4692
4.100000	 64.4301
4.184000	 64.3421
4.268000	 64.3965
4.352000	 64.1924
4.436000	 64.2783
4.520000	 64.2528
4.604000	 64.2099
4.688000	 64.1205
4.772000	 63.9847
4.856000	 63.9953
4.940000	 64.0478
5.024000	 63.8257
5.108000	 63.792
5.192000	 63.8713
5.276000	 63.8114
5.359999	 63.8194
5.444000	 63.7363
5.528000	 63.7675
5.612000	 63.6798
5.696000	 63.4765
5.780000	 62.8685
5.864000	 63.4436
5.948000	 63.554
6.032000	 63.5723
6.116000	 63.4166
6.200000	 63.2906
6.284000	 63.3962
6.368000	 63.3441
6.452000	 63.3234
6.536000	 63.2292
6.620000	 63.2528
6.704000	 63.2547
6.788000	 63.1402
6.872000	 63.0673
6.956000	 63.084
7.040000	 63.0959
7.124000	 62.9922
7.208000	 63.0292
7.292000	 62.9786
7.376000	 63.0347
7.460000	 63.1076
7.544000	 63.026
7.628000	 62.9034
7.712000	 62.9543
7.796000	 62.8959
7.880000	 62.7875
7.964000	 62.5664
8.048000	 62.6692
8.132000	 62.6435
8.216000	 62.7538
8.300000	 62.688
8.384000	 62.632
8.468000	 62.4572
8.552000	 62.4148
8.635999	 62.4794
8.719999	 62.5388
8.804000	 62.5668
8.888000	 62.6395
8.972000	 62.5222
9.056000	 62.6801
9.140000	 62.5497
9.224000	 62.5104
9.308000	 62.6232
9.391999	 62.4533
9.475999	 62.4703
9.560000	 62.5487
9.644000	 62.2708
9.728000	 62.4345
9.812000	 62.417
9.896000	 62.4502
9.980000	 62.4224
10.064	62.3656
10.148	62.4706
10.232	62.3647
10.316	62.3676
10.4	62.154
10.484	62.2756
10.568	62.5919
10.652	62.3751
10.736	62.378
10.82	62.2717
10.904	62.4793
10.988	62.2672
11.072	62.304
11.156	62.4906
11.24	62.3295
11.324	62.3323
11.408	62.225
11.492	62.2326
11.576	62.2674
11.66	62.3107
11.744	62.5429
11.828	62.3027
11.912	62.1685
11.996	62.2717
12.08	62.3666
12.164	62.2534
12.248	62.3117
12.332	62.2673
12.416	62.2976
12.5	62.3214
12.584	62.2163
12.668	62.1371
12.752	62.0687
12.836	61.9287
12.92	61.9337
13.004	61.9533
13.088	61.9157
13.172	62.0233
13.256	62.1076
13.34	61.9902
13.424	61.8471
13.508	61.9117
13.592	61.9578
13.676	61.9338
13.76	61.9185
13.844	61.7922
13.928	61.6716
14.012	61.6442
14.096	61.5321
14.18	61.5501
14.264	61.5572
14.348	61.4935
14.432	61.6753
14.516	61.8226
14.6	61.8634
14.684	61.8067
14.768	61.4409
14.852	61.1793
14.936	61.2734
15.02	61.4251
15.104	61.6647
15.188	62.0184
15.272	62.1366
15.356	61.9052
15.44	61.5347
15.524	61.2433
15.608	61.1309
15.692	61.1897
15.776	61.4001
15.86	61.6586
15.944	61.8823
16.028	61.9314
16.112	61.6347
16.196	61.3553
16.28	61.5793
16.364	61.9232
16.448	61.8656
16.532	61.6263
16.616	61.4471
16.7	61.1348
16.784	60.7528
16.868	60.7156
16.952	61.0321
17.036	61.1965
17.12	60.9537
17.204	60.623
17.288	60.4675
17.372	60.3518
17.456	60.2397
17.54	60.4539
17.624	61.1096
17.708	61.7758
17.792	61.9777
17.876	61.6905
17.96	61.2486
18.044	60.9723
18.128	60.9568
18.212	61.1027
18.296	61.2903
18.38	61.5106
18.464	61.7827
18.548	61.9907
18.632	61.9103
18.716	61.4779
18.8	60.9247
18.884	60.5642
18.968	60.5021
19.052	60.6001
19.136	60.6552
19.22	60.5764
19.304	60.4497
19.388	60.4364
19.472	60.6062
19.556	60.859
19.64	61.0228
19.724	61.0236
19.808	60.927
19.892	60.8225
19.976	60.739
20.06	60.6799
20.144	60.6701
20.228	60.7188
20.312	60.7831
20.396	60.7887
20.48	60.6895
20.564	60.5049
20.648	60.313
20.732	60.2024
20.816	60.2207
20.9	60.3532
20.984	60.5425
21.068	60.7208
21.152	60.8488
21.236	60.9179
21.32	60.9322
21.404	60.8933
21.488	60.8042
21.572	60.6756
21.656	60.5235
21.74	60.3642
21.824	60.2194
21.908	60.1257
21.992	60.1238
22.076	60.2242
22.16	60.374
22.244	60.4531
22.328	60.3444
22.412	60.0126
22.496	59.5485
22.58	59.1067
22.664	58.8131
22.748	58.6955
22.832	58.6907
22.916	58.7156
23	58.736
23.084	58.7772
23.168	58.9001
23.252	59.1399
23.336	59.4695
23.42	59.8081
23.504	60.057
23.588	60.1517
23.672	60.0856
23.756	59.9024
23.84	59.6881
23.924	59.5359
24.008	59.5254
24.092	59.7104
24.176	60.0899
24.26	60.629
24.344	61.2474
24.428	61.8255
24.512	62.2065
24.596	62.2652
24.68	61.9536
24.764	61.3308
24.848	60.5318
24.932	59.723
25.016	59.0189
25.1	58.4306
25.184	57.8596
25.268	57.1642
25.352	56.2489
25.436	55.0979
25.52	53.7828
25.604	52.4049
25.688	50.9899
25.772	49.4629
25.856	47.7208
25.94	45.7292
26.024	43.6399
26.108	41.8136
26.192	40.6317
26.276	40.3431
26.36	40.9563
26.444	42.1821
26.528	43.5268
26.612	44.4505
26.696	44.5561
26.78	43.735
26.864	42.1896
26.948	40.3671
27.028	38.889

File: BZ1503107-1_t117_cm-1.asc
PE IR       SPECTRUM    SPECTRUM    ASCII       PEDS        1.60
  -1
BZ4CFC~1.ASC
17/04/07
22:52:59.00
17/04/07
22:52:59.00
tln
$BZ1503107-1_t0117$<tbV0>[-2.6,13.0,8.0,0.0,27,1,0]
370
64

2002,4.07
MIRTGS : RIGHTBACK : INTERNAL 2
MIR : ON : INTERNAL 2
OPTKBR

0.200000
8
8.000000
FILLER
RATIO
SPECTRUM
UNLOCKED 256

DOUBLE
64
COMBINED
1
0
0

1.000000
RATIO

1
0
TRUE
51149
0
LEFT NOT FITTED RIGHT NOT FITTED 0
NONE
NONE
15600
12
4.427000
51148
TRUE
1 0 8 72 0 0 0 0

15798

#HDR
-1
-1
#GR
CM-1
%T
2.38419e-05
0.0
5000
-1.000000
4631
8
86.4435
38.889
#DATA
5000	65.3796
4984	65.7146
4968	65.0338
4952	65.4511
4936	65.2142
4920	65.5306
4904	65.1725
4888	65.2976
4872	65.3793
4856	64.8314
4840	65.2565
4824	64.6804
4808	65.0856
4792	64.7061
4776	64.7111
4760	64.9444
4744	65.0328
4728	65.1804
4712	65.0677
4696	64.7863
4680	64.634
4664	64.9581
4648	64.5034
4632	65.0034
4616	65.4611
4600	65.0975
4584	65.0623
4568	65.2551
4552	64.8171
4536	64.7284
4520	65.0603
4504	65.18
4488	64.6487
4472	64.5431
4456	65.7949
4440	60.1886
4424	85.4366
4408	66.0097
4392	65.4851
4376	65.6306
4360	65.2879
4344	64.7176
4328	64.8992
4312	64.6887
4296	64.8647
4280	64.9546
4264	65.1606
4248	64.7025
4232	64.9196
4216	65.0886
4200	64.8793
4184	64.889
4168	64.9945
4152	65.0125
4136	65.1625
4120	65.1748
4104	65.0775
4088	64.9398
4072	65.2931
4056	65.2534
4040	65.0271
4024	65.0803
4008	65.0504
3992	65.0139
3976	64.8641
3960	65.095
3944	65.2833
3928	64.8949
3912	65.0891
3896	65.0343
3880	65.1597
3864	65.1914
3848	64.8428
3832	65.2146
3816	64.8396
3800	65.0563
3784	65.0205
3768	65.1014
3752	65.0503
3736	65.0713
3720	65.2611
3704	65.1028
3688	65.157
3672	65.0554
3656	65.2439
3640	65.0994
3624	65.1252
3608	65.1971
3592	64.9356
3576	64.9275
3560	65.1271
3544	65.0442
3528	65.0703
3512	65.0894
3496	65.055
3480	65.0098
3464	64.9869
3448	64.9383
3432	65.0145
3416	65.1866
3400	64.9886
3384	64.8126
3368	64.9662
3352	65.0536
3336	64.9783
3320	64.8926
3304	64.8434
3288	64.8718
3272	65.0261
3256	64.938
3240	64.8627
3224	64.6838
3208	64.8724
3192	64.8973
3176	64.9532
3160	64.8596
3144	64.8253
3128	64.7231
3112	64.9182
3096	64.7642
3080	64.8818
3064	64.9219
3048	64.7452
3032	64.9162
3016	64.7545
3000	64.8742
2984	64.6754
2968	64.4282
2952	64.5593
2936	64.4541
2920	64.487
2904	64.4877
2888	64.8016
2872	64.5603
2856	64.6675
2840	64.6347
2824	64.7281
2808	64.8067
2792	64.5974
2776	64.6899
2760	64.6802
2744	64.7095
2728	64.677
2712	64.5976
2696	64.6374
2680	64.6917
2664	64.6389
2648	64.6526
2632	64.7051
2616	64.4893
2600	64.495
2584	64.5442
2568	64.5041
2552	64.5349
2536	64.588
2520	64.5897
2504	64.453
2488	64.4628
2472	64.4909
2456	64.5203
2440	64.4327
2424	64.3458
2408	64.3725
2392	64.3565
2376	64.4008
2360	64.3602
2344	64.4005
2328	64.3095
2312	64.2476
2296	64.2006
2280	64.2792
2264	64.2759
2248	64.2527
2232	64.096
2216	64.2745
2200	64.1894
2184	64.2271
2168	64.1923
2152	64.1438
2136	64.2067
2120	64.1791
2104	64.1019
2088	64.0704
2072	64.0718
2056	64.0787
2040	64.0238
2024	64.0493
2008	64.0444
1992	63.8469
1976	63.9321
1960	63.8055
1944	63.8685
1928	63.9043
1912	63.9208
1896	63.8117
1880	63.8431
1864	63.8272
1848	63.7837
1832	63.7487
1816	63.758
1800	63.713
1784	63.6495
1768	63.5545
1752	63.4143
1736	62.7537
1720	63.248
1704	63.4712
1688	63.6075
1672	63.5795
1656	63.5589
1640	63.4468
1624	63.3716
1608	63.2717
1592	63.3855
1576	63.3438
1560	63.3835
1544	63.3028
1528	63.2303
1512	63.2471
1496	63.2257
1480	63.1029
1464	63.2172
1448	63.0465
1432	63.0509
1416	63.1514
1400	62.9662
1384	63.0427
1368	62.9887
1352	63.0788
1336	63.0755
1320	62.8999
1304	62.9792
1288	62.8548
1272	62.8237
1256	62.5694
1240	62.6765
1224	62.7147
1208	62.7843
1192	62.6155
1176	62.3954
1160	62.4773
1144	62.5548
1128	62.6546
1112	62.5641
1096	62.6258
1080	62.6548
1064	62.4585
1048	62.5237
1032	62.2935
1016	62.3808
1000	62.3852
984	 62.4626
968	 62.3229
952	 62.3612
936	 62.3499
920	 62.3955
904	 62.2691
888	 62.3053
872	 62.2059
856	 62.3856
840	 62.1686
824	 62.2809
808	 62.2626
792	 62.1734
776	 61.9053
760	 62.0005
744	 61.8465
728	 61.9283
712	 61.6047
696	 61.5152
680	 61.7364
664	 61.5155
648	 61.569
632	 61.5453
616	 61.3949
600	 61.2839
584	 60.9398
568	 60.9441
552	 60.9457
536	 61.8145
520	 60.5598
504	 60.8833
488	 60.6676
472	 60.8841
456	 60.115
440	 58.7107
424	 60.1512
408	 62.2004
392	 53.9402
376	 44.331
370	 38.889

File: BZ1503107-1_t118.asc
PE IR       SPECTRUM    SPECTRUM    ASCII       PEDS        1.60
  -1
BZEAB2~1.ASC
17/04/07
22:57:36.00
17/04/07
22:58:02.00
tln
$BZ1503107-1_t0118$<tbV0>[-5.2,13.0,8.0,0.0,27,1,0]
27.028
64

2002,4.07
MIRTGS : RIGHTBACK : INTERNAL 2
MIR : ON : INTERNAL 2
OPTKBR

0.200000
8
8.000000
FILLER
RATIO
SPECTRUM
UNLOCKED 256

DOUBLE
64
COMBINED
1
0
0

0.002000
RATIO

1
0
TRUE
51149
0
LEFT NOT FITTED RIGHT NOT FITTED 0
NONE
NONE
15600
12
4.427000
51148
TRUE
1 0 8 72 0 0 0 0

15798

#HDR
-1
-1
#GR
µM
%T
2.38419e-05
0.0
2.000000
0.002000
12515
8
73.8235
42.4046
#DATA
2.000000	 64.0428
2.084000	 64.8137
2.168000	 65.0336
2.252000	 60.5299
2.336000	 64.9697
2.420000	 64.7806
2.504000	 64.9747
2.588000	 65.089
2.672000	 65.0927
2.756000	 65.09
2.840000	 64.778
2.924000	 64.9309
3.008000	 64.8641
3.092000	 64.7384
3.176000	 64.7803
3.260000	 64.7076
3.344000	 64.7475
3.428000	 64.325
3.512000	 64.4513
3.596000	 64.6128
3.680000	 64.6616
3.764000	 64.4244
3.848000	 64.3958
3.932000	 64.4491
4.016000	 64.4765
4.100000	 64.3583
4.184000	 64.3253
4.268000	 64.2122
4.352000	 64.2589
4.436000	 64.1852
4.520000	 64.2819
4.604000	 64.1563
4.688000	 64.101
4.772000	 64.0762
4.856000	 64.0764
4.940000	 63.8586
5.024000	 63.918
5.108000	 63.9056
5.192000	 63.8692
5.276000	 63.8476
5.359999	 63.7839
5.444000	 63.7234
5.528000	 63.8049
5.612000	 63.707
5.696000	 63.5605
5.780000	 63.2865
5.864000	 63.4555
5.948000	 63.4618
6.032000	 63.4988
6.116000	 63.4845
6.200000	 63.3975
6.284000	 63.3676
6.368000	 63.192
6.452000	 63.1478
6.536000	 63.1754
6.620000	 63.2629
6.704000	 63.1374
6.788000	 63.1008
6.872000	 63.1151
6.956000	 63.036
7.040000	 63.034
7.124000	 62.9905
7.208000	 62.9347
7.292000	 63.0426
7.376000	 62.9805
7.460000	 62.9765
7.544000	 63.0255
7.628000	 62.9857
7.712000	 62.9095
7.796000	 62.9488
7.880000	 62.8798
7.964000	 62.5179
8.048000	 62.7851
8.132000	 62.7142
8.216000	 62.7163
8.300000	 62.7575
8.384000	 62.7343
8.468000	 62.6342
8.552000	 62.5086
8.635999	 62.7113
8.719999	 62.6472
8.804000	 62.6513
8.888000	 62.5467
8.972000	 62.4793
9.056000	 62.4918
9.140000	 62.6086
9.224000	 62.4572
9.308000	 62.5727
9.391999	 62.534
9.475999	 62.3512
9.560000	 62.2892
9.644000	 62.3195
9.728000	 62.555
9.812000	 62.3723
9.896000	 62.3733
9.980000	 62.4229
10.064	62.4432
10.148	62.3459
10.232	62.4394
10.316	62.3514
10.4	62.3327
10.484	62.4756
10.568	62.4631
10.652	62.3214
10.736	62.4088
10.82	62.3205
10.904	62.3211
10.988	62.4543
11.072	62.3833
11.156	62.34
11.24	62.4058
11.324	62.3762
11.408	62.4207
11.492	62.3989
11.576	62.2584
11.66	62.3463
11.744	62.3873
11.828	62.2814
11.912	62.148
11.996	62.1441
12.08	62.2345
12.164	62.2115
12.248	62.4124
12.332	62.2968
12.416	62.1956
12.5	62.3168
12.584	62.3458
12.668	62.2011
12.752	61.9928
12.836	62.021
12.92	61.8996
13.004	61.6978
13.088	61.622
13.172	61.6915
13.256	61.9686
13.34	62.0495
13.424	61.998
13.508	61.9827
13.592	62.0334
13.676	61.9701
13.76	61.7885
13.844	61.6705
13.928	61.7166
14.012	61.804
14.096	61.7518
14.18	61.7251
14.264	61.7316
14.348	61.7245
14.432	61.6688
14.516	61.4765
14.6	61.3401
14.684	61.4009
14.768	61.4824
14.852	61.5196
14.936	61.5642
15.02	61.6484
15.104	61.6517
15.188	61.4572
15.272	61.2925
15.356	61.3822
15.44	61.4776
15.524	61.3348
15.608	61.2732
15.692	61.4407
15.776	61.3852
15.86	61.1746
15.944	61.4468
16.028	62.099
16.112	62.4792
16.196	62.557
16.28	62.7546
16.364	63.0166
16.448	62.8032
16.532	61.9083
16.616	60.8017
16.7	60.0522
16.784	59.8401
16.868	60.0141
16.952	60.1559
17.036	59.9659
17.12	59.7868
17.204	60.1157
17.288	60.696
17.372	60.92
17.456	60.8356
17.54	60.9804
17.624	61.4529
17.708	61.8216
17.792	61.7569
17.876	61.327
17.96	60.8414
18.044	60.5947
18.128	60.6392
18.212	60.799
18.296	60.945
18.38	61.1538
18.464	61.5309
18.548	61.9733
18.632	62.1803
18.716	61.9496
18.8	61.384
18.884	60.7922
18.968	60.4396
19.052	60.3887
19.136	60.5071
19.22	60.6003
19.304	60.5875
19.388	60.5503
19.472	60.6014
19.556	60.7141
19.64	60.7301
19.724	60.5612
19.808	60.3065
19.892	60.1351
19.976	60.1175
20.06	60.2031
20.144	60.3072
20.228	60.3772
20.312	60.4129
20.396	60.4412
20.48	60.4738
20.564	60.4822
20.648	60.4219
20.732	60.2908
20.816	60.1583
20.9	60.1267
20.984	60.2385
21.068	60.4292
21.152	60.5782
21.236	60.6012
21.32	60.4992
21.404	60.3308
21.488	60.1553
21.572	59.9963
21.656	59.8532
21.74	59.7315
21.824	59.6569
21.908	59.665
21.992	59.7739
22.076	59.9648
22.16	60.1805
22.244	60.3357
22.328	60.3588
22.412	60.2211
22.496	59.9546
22.58	59.6338
22.664	59.3369
22.748	59.1115
22.832	58.968
22.916	58.9014
23	58.9042
23.084	58.9799
23.168	59.1438
23.252	59.4033
23.336	59.7394
23.42	60.115
23.504	60.4873
23.588	60.8193
23.672	61.0816
23.756	61.2442
23.84	61.2693
23.924	61.1271
24.008	60.8
24.092	60.3073
24.176	59.759
24.26	59.3345
24.344	59.2314
24.428	59.5491
24.512	60.2338
24.596	61.0406
24.68	61.6327
24.764	61.7481
24.848	61.3123
24.932	60.4761
25.016	59.5389
25.1	58.7685
25.184	58.3221
25.268	58.1984
25.352	58.3061
25.436	58.5823
25.52	59.0916
25.604	60.019
25.688	61.6094
25.772	63.9832
25.856	66.9802
25.94	70.1191
26.024	72.6526
26.108	73.8069
26.192	73.1128
26.276	70.5266
26.36	66.4669
26.444	61.6461
26.528	56.8176
26.612	52.5677
26.696	49.1909
26.78	46.6677
26.864	44.7927
26.948	43.3676
27.028	42.4046

File: BZ1503107-1_t118_cm-1.asc
PE IR       SPECTRUM    SPECTRUM    ASCII       PEDS        1.60
  -1
BZ4C7C~1.ASC
17/04/07
22:57:36.00
17/04/07
22:57:36.00
tln
$BZ1503107-1_t0118$<tbV0>[-5.2,13.0,8.0,0.0,27,1,0]
370
64

2002,4.07
MIRTGS : RIGHTBACK : INTERNAL 2
MIR : ON : INTERNAL 2
OPTKBR

0.200000
8
8.000000
FILLER
RATIO
SPECTRUM
UNLOCKED 256

DOUBLE
64
COMBINED
1
0
0

1.000000
RATIO

1
0
TRUE
51149
0
LEFT NOT FITTED RIGHT NOT FITTED 0
NONE
NONE
15600
12
4.427000
51148
TRUE
1 0 8 72 0 0 0 0

15798

#HDR
-1
-1
#GR
CM-1
%T
2.38419e-05
0.0
5000
-1.000000
4631
8
73.8115
42.4046
#DATA
5000	64.0428
4984	66.168
4968	65.4883
4952	65.1388
4936	65.0679
4920	64.6973
4904	65.02
4888	65.1318
4872	64.8374
4856	65.2158
4840	64.5507
4824	64.5297
4808	64.4192
4792	64.9292
4776	64.7389
4760	64.8741
4744	64.6185
4728	64.9931
4712	64.7517
4696	64.5432
4680	64.6168
4664	64.928
4648	65.3641
4632	65.2886
4616	65.0162
4600	65.2362
4584	65.0191
4568	65.2055
4552	65.0527
4536	65.0649
4520	65.7048
4504	65.3951
4488	64.571
4472	65.0154
4456	66.9885
4440	59.4634
4424	61.7069
4408	66.967
4392	66.0696
4376	65.6578
4360	65.6408
4344	64.8635
4328	65.4008
4312	64.8585
4296	65.1734
4280	64.959
4264	64.9598
4248	64.8236
4232	64.9966
4216	64.8783
4200	65.2343
4184	64.8165
4168	64.7564
4152	64.9023
4136	64.7963
4120	64.7695
4104	64.7877
4088	64.7229
4072	64.9773
4056	64.9029
4040	64.7063
4024	64.7088
4008	65.1318
3992	64.9037
3976	64.8229
3960	64.8645
3944	65.1439
3928	64.9559
3912	64.8854
3896	64.8785
3880	64.8937
3864	65.0891
3848	64.9793
3832	64.9956
3816	64.7913
3800	64.8565
3784	64.852
3768	65.0564
3752	64.8643
3736	64.964
3720	65.0082
3704	65.0897
3688	65.0646
3672	65.0175
3656	65.0127
3640	64.9883
3624	65.0237
3608	65.0557
3592	64.9474
3576	64.939
3560	64.9334
3544	64.845
3528	64.8738
3512	64.8436
3496	64.8521
3480	64.9746
3464	64.8136
3448	64.7365
3432	65.0717
3416	64.9937
3400	64.7545
3384	64.6924
3368	64.9477
3352	64.9218
3336	64.9573
3320	64.8196
3304	64.7878
3288	64.7949
3272	64.8307
3256	64.8966
3240	64.7648
3224	64.7155
3208	64.8298
3192	64.929
3176	64.8602
3160	64.8695
3144	64.7279
3128	64.7668
3112	64.7573
3096	64.7074
3080	64.8194
3064	64.7721
3048	64.7628
3032	64.8783
3016	64.6701
3000	64.8493
2984	64.7135
2968	64.5729
2952	64.5313
2936	64.6677
2920	64.3973
2904	64.4619
2888	64.6449
2872	64.467
2856	64.4413
2840	64.5048
2824	64.5726
2808	64.6621
2792	64.5884
2776	64.6595
2760	64.5738
2744	64.6888
2728	64.6688
2712	64.5716
2696	64.4947
2680	64.5801
2664	64.4409
2648	64.4363
2632	64.4674
2616	64.4857
2600	64.4051
2584	64.4333
2568	64.4654
2552	64.5302
2536	64.45
2520	64.4859
2504	64.3845
2488	64.5043
2472	64.4022
2456	64.4718
2440	64.3632
2424	64.2811
2408	64.3287
2392	64.3541
2376	64.1725
2360	64.1951
2344	64.205
2328	64.2571
2312	64.2575
2296	64.2559
2280	64.1777
2264	64.1863
2248	64.1602
2232	64.1857
2216	64.2052
2200	64.156
2184	64.1822
2168	64.1469
2152	64.1693
2136	64.1253
2120	64.0527
2104	64.0791
2088	64.0543
2072	64.0017
2056	64.0942
2040	63.9719
2024	63.8585
2008	63.9478
1992	63.9362
1976	63.8542
1960	63.9003
1944	63.913
1928	63.8888
1912	63.8473
1896	63.8486
1880	63.7644
1864	63.7883
1848	63.7423
1832	63.7524
1816	63.8048
1800	63.793
1784	63.6609
1768	63.5489
1752	63.5565
1736	63.2977
1720	63.4709
1704	63.468
1688	63.5041
1672	63.4589
1656	63.4681
1640	63.4605
1624	63.3832
1608	63.3378
1592	63.3734
1576	63.187
1560	63.2776
1544	63.1939
1528	63.198
1512	63.2737
1496	63.1171
1480	63.1457
1464	63.0639
1448	63.1108
1432	63.0007
1416	63.0273
1400	62.9416
1384	62.9419
1368	63.0346
1352	62.9657
1336	62.9823
1320	63.0996
1304	62.9001
1288	62.8931
1272	62.9046
1256	62.5166
1240	62.7857
1224	62.6803
1208	62.7536
1192	62.7265
1176	62.5315
1160	62.7064
1144	62.6599
1128	62.581
1112	62.5032
1096	62.6202
1080	62.5686
1064	62.5394
1048	62.2777
1032	62.4161
1016	62.2875
1000	62.4183
984	 62.3622
968	 62.3403
952	 62.5039
936	 62.3358
920	 62.2907
904	 62.3884
888	 62.4201
872	 62.4461
856	 62.3733
840	 62.1601
824	 62.1942
808	 62.199
792	 62.3071
776	 61.9792
760	 61.6592
744	 61.9898
728	 61.8395
712	 61.7947
696	 61.7201
680	 61.4268
664	 61.6731
648	 61.4793
632	 61.2422
616	 62.6159
600	 60.2861
584	 59.7889
568	 61.34
552	 60.6207
536	 62.1598
520	 60.6044
504	 60.2212
488	 60.4774
472	 60.6049
456	 59.6836
440	 59.1595
424	 60.8082
408	 60.2135
392	 59.0139
376	 53.3228
370	 42.4046