Folder: Masteroppgave/Bakgrunnsmateriale/MATLAB/FTIR/ftir_data/subAa/Mapping_121 (part 52)

File: BZ1503107-1_t121_cm-1.asc
PE IR       SPECTRUM    SPECTRUM    ASCII       PEDS        1.60
  -1
BZBCF5~1.ASC
17/04/07
23:11:28.00
17/04/07
23:11:28.00
tln
$BZ1503107-1_t0121$<tbV0>[-13.0,13.0,8.0,0.0,27,1,0]
370
64

2002,4.07
MIRTGS : RIGHTBACK : INTERNAL 2
MIR : ON : INTERNAL 2
OPTKBR

0.200000
8
8.000000
FILLER
RATIO
SPECTRUM
UNLOCKED 256

DOUBLE
64
COMBINED
1
0
0

1.000000
RATIO

1
0
TRUE
51149
0
LEFT NOT FITTED RIGHT NOT FITTED 0
NONE
NONE
15600
12
4.427000
51148
TRUE
1 0 8 72 0 0 0 0

15798

#HDR
-1
-1
#GR
CM-1
%T
2.38419e-05
0.0
5000
-1.000000
4631
8
69.7049
44.8926
#DATA
5000	66.3362
4984	66.1127
4968	63.3534
4952	64.7858
4936	64.4092
4920	65.169
4904	64.9658
4888	64.745
4872	64.776
4856	64.7962
4840	65.1064
4824	64.3525
4808	64.493
4792	64.626
4776	64.3858
4760	64.8645
4744	64.3801
4728	64.2711
4712	64.831
4696	64.4521
4680	64.4477
4664	64.5941
4648	64.9891
4632	64.6381
4616	65.0344
4600	64.813
4584	64.6671
4568	64.9002
4552	64.8103
4536	64.7563
4520	64.9301
4504	64.4959
4488	64.3459
4472	64.8436
4456	66.0509
4440	67.6416
4424	63.2043
4408	65.5728
4392	65.0661
4376	65.2667
4360	64.9798
4344	65.435
4328	64.8951
4312	65.0458
4296	64.5274
4280	64.7473
4264	64.8049
4248	64.8991
4232	64.665
4216	65.2211
4200	64.8143
4184	65.0148
4168	65.0153
4152	65.1799
4136	64.9575
4120	64.7289
4104	64.7367
4088	64.7751
4072	64.9238
4056	64.8906
4040	64.879
4024	64.7046
4008	64.9897
3992	65.0028
3976	64.6666
3960	65.0016
3944	64.965
3928	64.5565
3912	64.8013
3896	64.9007
3880	65.1101
3864	65.0131
3848	64.8878
3832	64.9883
3816	64.7203
3800	65.05
3784	64.7357
3768	64.8465
3752	64.6923
3736	64.8085
3720	65.0297
3704	65.0179
3688	64.9081
3672	64.9216
3656	65.0167
3640	64.8595
3624	64.9413
3608	64.9926
3592	64.7984
3576	64.908
3560	64.7964
3544	64.9435
3528	64.7793
3512	64.722
3496	64.8235
3480	64.8348
3464	64.727
3448	64.7586
3432	65.0286
3416	64.9596
3400	64.898
3384	64.6114
3368	64.9405
3352	64.9297
3336	64.8874
3320	64.8799
3304	64.7587
3288	64.8539
3272	64.7305
3256	64.9671
3240	64.7799
3224	64.7065
3208	64.8457
3192	64.8615
3176	64.856
3160	64.9057
3144	64.7566
3128	64.899
3112	64.8305
3096	64.7827
3080	64.7957
3064	64.6108
3048	64.692
3032	64.8196
3016	64.7082
3000	64.7187
2984	64.6963
2968	64.6552
2952	64.5044
2936	64.5613
2920	64.4701
2904	64.4054
2888	64.605
2872	64.4809
2856	64.6195
2840	64.6628
2824	64.5619
2808	64.5587
2792	64.5624
2776	64.6878
2760	64.5563
2744	64.6364
2728	64.5248
2712	64.5961
2696	64.5051
2680	64.4841
2664	64.528
2648	64.4304
2632	64.4337
2616	64.4645
2600	64.3196
2584	64.3089
2568	64.4191
2552	64.3926
2536	64.4335
2520	64.4385
2504	64.3582
2488	64.4358
2472	64.4643
2456	64.4177
2440	64.4004
2424	64.249
2408	64.2952
2392	64.2806
2376	64.3325
2360	64.2823
2344	64.3265
2328	64.3135
2312	64.1706
2296	64.2231
2280	64.231
2264	64.2597
2248	64.2595
2232	64.0433
2216	64.2023
2200	64.2041
2184	64.1672
2168	63.9446
2152	64.0425
2136	64.1181
2120	63.9537
2104	64.1014
2088	64.0359
2072	63.8818
2056	63.9381
2040	63.9415
2024	63.9504
2008	63.8979
1992	63.8004
1976	63.8073
1960	63.7867
1944	63.8364
1928	63.9694
1912	63.8831
1896	63.7723
1880	63.896
1864	63.8289
1848	63.7948
1832	63.7882
1816	63.8041
1800	63.7557
1784	63.7706
1768	63.6232
1752	63.5789
1736	63.372
1720	63.4466
1704	63.4364
1688	63.5547
1672	63.5089
1656	63.4189
1640	63.5235
1624	63.343
1608	63.3338
1592	63.3674
1576	63.3241
1560	63.3789
1544	63.2929
1528	63.2546
1512	63.3317
1496	63.3091
1480	63.2079
1464	63.0393
1448	63.095
1432	63.1196
1416	63.2257
1400	63.0328
1384	63.0202
1368	63.0295
1352	62.9777
1336	62.9172
1320	62.9639
1304	62.93
1288	62.8962
1272	62.8271
1256	62.7683
1240	62.7414
1224	62.7113
1208	62.846
1192	62.7784
1176	62.6473
1160	62.6681
1144	62.5657
1128	62.7177
1112	62.5363
1096	62.5729
1080	62.5612
1064	62.4199
1048	62.4071
1032	62.4747
1016	62.5061
1000	62.6052
984	 62.6106
968	 62.3785
952	 62.4137
936	 62.3208
920	 62.5649
904	 62.2838
888	 62.304
872	 62.3582
856	 62.4144
840	 62.3223
824	 62.5387
808	 62.2843
792	 62.2502
776	 62.0497
760	 62.0692
744	 61.9358
728	 62.0834
712	 61.9009
696	 61.5587
680	 61.996
664	 61.546
648	 61.5193
632	 61.2352
616	 62.212
600	 61.4685
584	 60.5803
568	 60.5022
552	 61.7263
536	 62.1888
520	 61.131
504	 60.68
488	 61.646
472	 61.3054
456	 60.5285
440	 59.5599
424	 61.6541
408	 61.0696
392	 60.0382
376	 50.1185
370	 48.5996