Folder: Masteroppgave/Bakgrunnsmateriale/MATLAB/FTIR/ftir_data/subAa/Mapping_121 (part 16)

File: BZ1503107-1_t31_cm-1.asc
PE IR       SPECTRUM    SPECTRUM    ASCII       PEDS        1.60
  -1
BZ69A0~1.ASC
17/04/07
15:46:48.00
17/04/07
15:46:48.00
tln
$BZ1503107-1_t0031$<tbV0>[-7.8,-7.8,8.0,0.0,27,1,0]
370
64

2002,4.07
MIRTGS : RIGHTBACK : INTERNAL 2
MIR : ON : INTERNAL 2
OPTKBR

0.200000
8
8.000000
FILLER
RATIO
SPECTRUM
UNLOCKED 256

DOUBLE
64
COMBINED
1
0
0

1.000000
RATIO

1
0
TRUE
51149
0
LEFT NOT FITTED RIGHT NOT FITTED 0
NONE
NONE
15600
12
4.427000
51148
TRUE
1 0 8 72 0 0 0 0

15798

#HDR
-1
-1
#GR
CM-1
%T
2.38419e-05
0.0
5000
-1.000000
4631
8
87.6863
44.2566
#DATA
5000	64.7804
4984	64.6409
4968	64.8889
4952	64.7161
4936	64.8211
4920	64.6639
4904	64.5659
4888	64.7859
4872	64.5193
4856	65.4219
4840	65.0762
4824	65.1036
4808	64.7123
4792	64.7807
4776	65.0954
4760	64.8714
4744	64.6986
4728	65.0173
4712	65.6342
4696	64.7798
4680	64.9907
4664	64.8114
4648	64.9064
4632	64.7755
4616	65.0188
4600	64.8863
4584	64.6965
4568	64.7352
4552	64.4318
4536	64.8241
4520	64.7899
4504	64.7646
4488	64.4892
4472	64.3297
4456	64.9257
4440	65.5432
4424	78.0068
4408	65.1429
4392	65.8026
4376	65.0783
4360	65.002
4344	65.0918
4328	64.9009
4312	64.6804
4296	64.8745
4280	65.0125
4264	65.0652
4248	64.7488
4232	64.8412
4216	64.8545
4200	65.1038
4184	64.8117
4168	64.8932
4152	64.8783
4136	65.2313
4120	65.0777
4104	65.0932
4088	64.9522
4072	65.1637
4056	64.9827
4040	64.9285
4024	64.9427
4008	64.9717
3992	65.1616
3976	65.1469
3960	64.8854
3944	64.9372
3928	65.1566
3912	64.8236
3896	64.9821
3880	65.1242
3864	65.0914
3848	65.0351
3832	65.0102
3816	65.193
3800	65.3311
3784	64.8465
3768	65.3013
3752	65.1934
3736	65.1056
3720	65.1801
3704	65.1864
3688	65.2112
3672	65.2299
3656	65.2919
3640	65.1255
3624	65.1182
3608	65.3517
3592	65.2048
3576	65.0663
3560	65.0806
3544	65.058
3528	64.9045
3512	65.0166
3496	64.964
3480	65.087
3464	65.0427
3448	65.1505
3432	64.971
3416	64.9679
3400	65.193
3384	65.3897
3368	65.0868
3352	65.0532
3336	65.1441
3320	65.1563
3304	64.9169
3288	65.1225
3272	65.0993
3256	64.8771
3240	65.1701
3224	65.1784
3208	65.0707
3192	64.9604
3176	65.1116
3160	65.1114
3144	64.9304
3128	65.2915
3112	65.0582
3096	65.0838
3080	65.1014
3064	65.1066
3048	65.1446
3032	64.9936
3016	64.9791
3000	65.1268
2984	65.1272
2968	64.9096
2952	64.9623
2936	64.9277
2920	65.0734
2904	65.0486
2888	65.0594
2872	65.0875
2856	65.0629
2840	65.0031
2824	65.1271
2808	65.041
2792	65.1748
2776	65.0579
2760	65.1477
2744	65.2147
2728	65.0339
2712	64.8962
2696	65.0445
2680	65.022
2664	64.977
2648	64.9265
2632	65.0266
2616	64.9147
2600	65.0967
2584	64.9896
2568	65.0148
2552	65.0004
2536	64.9848
2520	64.8684
2504	64.9923
2488	64.9003
2472	64.983
2456	64.835
2440	65.0283
2424	64.9458
2408	65.0367
2392	65.02
2376	64.8896
2360	64.9529
2344	64.9459
2328	65.0017
2312	64.9401
2296	64.8536
2280	64.9382
2264	64.814
2248	64.9211
2232	64.9239
2216	64.9088
2200	65.024
2184	64.9176
2168	64.8175
2152	64.7481
2136	64.7977
2120	64.7663
2104	64.7997
2088	64.875
2072	64.8649
2056	64.7932
2040	64.7577
2024	64.8662
2008	64.7718
1992	64.7142
1976	64.7816
1960	64.6399
1944	64.7548
1928	64.702
1912	64.687
1896	64.658
1880	64.6619
1864	64.6195
1848	64.7462
1832	64.6691
1816	64.615
1800	64.6482
1784	64.6499
1768	64.5528
1752	64.5132
1736	64.3538
1720	64.4064
1704	64.4896
1688	64.6326
1672	64.6789
1656	64.4308
1640	64.497
1624	64.3323
1608	64.5064
1592	64.418
1576	64.4366
1560	64.5518
1544	64.4278
1528	64.2703
1512	64.4456
1496	64.3394
1480	64.4907
1464	64.2985
1448	64.3014
1432	64.3839
1416	64.3227
1400	64.2666
1384	64.1997
1368	64.4063
1352	64.14
1336	64.4348
1320	64.2093
1304	64.2093
1288	64.1363
1272	64.2005
1256	64.1668
1240	64.2176
1224	64.1014
1208	64.086
1192	64.173
1176	64.0814
1160	64.1348
1144	64.071
1128	64.0782
1112	64.1603
1096	64.0776
1080	64.0995
1064	64.0906
1048	64.2379
1032	64.0227
1016	64.0171
1000	64.0114
984	 63.9385
968	 64.0292
952	 64.1787
936	 64.0176
920	 64.2897
904	 63.8616
888	 63.9241
872	 64.0776
856	 64.1098
840	 63.9368
824	 63.9223
808	 64.1386
792	 64.2208
776	 64.3174
760	 63.7743
744	 63.9755
728	 64.1238
712	 63.2683
696	 63.7914
680	 64.0199
664	 63.783
648	 63.1311
632	 64.0805
616	 63.879
600	 63.9442
584	 63.5969
568	 64.0569
552	 64.0881
536	 63.9282
520	 63.9462
504	 64.2998
488	 63.633
472	 63.7612
456	 62.5427
440	 63.0331
424	 62.5236
408	 64.7049
392	 64.3142
376	 46.6086
370	 87.6863

File: BZ1503107-1_t32.asc
PE IR       SPECTRUM    SPECTRUM    ASCII       PEDS        1.60
  -1
BZ2157~1.ASC
17/04/07
15:51:25.00
17/04/07
15:51:52.00
tln
$BZ1503107-1_t0032$<tbV0>[-10.4,-7.8,8.0,0.0,27,1,0]
27.028
64

2002,4.07
MIRTGS : RIGHTBACK : INTERNAL 2
MIR : ON : INTERNAL 2
OPTKBR

0.200000
8
8.000000
FILLER
RATIO
SPECTRUM
UNLOCKED 256

DOUBLE
64
COMBINED
1
0
0

0.002000
RATIO

1
0
TRUE
51149
0
LEFT NOT FITTED RIGHT NOT FITTED 0
NONE
NONE
15600
12
4.427000
51148
TRUE
1 0 8 72 0 0 0 0

15798

#HDR
-1
-1
#GR
µM
%T
2.38419e-05
0.0
2.000000
0.002000
12515
8
73.3845
44.7724
#DATA
2.000000	 64.1541
2.084000	 63.1855
2.168000	 63.6624
2.252000	 65.1837
2.336000	 63.7711
2.420000	 63.6592
2.504000	 64.0148
2.588000	 64.0652
2.672000	 64.1484
2.756000	 64.0991
2.840000	 64.1304
2.924000	 64.3376
3.008000	 64.0916
3.092000	 63.9921
3.176000	 64.0092
3.260000	 64.2197
3.344000	 64.1456
3.428000	 64.0888
3.512000	 64.0954
3.596000	 64.1716
3.680000	 64.2387
3.764000	 64.1
3.848000	 64.2376
3.932000	 64.1155
4.016000	 64.3269
4.100000	 64.1475
4.184000	 64.2688
4.268000	 64.2587
4.352000	 64.1716
4.436000	 64.1639
4.520000	 64.1928
4.604000	 64.1602
4.688000	 64.2617
4.772000	 64.2191
4.856000	 64.219
4.940000	 64.2421
5.024000	 64.128
5.108000	 64.188
5.192000	 64.1046
5.276000	 64.0018
5.359999	 64.2327
5.444000	 64.1912
5.528000	 64.1184
5.612000	 64.0808
5.696000	 64.0085
5.780000	 63.6278
5.864000	 64.0318
5.948000	 64.1391
6.032000	 63.9456
6.116000	 63.9989
6.200000	 63.96
6.284000	 63.9282
6.368000	 63.932
6.452000	 63.9219
6.536000	 63.979
6.620000	 64.0202
6.704000	 63.9849
6.788000	 63.9016
6.872000	 63.7565
6.956000	 64.0239
7.040000	 63.8778
7.124000	 63.8314
7.208000	 63.9169
7.292000	 63.9362
7.376000	 63.9381
7.460000	 63.9685
7.544000	 63.9163
7.628000	 63.8724
7.712000	 63.8104
7.796000	 63.783
7.880000	 63.7892
7.964000	 63.7211
8.048000	 63.7751
8.132000	 63.7592
8.216000	 63.7628
8.300000	 63.7487
8.384000	 63.7826
8.468000	 63.7678
8.552000	 63.6713
8.635999	 63.7208
8.719999	 63.7041
8.804000	 63.7817
8.888000	 63.7031
8.972000	 63.8079
9.056000	 63.7647
9.140000	 63.7078
9.224000	 63.7148
9.308000	 63.8594
9.391999	 63.7493
9.475999	 63.7913
9.560000	 63.7787
9.644000	 63.8278
9.728000	 64.0011
9.812000	 63.7527
9.896000	 63.7266
9.980000	 64.0072
10.064	63.9001
10.148	63.8219
10.232	63.8741
10.316	63.6858
10.4	63.6789
10.484	63.7558
10.568	63.7556
10.652	63.7281
10.736	63.7401
10.82	63.851
10.904	63.953
10.988	63.8279
11.072	63.8579
11.156	63.8705
11.24	63.9639
11.324	63.9803
11.408	64.1856
11.492	63.8717
11.576	64.0064
11.66	64.0694
11.744	63.8325
11.828	63.7975
11.912	63.959
11.996	63.9733
12.08	63.9783
12.164	63.8853
12.248	63.6551
12.332	63.7478
12.416	64.0009
12.5	63.9954
12.584	64.0805
12.668	63.9734
12.752	63.7917
12.836	63.8111
12.92	63.8803
13.004	64.0252
13.088	63.8412
13.172	63.6686
13.256	63.5922
13.34	63.5058
13.424	63.5075
13.508	63.3061
13.592	63.6206
13.676	64.3747
13.76	64.408
13.844	64.0658
13.928	63.9428
14.012	63.7215
14.096	63.4573
14.18	63.4127
14.264	63.5171
14.348	63.6278
14.432	63.9128
14.516	64.1691
14.6	63.8108
14.684	63.1466
14.768	62.9233
14.852	63.0995
14.936	63.2738
15.02	63.5608
15.104	63.8886
15.188	64.0268
15.272	64.0712
15.356	63.8821
15.44	63.5357
15.524	63.477
15.608	63.5954
15.692	63.5116
15.776	63.3513
15.86	63.3797
15.944	63.5483
16.028	63.7359
16.112	63.8231
16.196	63.7131
16.28	63.5555
16.364	63.5369
16.448	63.6246
16.532	63.7909
16.616	64.0765
16.7	64.3539
16.784	64.4065
16.868	64.2183
16.952	63.9979
17.036	63.9362
17.12	64.0336
17.204	64.1716
17.288	64.2631
17.372	64.2817
17.456	64.2021
17.54	64.0331
17.624	63.8944
17.708	63.9176
17.792	64.0887
17.876	64.2965
17.96	64.484
18.044	64.6093
18.128	64.5302
18.212	64.1688
18.296	63.7059
18.38	63.4085
18.464	63.3431
18.548	63.3729
18.632	63.3701
18.716	63.3521
18.8	63.4096
18.884	63.5576
18.968	63.6993
19.052	63.7248
19.136	63.6304
19.22	63.5171
19.304	63.4722
19.388	63.4945
19.472	63.5373
19.556	63.5612
19.64	63.5534
19.724	63.5325
19.808	63.5354
19.892	63.5802
19.976	63.6365
20.06	63.6549
20.144	63.6288
20.228	63.6097
20.312	63.6392
20.396	63.7006
20.48	63.7654
20.564	63.8615
20.648	64.049
20.732	64.3261
20.816	64.5817
20.9	64.6671
20.984	64.5122
21.068	64.1731
21.152	63.7728
21.236	63.4089
21.32	63.1316
21.404	62.9635
21.488	62.912
21.572	62.9612
21.656	63.0669
21.74	63.1801
21.824	63.272
21.908	63.3422
21.992	63.4092
22.076	63.4887
22.16	63.5702
22.244	63.6127
22.328	63.5565
22.412	63.3437
22.496	62.9555
22.58	62.4435
22.664	61.9247
22.748	61.5607
22.832	61.4875
22.916	61.7649
23	62.3424
23.084	63.0841
23.168	63.7985
23.252	64.3151
23.336	64.5107
23.42	64.353
23.504	63.8836
23.588	63.2341
23.672	62.5919
23.756	62.1401
23.84	61.9766
23.924	62.0835
24.008	62.3305
24.092	62.5132
24.176	62.4406
24.26	62.0361
24.344	61.3517
24.428	60.5344
24.512	59.7868
24.596	59.275
24.68	59.0845
24.764	59.1887
24.848	59.4599
24.932	59.6385
25.016	59.4243
25.1	58.6175
25.184	57.1883
25.268	55.3634
25.352	53.5915
25.436	52.4667
25.52	52.445
25.604	53.6221
25.688	55.6927
25.772	57.9797
25.856	59.6824
25.94	60.1857
26.024	59.2728
26.108	57.2222
26.192	54.6001
26.276	52.0258
26.36	49.9497
26.444	48.5993
26.528	48.0424
26.612	48.2884
26.696	49.4171
26.78	51.5939
26.864	54.9682
26.948	59.5348
27.028	64.721

File: BZ1503107-1_t32_cm-1.asc
PE IR       SPECTRUM    SPECTRUM    ASCII       PEDS        1.60
  -1
BZ6AA0~1.ASC
17/04/07
15:51:25.00
17/04/07
15:51:25.00
tln
$BZ1503107-1_t0032$<tbV0>[-10.4,-7.8,8.0,0.0,27,1,0]
370
64

2002,4.07
MIRTGS : RIGHTBACK : INTERNAL 2
MIR : ON : INTERNAL 2
OPTKBR

0.200000
8
8.000000
FILLER
RATIO
SPECTRUM
UNLOCKED 256

DOUBLE
64
COMBINED
1
0
0

1.000000
RATIO

1
0
TRUE
51149
0
LEFT NOT FITTED RIGHT NOT FITTED 0
NONE
NONE
15600
12
4.427000
51148
TRUE
1 0 8 72 0 0 0 0

15798

#HDR
-1
-1
#GR
CM-1
%T
2.38419e-05
0.0
5000
-1.000000
4631
8
74.5331
43.6573
#DATA
5000	64.1541
4984	63.5581
4968	63.1554
4952	63.7362
4936	63.2859
4920	63.0639
4904	63.5321
4888	63.2518
4872	63.369
4856	63.9271
4840	63.8087
4824	63.6582
4808	63.387
4792	63.1675
4776	63.5622
4760	63.5815
4744	63.6751
4728	63.8267
4712	64.0445
4696	63.7897
4680	63.4387
4664	63.1968
4648	63.6817
4632	63.6061
4616	63.7493
4600	63.5058
4584	63.8067
4568	63.3398
4552	63.4441
4536	63.6804
4520	63.925
4504	63.7283
4488	63.6266
4472	63.973
4456	64.646
4440	65.386
4424	71.9889
4408	47.1095
4392	63.7085
4376	63.7832
4360	64.2354
4344	63.6123
4328	64.1503
4312	64.0282
4296	64.1855
4280	63.7497
4264	63.8367
4248	63.7024
4232	63.823
4216	63.7911
4200	63.6769
4184	63.739
4168	63.8493
4152	63.9082
4136	63.7048
4120	63.8482
4104	63.8798
4088	63.7784
4072	63.7418
4056	63.9065
4040	63.8827
4024	63.9357
4008	63.8872
3992	63.9854
3976	63.9969
3960	63.9855
3944	63.9251
3928	64.0411
3912	64.0865
3896	64.1504
3880	63.7617
3864	64.0653
3848	64.1425
3832	63.9506
3816	64.023
3800	64.2765
3784	63.967
3768	64.1222
3752	64.0726
3736	64.1998
3720	63.9953
3704	64.085
3688	63.8625
3672	64.0513
3656	64.1411
3640	64.0476
3624	64.1479
3608	64.2527
3592	64.2072
3576	63.932
3560	64.1602
3544	64.1479
3528	64.1144
3512	63.9818
3496	64.0894
3480	63.9785
3464	64.0776
3448	64.079
3432	64.1234
3416	64.228
3400	64.3023
3384	64.297
3368	64.2282
3352	64.1244
3336	64.0335
3320	64.0684
3304	64.0667
3288	63.9807
3272	64.0551
3256	63.9886
3240	64.0708
3224	64.0573
3208	64.0711
3192	63.9086
3176	64.1032
3160	64.1776
3144	63.9437
3128	64.0186
3112	64.1159
3096	64.1953
3080	64.1882
3064	64.3059
3048	64.0563
3032	64.0635
3016	64.0131
3000	64.0859
2984	64.2752
2968	63.9423
2952	64.0206
2936	64.1002
2920	64.0852
2904	64.137
2888	64.2265
2872	64.0693
2856	64.1395
2840	64.1393
2824	64.2471
2808	64.205
2792	64.3584
2776	64.2093
2760	64.1487
2744	64.2473
2728	64.1525
2712	64.1328
2696	64.2317
2680	64.2819
2664	64.0626
2648	64.2187
2632	64.2632
2616	64.1606
2600	64.2386
2584	64.1384
2568	64.164
2552	64.1357
2536	64.2345
2520	64.1767
2504	64.2023
2488	64.3291
2472	64.1357
2456	64.1325
2440	64.1506
2424	64.217
2408	64.1503
2392	64.2776
2376	64.1729
2360	64.2434
2344	64.2594
2328	64.1864
2312	64.2168
2296	64.1404
2280	64.098
2264	64.1111
2248	64.1469
2232	64.2023
2216	64.1937
2200	64.2187
2184	64.1775
2168	64.1474
2152	64.2041
2136	64.1958
2120	64.2083
2104	64.149
2088	64.0752
2072	64.2247
2056	64.2177
2040	64.0151
2024	64.2462
2008	64.0971
1992	64.1288
1976	64.1168
1960	64.1791
1944	64.0931
1928	64.0879
1912	64.095
1896	63.9965
1880	64.1883
1864	64.1941
1848	64.1073
1832	64.1799
1816	64.0811
1800	64.1846
1784	64.0742
1768	64.0585
1752	64.0304
1736	63.6156
1720	63.8545
1704	64.0519
1688	64.1849
1672	64.0714
1656	63.9181
1640	63.9474
1624	63.9132
1608	64.0109
1592	63.9305
1576	63.876
1560	64.0659
1544	63.9228
1528	63.9551
1512	64.0121
1496	63.9862
1480	63.9746
1464	63.9287
1448	63.9122
1432	63.9668
1416	63.9094
1400	63.7896
1384	63.9021
1368	63.9159
1352	63.8942
1336	64.1016
1320	63.8395
1304	63.8223
1288	63.7954
1272	63.7638
1256	63.7218
1240	63.7672
1224	63.8021
1208	63.7436
1192	63.7772
1176	63.7187
1160	63.7286
1144	63.7308
1128	63.7483
1112	63.7915
1096	63.6911
1080	63.6865
1064	63.7167
1048	63.846
1032	63.9331
1016	63.6618
1000	63.9991
984	 63.816
968	 63.6574
952	 63.7586
936	 63.7623
920	 64.0048
904	 63.8795
888	 63.9383
872	 63.9552
856	 64.0228
840	 63.9504
824	 63.9498
808	 63.8956
792	 64.0854
776	 63.8271
760	 63.6816
744	 63.4778
728	 64.4817
712	 63.6027
696	 63.6721
680	 63.0293
664	 63.7366
648	 63.5609
632	 63.3409
616	 63.6326
600	 64.2608
584	 64.039
568	 63.914
552	 64.5597
536	 63.3622
520	 63.5067
504	 63.5488
488	 63.7757
472	 63.6153
456	 63.3589
440	 61.6274
424	 63.2586
408	 59.8036
392	 52.3837
376	 48.175
370	 64.721

File: BZ1503107-1_t33.asc
PE IR       SPECTRUM    SPECTRUM    ASCII       PEDS        1.60
  -1
BZ2557~1.ASC
17/04/07
15:56:02.00
17/04/07
15:56:29.00
tln
$BZ1503107-1_t0033$<tbV0>[-13.0,-7.8,8.0,0.0,27,1,0]
27.028
64

2002,4.07
MIRTGS : RIGHTBACK : INTERNAL 2
MIR : ON : INTERNAL 2
OPTKBR

0.200000
8
8.000000
FILLER
RATIO
SPECTRUM
UNLOCKED 256

DOUBLE
64
COMBINED
1
0
0

0.002000
RATIO

1
0
TRUE
51149
0
LEFT NOT FITTED RIGHT NOT FITTED 0
NONE
NONE
15600
12
4.427000
51148
TRUE
1 0 8 72 0 0 0 0

15798

#HDR
-1
-1
#GR
µM
%T
2.38419e-05
0.0
2.000000
0.002000
12515
8
76.6354
48.5142
#DATA
2.000000	 65.3728
2.084000	 64.983
2.168000	 64.5896
2.252000	 65.6016
2.336000	 64.5894
2.420000	 65.0353
2.504000	 65.2973
2.588000	 64.9439
2.672000	 65.0864
2.756000	 65.2375
2.840000	 65.0093
2.924000	 65.2725
3.008000	 65.0829
3.092000	 65.0739
3.176000	 64.9979
3.260000	 65.0556
3.344000	 65.2633
3.428000	 64.8962
3.512000	 64.8798
3.596000	 64.9256
3.680000	 65.1936
3.764000	 64.9871
3.848000	 65.0756
3.932000	 64.9502
4.016000	 64.9631
4.100000	 64.9251
4.184000	 64.9811
4.268000	 64.8841
4.352000	 64.9762
4.436000	 64.8233
4.520000	 64.8947
4.604000	 64.7347
4.688000	 64.8244
4.772000	 64.8561
4.856000	 64.7367
4.940000	 64.9032
5.024000	 64.7942
5.108000	 64.8396
5.192000	 64.806
5.276000	 64.7288
5.359999	 64.8317
5.444000	 64.7816
5.528000	 64.6861
5.612000	 64.6625
5.696000	 64.5373
5.780000	 64.2906
5.864000	 64.5392
5.948000	 64.5488
6.032000	 64.531
6.116000	 64.4695
6.200000	 64.3902
6.284000	 64.4296
6.368000	 64.4135
6.452000	 64.4125
6.536000	 64.4096
6.620000	 64.5327
6.704000	 64.4267
6.788000	 64.4471
6.872000	 64.5643
6.956000	 64.5814
7.040000	 64.3442
7.124000	 64.3503
7.208000	 64.3403
7.292000	 64.5295
7.376000	 64.3464
7.460000	 64.327
7.544000	 64.3014
7.628000	 64.3281
7.712000	 64.3105
7.796000	 64.317
7.880000	 64.2623
7.964000	 64.2223
8.048000	 64.2726
8.132000	 64.0705
8.216000	 64.2225
8.300000	 64.2283
8.384000	 64.0163
8.468000	 64.1743
8.552000	 64.0297
8.635999	 64.0751
8.719999	 64.0974
8.804000	 63.9876
8.888000	 64.0438
8.972000	 64.1394
9.056000	 64.2996
9.140000	 64.057
9.224000	 64.1277
9.308000	 64.0719
9.391999	 64.0425
9.475999	 64.0954
9.560000	 64.0737
9.644000	 64.1256
9.728000	 64.1176
9.812000	 64.0548
9.896000	 64.0985
9.980000	 64.286
10.064	64.3019
10.148	64.2282
10.232	64.2831
10.316	64.2065
10.4	64.3027
10.484	64.4239
10.568	64.2604
10.652	64.1383
10.736	64.206
10.82	64.3341
10.904	64.4654
10.988	64.3129
11.072	64.2111
11.156	64.1578
11.24	64.2629
11.324	64.2132
11.408	64.2511
11.492	64.3652
11.576	64.3078
11.66	64.1514
11.744	64.086
11.828	64.1337
11.912	64.215
11.996	64.159
12.08	64.1628
12.164	64.1954
12.248	64.0865
12.332	64.0301
12.416	63.8686
12.5	64.0763
12.584	64.3393
12.668	64.3744
12.752	64.3278
12.836	64.0958
12.92	64.0763
13.004	64.0973
13.088	63.94
13.172	63.762
13.256	63.8118
13.34	64.0546
13.424	64.31
13.508	64.4467
13.592	64.2586
13.676	64.0048
13.76	63.5118
13.844	63.4031
13.928	63.9738
14.012	64.3696
14.096	64.3161
14.18	64.1756
14.264	64.1587
14.348	64.4094
14.432	64.4576
14.516	64.0188
14.6	63.6654
14.684	63.3021
14.768	62.9098
14.852	63.0621
14.936	63.5233
15.02	63.6845
15.104	63.463
15.188	63.2339
15.272	63.2786
15.356	63.4348
15.44	63.6353
15.524	64.0803
15.608	64.6068
15.692	64.8089
15.776	64.6784
15.86	64.515
15.944	64.4251
16.028	64.3113
16.112	64.0919
16.196	63.7756
16.28	63.5319
16.364	63.5599
16.448	63.7967
16.532	64.0359
16.616	64.2487
16.7	64.4843
16.784	64.6432
16.868	64.5911
16.952	64.3293
17.036	63.9708
17.12	63.6972
17.204	63.6921
17.288	63.9752
17.372	64.3646
17.456	64.6355
17.54	64.6712
17.624	64.4912
17.708	64.2249
17.792	64.05
17.876	64.0804
17.96	64.301
18.044	64.5809
18.128	64.7097
18.212	64.5567
18.296	64.1985
18.38	63.8267
18.464	63.5927
18.548	63.5403
18.632	63.6086
18.716	63.6994
18.8	63.7647
18.884	63.8036
18.968	63.8189
19.052	63.8127
19.136	63.8025
19.22	63.8216
19.304	63.9026
19.388	64.0308
19.472	64.1215
19.556	64.0757
19.64	63.8865
19.724	63.675
19.808	63.5915
19.892	63.6868
19.976	63.8728
20.06	64.0096
20.144	64.0225
20.228	63.9363
20.312	63.8289
20.396	63.7751
20.48	63.8213
20.564	63.9729
20.648	64.17
20.732	64.297
20.816	64.2572
20.9	64.0595
20.984	63.8318
21.068	63.7281
21.152	63.8018
21.236	63.9603
21.32	64.0407
21.404	63.9398
21.488	63.6954
21.572	63.4481
21.656	63.3284
21.74	63.3709
21.824	63.5102
21.908	63.6439
21.992	63.7038
22.076	63.6792
22.16	63.5999
22.244	63.5064
22.328	63.4163
22.412	63.3137
22.496	63.1679
22.58	62.9702
22.664	62.7574
22.748	62.6151
22.832	62.6266
22.916	62.8174
23	63.1052
23.084	63.3436
23.168	63.3875
23.252	63.1819
23.336	62.7751
23.42	62.2969
23.504	61.8765
23.588	61.5785
23.672	61.4042
23.756	61.335
23.84	61.3669
23.924	61.5141
24.008	61.7709
24.092	62.0719
24.176	62.2927
24.26	62.3551
24.344	62.2833
24.428	62.1935
24.512	62.2458
24.596	62.5134
24.68	62.8978
24.764	63.1404
24.848	62.9622
24.932	62.2155
25.016	61.0191
25.1	59.7204
25.184	58.7898
25.268	58.5972
25.352	59.2738
25.436	60.6384
25.52	62.2593
25.604	63.6476
25.688	64.3443
25.772	64.0496
25.856	62.6768
25.94	60.3702
26.024	57.4697
26.108	54.4093
26.192	51.6704
26.276	49.6664
26.36	48.6428
26.444	48.6335
26.528	49.4612
26.612	50.76
26.696	52.0864
26.78	53.0307
26.864	53.3565
26.948	53.1074
27.028	52.6476

File: BZ1503107-1_t33_cm-1.asc
PE IR       SPECTRUM    SPECTRUM    ASCII       PEDS        1.60
  -1
BZ6BA0~1.ASC
17/04/07
15:56:02.00
17/04/07
15:56:02.00
tln
$BZ1503107-1_t0033$<tbV0>[-13.0,-7.8,8.0,0.0,27,1,0]
370
64

2002,4.07
MIRTGS : RIGHTBACK : INTERNAL 2
MIR : ON : INTERNAL 2
OPTKBR

0.200000
8
8.000000
FILLER
RATIO
SPECTRUM
UNLOCKED 256

DOUBLE
64
COMBINED
1
0
0

1.000000
RATIO

1
0
TRUE
51149
0
LEFT NOT FITTED RIGHT NOT FITTED 0
NONE
NONE
15600
12
4.427000
51148
TRUE
1 0 8 72 0 0 0 0

15798

#HDR
-1
-1
#GR
CM-1
%T
2.38419e-05
0.0
5000
-1.000000
4631
8
76.6842
48.5344
#DATA
5000	65.3728
4984	64.514
4968	64.2419
4952	64.316
4936	64.2495
4920	64.5835
4904	64.7212
4888	64.6764
4872	64.734
4856	65.0295
4840	65.1317
4824	65.1222
4808	65.0789
4792	64.8354
4776	64.9945
4760	65.0988
4744	65.3927
4728	65.2019
4712	65.5805
4696	65.2955
4680	65.0494
4664	64.7497
4648	64.8759
4632	64.5524
4616	64.6842
4600	64.1659
4584	64.6476
4568	64.3228
4552	64.2983
4536	64.2169
4520	63.6649
4504	64.1203
4488	63.9465
4472	64.0811
4456	64.8968
4440	65.837
4424	76.2518
4408	73.904
4392	64.4273
4376	63.7651
4360	64.1901
4344	64.4192
4328	63.9843
4312	64.1781
4296	64.4048
4280	64.5726
4264	64.793
4248	64.5017
4232	64.8234
4216	65.0167
4200	65.3884
4184	64.9229
4168	64.9986
4152	65.0645
4136	64.9995
4120	65.2329
4104	65.3583
4088	65.1967
4072	65.23
4056	65.3353
4040	65.2485
4024	65.0818
4008	65.2488
3992	65.2984
3976	65.0522
3960	65.1589
3944	65.0701
3928	65.0033
3912	65.0829
3896	65.0795
3880	64.925
3864	64.944
3848	65.026
3832	65.0941
3816	65.396
3800	65.108
3784	65.0132
3768	65.1807
3752	65.0727
3736	65.0908
3720	65.187
3704	65.2117
3688	65.0832
3672	65.2246
3656	65.5332
3640	65.1481
3624	65.276
3608	65.2644
3592	65.2272
3576	65.05
3560	64.8843
3544	65.1753
3528	64.9703
3512	65.1622
3496	64.9645
3480	64.9837
3464	65.0584
3448	64.9546
3432	65.1016
3416	65.2109
3400	65.1266
3384	65.2018
3368	65.1836
3352	65.1442
3336	65.2305
3320	65.1239
3304	65.0175
3288	65.1155
3272	65.2664
3256	65.1031
3240	65.1055
3224	65.2385
3208	65.12
3192	65.185
3176	65.1439
3160	65.0284
3144	64.8728
3128	64.9994
3112	65.1495
3096	65.1093
3080	65.0413
3064	65.1134
3048	64.9992
3032	64.9256
3016	64.9412
3000	65.2268
2984	65.1882
2968	64.897
2952	65.0697
2936	64.78
2920	64.9104
2904	64.9453
2888	65.0532
2872	64.9374
2856	65.0853
2840	65.0091
2824	65.0931
2808	64.9876
2792	65.1603
2776	65.0194
2760	65.1934
2744	65.0519
2728	65.0539
2712	65.07
2696	65.2003
2680	65.1802
2664	64.9422
2648	65.0486
2632	65.0311
2616	64.9179
2600	65.0508
2584	65.0298
2568	65.0105
2552	65.1286
2536	64.9916
2520	64.888
2504	64.9418
2488	64.9455
2472	64.9863
2456	64.8913
2440	64.8969
2424	64.8745
2408	65.0332
2392	64.954
2376	64.9621
2360	64.9601
2344	64.8867
2328	64.9859
2312	64.901
2296	64.9594
2280	64.9352
2264	64.7624
2248	64.9261
2232	64.9114
2216	64.8906
2200	64.8577
2184	64.8443
2168	64.805
2152	64.8735
2136	64.8614
2120	64.8982
2104	64.8992
2088	64.801
2072	64.797
2056	64.7196
2040	64.751
2024	64.9053
2008	64.8444
1992	64.8033
1976	64.8145
1960	64.8418
1944	64.8452
1928	64.8113
1912	64.7684
1896	64.7146
1880	64.6767
1864	64.8193
1848	64.8461
1832	64.7024
1816	64.7658
1800	64.8027
1784	64.6729
1768	64.6121
1752	64.5306
1736	64.2644
1720	64.3836
1704	64.546
1688	64.5671
1672	64.6054
1656	64.5101
1640	64.4196
1624	64.369
1608	64.3937
1592	64.4324
1576	64.3891
1560	64.4699
1544	64.4484
1528	64.3815
1512	64.5438
1496	64.4849
1480	64.4582
1464	64.4914
1448	64.4341
1432	64.4643
1416	64.3884
1400	64.3199
1384	64.3376
1368	64.4653
1352	64.3417
1336	64.4359
1320	64.2882
1304	64.2911
1288	64.2943
1272	64.278
1256	64.2287
1240	64.2417
1224	64.1473
1208	64.2701
1192	64.0076
1176	64.1637
1160	64.045
1144	64.1025
1128	64.0293
1112	64.1522
1096	64.098
1080	64.1117
1064	64.0381
1048	64.1281
1032	64.1195
1016	64.0512
1000	64.3193
984	 64.2518
968	 64.2181
952	 64.3907
936	 64.1553
920	 64.4434
904	 64.2297
888	 64.2591
872	 64.3611
856	 64.1236
840	 64.2142
824	 64.2164
808	 63.9283
792	 64.368
776	 64.0465
760	 63.7853
744	 64.3624
728	 63.6575
712	 64.3828
696	 64.4678
680	 63.1778
664	 63.6091
648	 63.6081
632	 64.5771
616	 63.642
600	 64.391
584	 63.6912
568	 64.5439
552	 64.7076
536	 63.6365
520	 63.8281
504	 63.6102
488	 63.8367
472	 63.8661
456	 63.6681
440	 62.6385
424	 61.5872
408	 62.2416
392	 62.0758
376	 50.4961
370	 52.6476