Folder: Masteroppgave/Bakgrunnsmateriale/MATLAB/FTIR/ftir_data/subAa/Mapping_121 (part 24)

File: BZ1503107-1_t51_cm-1.asc
PE IR       SPECTRUM    SPECTRUM    ASCII       PEDS        1.60
  -1
BZ69A3~1.ASC
17/04/07
17:26:46.00
17/04/07
17:26:46.00
tln
$BZ1503107-1_t0051$<tbV0>[-2.6,-2.6,8.0,0.0,27,1,0]
370
64

2002,4.07
MIRTGS : RIGHTBACK : INTERNAL 2
MIR : ON : INTERNAL 2
OPTKBR

0.200000
8
8.000000
FILLER
RATIO
SPECTRUM
UNLOCKED 256

DOUBLE
64
COMBINED
1
0
0

1.000000
RATIO

1
0
TRUE
51149
0
LEFT NOT FITTED RIGHT NOT FITTED 0
NONE
NONE
15600
12
4.427000
51148
TRUE
1 0 8 72 0 0 0 0

15798

#HDR
-1
-1
#GR
CM-1
%T
2.38419e-05
0.0
5000
-1.000000
4631
8
70.283
39.9332
#DATA
5000	64.8716
4984	66.1298
4968	65.2268
4952	65.1172
4936	64.6767
4920	64.8389
4904	64.6233
4888	64.6012
4872	64.8373
4856	64.6657
4840	64.6205
4824	64.5539
4808	64.2619
4792	64.6256
4776	65.0171
4760	64.9742
4744	64.7073
4728	64.6534
4712	64.2098
4696	64.452
4680	65.0717
4664	64.298
4648	65.0946
4632	65.0894
4616	64.7247
4600	65.1591
4584	65.1625
4568	65.1843
4552	65.429
4536	65.518
4520	65.3689
4504	65.4503
4488	65.8574
4472	65.1865
4456	65.7407
4440	69.8941
4424	51.394
4408	66.2077
4392	66.1859
4376	65.5217
4360	66.0071
4344	65.1964
4328	65.7305
4312	64.932
4296	65.4719
4280	65.3835
4264	65.1779
4248	65.0877
4232	65.0702
4216	64.9189
4200	64.9903
4184	65.1133
4168	64.9169
4152	64.5997
4136	64.6016
4120	65.0748
4104	64.7668
4088	64.6999
4072	64.8614
4056	64.9355
4040	64.9539
4024	64.995
4008	64.8299
3992	65.0645
3976	65.2691
3960	65.2083
3944	65.0888
3928	64.9969
3912	65.1452
3896	65.0168
3880	65.1821
3864	65.059
3848	64.9624
3832	65.0866
3816	65.0972
3800	64.8732
3784	65.1744
3768	64.7502
3752	65.1309
3736	65.0245
3720	65.0218
3704	65.1458
3688	65.1491
3672	64.8542
3656	65.1456
3640	65.208
3624	65.0265
3608	65.1407
3592	65.0571
3576	64.967
3560	65.1977
3544	65.2091
3528	65.0342
3512	65.1192
3496	65.2226
3480	65.2339
3464	65.0324
3448	65.1215
3432	65.0063
3416	65.102
3400	65.0601
3384	64.9285
3368	65.1607
3352	64.8801
3336	65.0059
3320	65.0009
3304	65.1052
3288	64.9399
3272	64.9828
3256	65.1184
3240	64.8276
3224	65.0104
3208	64.8808
3192	65.0795
3176	65.0087
3160	65.1336
3144	65.0526
3128	65.0845
3112	65.0803
3096	64.9669
3080	65.0476
3064	65.0088
3048	64.9502
3032	65.1182
3016	65.0486
3000	64.9604
2984	64.9538
2968	64.7886
2952	65.0522
2936	64.7499
2920	64.9153
2904	64.9164
2888	64.8691
2872	64.818
2856	64.8747
2840	64.8574
2824	64.8682
2808	64.9921
2792	64.933
2776	64.9732
2760	64.8696
2744	64.8977
2728	64.8771
2712	64.9935
2696	64.9285
2680	64.9539
2664	64.9111
2648	64.9678
2632	64.8758
2616	65.0014
2600	64.9272
2584	64.955
2568	64.794
2552	64.8426
2536	64.8107
2520	64.9803
2504	64.8994
2488	64.8479
2472	64.8401
2456	64.865
2440	64.8336
2424	64.8103
2408	64.8765
2392	64.827
2376	64.7776
2360	64.7681
2344	64.7784
2328	64.7003
2312	64.7951
2296	64.7899
2280	64.7218
2264	64.8972
2248	64.7194
2232	64.8425
2216	64.7175
2200	64.7784
2184	64.6471
2168	64.5923
2152	64.5454
2136	64.6338
2120	64.7677
2104	64.7475
2088	64.6408
2072	64.6118
2056	64.7269
2040	64.6719
2024	64.649
2008	64.6117
1992	64.6683
1976	64.6971
1960	64.536
1944	64.5951
1928	64.4632
1912	64.531
1896	64.458
1880	64.5641
1864	64.5319
1848	64.5913
1832	64.5147
1816	64.5066
1800	64.4901
1784	64.4649
1768	64.4114
1752	64.3904
1736	64.132
1720	64.2562
1704	64.2451
1688	64.3406
1672	64.4024
1656	64.263
1640	64.2087
1624	64.2604
1608	64.2206
1592	64.1668
1576	64.1421
1560	64.2709
1544	64.1188
1528	64.2087
1512	64.1136
1496	64.0558
1480	64.1504
1464	64.1496
1448	63.9445
1432	64.0871
1416	64.1205
1400	64.1005
1384	64.0362
1368	64.1121
1352	63.9907
1336	63.9218
1320	64.0651
1304	64.0568
1288	64.0698
1272	64.0766
1256	63.9394
1240	63.8983
1224	63.9475
1208	63.9449
1192	63.8014
1176	63.8703
1160	63.6394
1144	63.6745
1128	63.7571
1112	63.7495
1096	64.0211
1080	63.6682
1064	63.8457
1048	63.6023
1032	63.6106
1016	63.5937
1000	64.0114
984	 63.9204
968	 63.7678
952	 63.5081
936	 63.6471
920	 63.656
904	 63.8431
888	 63.8425
872	 63.7389
856	 63.7919
840	 63.7566
824	 63.7338
808	 63.5911
792	 63.5519
776	 63.8801
760	 63.5611
744	 63.6674
728	 63.5837
712	 63.182
696	 63.0269
680	 63.4564
664	 63.1396
648	 64.2915
632	 63.7577
616	 63.2803
600	 63.6294
584	 63.3512
568	 61.9456
552	 63.3731
536	 61.933
520	 64.1519
504	 63.1785
488	 63.1761
472	 63.643
456	 62.3207
440	 63.0774
424	 65.1047
408	 61.9721
392	 59.0388
376	 39.9332
370	 52.6925

File: BZ1503107-1_t52.asc
PE IR       SPECTRUM    SPECTRUM    ASCII       PEDS        1.60
  -1
BZ2153~1.ASC
17/04/07
17:31:23.00
17/04/07
17:31:49.00
tln
$BZ1503107-1_t0052$<tbV0>[-5.2,-2.6,8.0,0.0,27,1,0]
27.028
64

2002,4.07
MIRTGS : RIGHTBACK : INTERNAL 2
MIR : ON : INTERNAL 2
OPTKBR

0.200000
8
8.000000
FILLER
RATIO
SPECTRUM
UNLOCKED 256

DOUBLE
64
COMBINED
1
0
0

0.002000
RATIO

1
0
TRUE
51149
0
LEFT NOT FITTED RIGHT NOT FITTED 0
NONE
NONE
15600
12
4.427000
51148
TRUE
1 0 8 72 0 0 0 0

15798

#HDR
-1
-1
#GR
µM
%T
2.38419e-05
0.0
2.000000
0.002000
12515
8
73.1848
54.0913
#DATA
2.000000	 66.481
2.084000	 64.7655
2.168000	 64.7472
2.252000	 73.1848
2.336000	 64.8295
2.420000	 64.8594
2.504000	 65.1232
2.588000	 65.0551
2.672000	 65.0069
2.756000	 65.2977
2.840000	 65.2513
2.924000	 65.0497
3.008000	 65.1801
3.092000	 64.8807
3.176000	 64.9174
3.260000	 64.93
3.344000	 64.8986
3.428000	 64.6954
3.512000	 65.025
3.596000	 64.9175
3.680000	 64.9182
3.764000	 64.9446
3.848000	 64.9321
3.932000	 64.8036
4.016000	 64.8245
4.100000	 64.7985
4.184000	 64.8848
4.268000	 64.9001
4.352000	 64.7312
4.436000	 64.7736
4.520000	 64.7154
4.604000	 64.6238
4.688000	 64.7218
4.772000	 64.7114
4.856000	 64.7012
4.940000	 64.5485
5.024000	 64.5351
5.108000	 64.4289
5.192000	 64.5626
5.276000	 64.4963
5.359999	 64.5407
5.444000	 64.5695
5.528000	 64.4621
5.612000	 64.4536
5.696000	 64.355
5.780000	 64.149
5.864000	 64.3437
5.948000	 64.1879
6.032000	 64.3345
6.116000	 64.1895
6.200000	 64.2531
6.284000	 64.1942
6.368000	 64.0773
6.452000	 64.1952
6.536000	 64.1662
6.620000	 64.2002
6.704000	 64.2279
6.788000	 64.1251
6.872000	 64.1513
6.956000	 64.1913
7.040000	 64.1667
7.124000	 64.1138
7.208000	 64.0294
7.292000	 64.1484
7.376000	 64.1179
7.460000	 63.9545
7.544000	 64.0328
7.628000	 64.0708
7.712000	 64.0845
7.796000	 63.9981
7.880000	 64.0716
7.964000	 63.975
8.048000	 64.0208
8.132000	 63.8314
8.216000	 63.9272
8.300000	 64.0077
8.384000	 63.9017
8.468000	 63.9481
8.552000	 63.9577
8.635999	 63.7487
8.719999	 63.7093
8.804000	 63.8114
8.888000	 63.7809
8.972000	 63.7342
9.056000	 63.804
9.140000	 63.7207
9.224000	 63.7467
9.308000	 63.8431
9.391999	 63.73
9.475999	 63.7593
9.560000	 63.6462
9.644000	 63.7681
9.728000	 63.8251
9.812000	 63.6489
9.896000	 63.6223
9.980000	 63.8611
10.064	63.9004
10.148	63.9248
10.232	63.7772
10.316	63.8323
10.4	63.6379
10.484	63.6538
10.568	63.6809
10.652	63.4881
10.736	63.4781
10.82	63.736
10.904	63.8137
10.988	63.8022
11.072	63.8878
11.156	63.6605
11.24	63.6164
11.324	63.6363
11.408	63.6882
11.492	63.6414
11.576	63.6578
11.66	63.8793
11.744	63.8286
11.828	63.7194
11.912	63.6408
11.996	63.6682
12.08	63.7441
12.164	63.6047
12.248	63.5086
12.332	63.6659
12.416	63.7422
12.5	63.5991
12.584	63.4471
12.668	63.4199
12.752	63.5051
12.836	63.6367
12.92	63.4836
13.004	63.4297
13.088	63.5299
13.172	63.5046
13.256	63.5335
13.34	63.5789
13.424	63.6357
13.508	63.6667
13.592	63.6443
13.676	63.5113
13.76	63.3473
13.844	63.3158
13.928	63.3174
14.012	63.3769
14.096	63.3836
14.18	63.2265
14.264	63.071
14.348	63.047
14.432	63.0899
14.516	63.2721
14.6	63.4572
14.684	63.5121
14.768	63.5432
14.852	63.4769
14.936	63.415
15.02	63.4946
15.104	63.6786
15.188	63.9037
15.272	63.9914
15.356	63.9166
15.44	63.7471
15.524	63.432
15.608	63.1707
15.692	63.1169
15.776	62.9993
15.86	62.8363
15.944	63.0995
16.028	63.7857
16.112	64.1724
16.196	63.7322
16.28	62.9136
16.364	62.6054
16.448	62.9476
16.532	63.3166
16.616	63.4809
16.7	63.7859
16.784	64.2045
16.868	64.2635
16.952	63.8654
17.036	63.4114
17.12	63.2377
17.204	63.3456
17.288	63.5053
17.372	63.4838
17.456	63.2895
17.54	63.1399
17.624	63.0917
17.708	62.9352
17.792	62.56
17.876	62.1664
17.96	62.0027
18.044	62.1034
18.128	62.3523
18.212	62.6348
18.296	62.8354
18.38	62.8363
18.464	62.588
18.548	62.1875
18.632	61.8468
18.716	61.7422
18.8	61.894
18.884	62.2012
18.968	62.5675
19.052	62.9373
19.136	63.2279
19.22	63.3128
19.304	63.1418
19.388	62.8229
19.472	62.5421
19.556	62.4226
19.64	62.4783
19.724	62.6726
19.808	62.9694
19.892	63.3116
19.976	63.5931
20.06	63.6932
20.144	63.5592
20.228	63.2511
20.312	62.8973
20.396	62.6121
20.48	62.4437
20.564	62.3811
20.648	62.385
20.732	62.419
20.816	62.4653
20.9	62.5156
20.984	62.5544
21.068	62.5547
21.152	62.5014
21.236	62.4147
21.32	62.3521
21.404	62.3682
21.488	62.4866
21.572	62.6879
21.656	62.9227
21.74	63.1407
21.824	63.2989
21.908	63.3642
21.992	63.3155
22.076	63.1517
22.16	62.9211
22.244	62.7162
22.328	62.6303
22.412	62.7011
22.496	62.8534
22.58	62.9325
22.664	62.7886
22.748	62.3738
22.832	61.788
22.916	61.2353
23	60.932
23.084	61.0012
23.168	61.435
23.252	62.1256
23.336	62.9303
23.42	63.7495
23.504	64.5166
23.588	65.1601
23.672	65.5749
23.756	65.6293
23.84	65.2351
23.924	64.438
24.008	63.4212
24.092	62.4431
24.176	61.738
24.26	61.4135
24.344	61.425
24.428	61.6304
24.512	61.8872
24.596	62.1254
24.68	62.3506
24.764	62.599
24.848	62.868
24.932	63.0691
25.016	63.0548
25.1	62.7121
25.184	62.0149
25.268	61.089
25.352	60.201
25.436	59.6792
25.52	59.778
25.604	60.5843
25.688	61.9708
25.772	63.6102
25.856	65.089
25.94	65.981
26.024	65.9797
26.108	65.0331
26.192	63.3045
26.276	61.0974
26.36	58.7366
26.444	56.5826
26.528	54.9776
26.612	54.162
26.696	54.2624
26.78	55.268
26.864	57.0324
26.948	59.3896
27.028	62.1351

File: BZ1503107-1_t52_cm-1.asc
PE IR       SPECTRUM    SPECTRUM    ASCII       PEDS        1.60
  -1
BZ6AA3~1.ASC
17/04/07
17:31:23.00
17/04/07
17:31:23.00
tln
$BZ1503107-1_t0052$<tbV0>[-5.2,-2.6,8.0,0.0,27,1,0]
370
64

2002,4.07
MIRTGS : RIGHTBACK : INTERNAL 2
MIR : ON : INTERNAL 2
OPTKBR

0.200000
8
8.000000
FILLER
RATIO
SPECTRUM
UNLOCKED 256

DOUBLE
64
COMBINED
1
0
0

1.000000
RATIO

1
0
TRUE
51149
0
LEFT NOT FITTED RIGHT NOT FITTED 0
NONE
NONE
15600
12
4.427000
51148
TRUE
1 0 8 72 0 0 0 0

15798

#HDR
-1
-1
#GR
CM-1
%T
2.38419e-05
0.0
5000
-1.000000
4631
8
73.1369
54.122
#DATA
5000	66.481
4984	65.1844
4968	66.501
4952	64.6048
4936	65.3235
4920	64.0205
4904	64.9049
4888	65.2173
4872	64.1065
4856	64.5675
4840	64.6664
4824	64.5791
4808	64.548
4792	64.9049
4776	65.1073
4760	64.83
4744	64.9652
4728	64.7151
4712	64.5254
4696	64.8632
4680	65.1983
4664	64.6326
4648	64.6751
4632	64.5463
4616	64.6851
4600	64.795
4584	64.7373
4568	64.754
4552	65.2073
4536	64.5882
4520	65.0708
4504	65.0985
4488	64.561
4472	64.1587
4456	65.8922
4440	73.1369
4424	63.7033
4408	64.3578
4392	65.1382
4376	64.5449
4360	65.4237
4344	65.0471
4328	64.6689
4312	64.8882
4296	64.7938
4280	64.8153
4264	64.9991
4248	64.7976
4232	65.06
4216	64.9828
4200	64.9471
4184	64.9749
4168	65.2436
4152	64.9244
4136	65.063
4120	65.0918
4104	65.1373
4088	64.8134
4072	65.0938
4056	65.2312
4040	64.9222
4024	65.2645
4008	64.8606
3992	65.1664
3976	65.1382
3960	64.9643
3944	65.0276
3928	64.9481
3912	65.1593
3896	64.9336
3880	65.2762
3864	65.0553
3848	65.1396
3832	65.3152
3816	64.9277
3800	64.9074
3784	65.0637
3768	64.9544
3752	64.9919
3736	65.0444
3720	65.1744
3704	65.2869
3688	65.0605
3672	65.0288
3656	65.2274
3640	65.1483
3624	65.0835
3608	65.1026
3592	65.0647
3576	64.9759
3560	65.0946
3544	65.1688
3528	65.1255
3512	65.4088
3496	65.1569
3480	65.1608
3464	64.9759
3448	65.187
3432	65.0839
3416	65.0513
3400	64.8582
3384	65.1814
3368	65.2862
3352	64.9207
3336	65.141
3320	65.0739
3304	65.0123
3288	65.0546
3272	65.0441
3256	65.1771
3240	65.0439
3224	64.9281
3208	64.8987
3192	65.0952
3176	64.9489
3160	64.7248
3144	64.9792
3128	65.1324
3112	64.9776
3096	65.0091
3080	64.8897
3064	64.9621
3048	64.9076
3032	64.9476
3016	64.9908
3000	65.043
2984	64.9498
2968	64.8171
2952	64.9326
2936	64.8595
2920	64.6889
2904	64.8104
2888	64.9169
2872	64.7878
2856	64.9525
2840	64.9212
2824	64.96
2808	64.8846
2792	65.0457
2776	64.9518
2760	64.8578
2744	64.917
2728	65.0275
2712	64.9963
2696	64.9797
2680	64.9572
2664	64.9803
2648	64.8757
2632	64.943
2616	64.8293
2600	64.938
2584	64.831
2568	64.9219
2552	64.8233
2536	64.9276
2520	65.0158
2504	64.7893
2488	64.8533
2472	64.7763
2456	64.9405
2440	64.8213
2424	64.8344
2408	64.8689
2392	64.8957
2376	64.7741
2360	64.7418
2344	64.9007
2328	64.8082
2312	64.7318
2296	64.7293
2280	64.8408
2264	64.7418
2248	64.7346
2232	64.5927
2216	64.6658
2200	64.6927
2184	64.6734
2168	64.558
2152	64.7687
2136	64.7707
2120	64.7352
2104	64.6913
2088	64.6612
2072	64.5505
2056	64.6562
2040	64.5843
2024	64.5436
2008	64.6307
1992	64.5191
1976	64.585
1960	64.4815
1944	64.5766
1928	64.5939
1912	64.4914
1896	64.5087
1880	64.5103
1864	64.5831
1848	64.6623
1832	64.5408
1816	64.4458
1800	64.4574
1784	64.4503
1768	64.4646
1752	64.3648
1736	64.1346
1720	64.2323
1704	64.3376
1688	64.2223
1672	64.2332
1656	64.3215
1640	64.2072
1624	64.3315
1608	64.2073
1592	64.1859
1576	64.1067
1560	64.2221
1544	64.0981
1528	64.1949
1512	64.2077
1496	64.3269
1480	64.1464
1464	64.2122
1448	64.0026
1432	64.1769
1416	64.0967
1400	64.1194
1384	64.0412
1368	64.1597
1352	63.9548
1336	63.9575
1320	64.1317
1304	64.0556
1288	64.0541
1272	64.0448
1256	63.9757
1240	63.9709
1224	63.8562
1208	64.0141
1192	63.9136
1176	63.9176
1160	63.7648
1144	63.6815
1128	63.7228
1112	63.7345
1096	63.7123
1080	63.8201
1064	63.7407
1048	63.6283
1032	63.743
1016	63.5387
1000	63.8888
984	 63.8998
968	 63.7869
952	 63.6844
936	 63.4577
920	 63.8539
904	 63.9169
888	 63.5865
872	 63.6639
856	 63.8874
840	 63.6467
824	 63.6693
808	 63.7296
792	 63.4313
776	 63.5636
760	 63.5107
744	 63.6476
728	 63.3802
712	 63.3974
696	 63.0509
680	 63.5231
664	 63.5715
648	 63.7692
632	 62.8844
616	 63.3535
600	 63.6329
584	 63.2375
568	 63.1026
552	 62.312
536	 61.787
520	 63.3047
504	 63.1045
488	 62.4291
472	 62.4671
456	 63.3633
440	 62.4983
424	 65.14
408	 61.8806
392	 59.7296
376	 54.2482
370	 62.1351

File: BZ1503107-1_t53.asc
PE IR       SPECTRUM    SPECTRUM    ASCII       PEDS        1.60
  -1
BZ2553~1.ASC
17/04/07
17:36:00.00
17/04/07
17:36:26.00
tln
$BZ1503107-1_t0053$<tbV0>[-7.8,-2.6,8.0,0.0,27,1,0]
27.028
64

2002,4.07
MIRTGS : RIGHTBACK : INTERNAL 2
MIR : ON : INTERNAL 2
OPTKBR

0.200000
8
8.000000
FILLER
RATIO
SPECTRUM
UNLOCKED 256

DOUBLE
64
COMBINED
1
0
0

0.002000
RATIO

1
0
TRUE
51149
0
LEFT NOT FITTED RIGHT NOT FITTED 0
NONE
NONE
15600
12
4.427000
51148
TRUE
1 0 8 72 0 0 0 0

15798

#HDR
-1
-1
#GR
µM
%T
2.38419e-05
0.0
2.000000
0.002000
12515
8
81.6241
48.9519
#DATA
2.000000	 65.5801
2.084000	 64.6227
2.168000	 65.1544
2.252000	 53.0349
2.336000	 65.1349
2.420000	 64.6823
2.504000	 65.2233
2.588000	 65.0462
2.672000	 64.9419
2.756000	 65.1832
2.840000	 65.0475
2.924000	 65.0853
3.008000	 65.0083
3.092000	 64.8953
3.176000	 64.9777
3.260000	 65.0667
3.344000	 64.9856
3.428000	 65.0269
3.512000	 64.8846
3.596000	 64.8144
3.680000	 64.9881
3.764000	 64.9448
3.848000	 64.9109
3.932000	 65.023
4.016000	 64.9111
4.100000	 64.8694
4.184000	 64.8203
4.268000	 64.7508
4.352000	 64.7876
4.436000	 64.7702
4.520000	 64.7369
4.604000	 64.6268
4.688000	 64.748
4.772000	 64.8002
4.856000	 64.7748
4.940000	 64.5351
5.024000	 64.7664
5.108000	 64.5079
5.192000	 64.5894
5.276000	 64.5185
5.359999	 64.4416
5.444000	 64.5423
5.528000	 64.5117
5.612000	 64.5004
5.696000	 64.3866
5.780000	 64.1384
5.864000	 64.3279
5.948000	 64.3268
6.032000	 64.2413
6.116000	 64.3316
6.200000	 64.2866
6.284000	 64.2176
6.368000	 64.1139
6.452000	 64.2634
6.536000	 64.2451
6.620000	 64.1496
6.704000	 64.1987
6.788000	 64.1308
6.872000	 64.0557
6.956000	 64.0789
7.040000	 64.2434
7.124000	 64.1706
7.208000	 64.1075
7.292000	 64.1157
7.376000	 64.0727
7.460000	 64.0065
7.544000	 64.0623
7.628000	 63.903
7.712000	 63.9886
7.796000	 64.039
7.880000	 63.987
7.964000	 64.0031
8.048000	 63.9225
8.132000	 63.8577
8.216000	 63.9326
8.300000	 63.9497
8.384000	 63.8064
8.468000	 63.8079
8.552000	 63.737
8.635999	 63.6689
8.719999	 63.657
8.804000	 63.8262
8.888000	 63.8162
8.972000	 63.9118
9.056000	 63.9018
9.140000	 63.9279
9.224000	 63.6745
9.308000	 63.9459
9.391999	 63.7152
9.475999	 63.6963
9.560000	 63.9555
9.644000	 63.8281
9.728000	 63.6634
9.812000	 63.5472
9.896000	 63.6976
9.980000	 63.878
10.064	63.8412
10.148	63.8544
10.232	63.8877
10.316	63.8621
10.4	63.783
10.484	63.7067
10.568	63.7502
10.652	63.525
10.736	63.6739
10.82	63.8389
10.904	63.6885
10.988	63.7713
11.072	63.8068
11.156	63.6677
11.24	63.7371
11.324	63.9437
11.408	63.8352
11.492	63.7966
11.576	63.8252
11.66	63.92
11.744	63.9644
11.828	63.9517
11.912	63.934
11.996	63.9744
12.08	63.9107
12.164	63.8643
12.248	63.6912
12.332	63.5741
12.416	63.4906
12.5	63.4059
12.584	63.5954
12.668	63.7641
12.752	63.7078
12.836	63.6469
12.92	63.6257
13.004	63.6236
13.088	63.3476
13.172	63.2439
13.256	63.4715
13.34	63.666
13.424	63.8485
13.508	63.8015
13.592	63.5167
13.676	63.3908
13.76	63.4432
13.844	63.6162
13.928	63.6457
14.012	63.4508
14.096	63.2801
14.18	63.2688
14.264	63.2959
14.348	63.2461
14.432	63.3187
14.516	63.459
14.6	63.4766
14.684	63.6606
14.768	63.9201
14.852	63.7894
14.936	63.4126
15.02	63.1986
15.104	63.3442
15.188	63.7207
15.272	63.9607
15.356	63.9971
15.44	63.8365
15.524	63.4126
15.608	63.0472
15.692	62.9057
15.776	62.7988
15.86	62.8248
15.944	63.1369
16.028	63.6115
16.112	63.9008
16.196	63.5648
16.28	62.7995
16.364	62.4688
16.448	62.7756
16.532	62.9885
16.616	62.7848
16.7	62.6812
16.784	63.0569
16.868	63.6502
16.952	63.9854
17.036	63.8388
17.12	63.3871
17.204	63.0701
17.288	63.174
17.372	63.5179
17.456	63.7263
17.54	63.76
17.624	63.8927
17.708	64.2303
17.792	64.5451
17.876	64.5541
17.96	64.2387
18.044	63.8306
18.128	63.5434
18.212	63.3744
18.296	63.1829
18.38	62.9016
18.464	62.6301
18.548	62.5108
18.632	62.5756
18.716	62.7545
18.8	62.9972
18.884	63.328
18.968	63.7404
19.052	64.1112
19.136	64.2716
19.22	64.1388
19.304	63.7464
19.388	63.2311
19.472	62.801
19.556	62.6224
19.64	62.6775
19.724	62.7757
19.808	62.739
19.892	62.5733
19.976	62.4309
20.06	62.4338
20.144	62.5656
20.228	62.7241
20.312	62.8244
20.396	62.8438
20.48	62.8195
20.564	62.8176
20.648	62.8702
20.732	62.9444
20.816	62.9573
20.9	62.8512
20.984	62.665
21.068	62.5293
21.152	62.5715
21.236	62.82
21.32	63.187
21.404	63.5266
21.488	63.7197
21.572	63.7302
21.656	63.6246
21.74	63.5289
21.824	63.5333
21.908	63.6167
21.992	63.6719
22.076	63.6011
22.16	63.4117
22.244	63.2277
22.328	63.1926
22.412	63.3634
22.496	63.6523
22.58	63.8887
22.664	63.9267
22.748	63.7318
22.832	63.3812
22.916	62.9967
23	62.7046
23.084	62.5744
23.168	62.6178
23.252	62.8109
23.336	63.1161
23.42	63.492
23.504	63.9058
23.588	64.3113
23.672	64.6444
23.756	64.8455
23.84	64.8891
23.924	64.8139
24.008	64.7073
24.092	64.6549
24.176	64.6794
24.26	64.6761
24.344	64.4295
24.428	63.7374
24.512	62.5009
24.596	60.842
24.68	59.0963
24.764	57.7034
24.848	57.0317
24.932	57.2999
25.016	58.4744
25.1	60.2945
25.184	62.3636
25.268	64.2861
25.352	65.7511
25.436	66.6094
25.52	66.8917
25.604	66.7366
25.688	66.3621
25.772	66.0189
25.856	65.9392
25.94	66.2073
26.024	66.8207
26.108	67.7848
26.192	69.0685
26.276	70.6509
26.36	72.5736
26.444	74.8085
26.528	77.1864
26.612	79.3694
26.696	80.9508
26.78	81.6158
26.864	81.1921
26.948	79.6679
27.028	77.3476

File: BZ1503107-1_t53_cm-1.asc
PE IR       SPECTRUM    SPECTRUM    ASCII       PEDS        1.60
  -1
BZ6BA3~1.ASC
17/04/07
17:36:00.00
17/04/07
17:36:00.00
tln
$BZ1503107-1_t0053$<tbV0>[-7.8,-2.6,8.0,0.0,27,1,0]
370
64

2002,4.07
MIRTGS : RIGHTBACK : INTERNAL 2
MIR : ON : INTERNAL 2
OPTKBR

0.200000
8
8.000000
FILLER
RATIO
SPECTRUM
UNLOCKED 256

DOUBLE
64
COMBINED
1
0
0

1.000000
RATIO

1
0
TRUE
51149
0
LEFT NOT FITTED RIGHT NOT FITTED 0
NONE
NONE
15600
12
4.427000
51148
TRUE
1 0 8 72 0 0 0 0

15798

#HDR
-1
-1
#GR
CM-1
%T
2.38419e-05
0.0
5000
-1.000000
4631
8
81.5937
48.8808
#DATA
5000	65.5801
4984	65.3513
4968	65.5932
4952	64.2357
4936	63.9909
4920	64.4672
4904	64.6928
4888	64.438
4872	64.3726
4856	64.9347
4840	64.2289
4824	64.6371
4808	64.3746
4792	64.5418
4776	64.5858
4760	64.662
4744	64.1613
4728	64.4501
4712	64.5346
4696	64.819
4680	64.9594
4664	64.4705
4648	64.854
4632	64.9956
4616	65.0548
4600	65.2015
4584	65.3547
4568	65.4382
4552	65.4689
4536	65.6904
4520	65.6305
4504	65.9579
4488	66.1511
4472	65.7088
4456	64.359
4440	52.5958
4424	49.5152
4408	65.2782
4392	67.1228
4376	65.3928
4360	66.5891
4344	65.3073
4328	65.7979
4312	65.5979
4296	65.4745
4280	65.1058
4264	65.3595
4248	65.1996
4232	65.1474
4216	64.8187
4200	65.0194
4184	65.1718
4168	64.753
4152	64.8352
4136	64.6388
4120	64.963
4104	64.6234
4088	64.7073
4072	64.7658
4056	64.7356
4040	64.8318
4024	64.8093
4008	64.9971
3992	65.2753
3976	65.0125
3960	64.9217
3944	65.3101
3928	64.9235
3912	65.1531
3896	65.3577
3880	65.2005
3864	65.0464
3848	65.3434
3832	65.2491
3816	65.0909
3800	65.045
3784	65.3113
3768	65.0835
3752	64.8364
3736	64.8445
3720	65.033
3704	65.0904
3688	65.0866
3672	65.0027
3656	65.0913
3640	65.0109
3624	65.1262
3608	64.9712
3592	65.0508
3576	65.0145
3560	65.1866
3544	65.1306
3528	64.9556
3512	65.1676
3496	65.1445
3480	65.1862
3464	65.127
3448	65.2179
3432	65.0519
3416	65.0308
3400	65.0299
3384	65.012
3368	65.1631
3352	64.9737
3336	65.0018
3320	64.8719
3304	65.0851
3288	65.0522
3272	64.9646
3256	64.9206
3240	64.9822
3224	64.9337
3208	64.9588
3192	65.055
3176	65.0347
3160	65.2085
3144	65.0911
3128	65.0652
3112	65.0273
3096	65.0206
3080	64.9645
3064	65.0999
3048	64.9064
3032	65.0912
3016	64.868
3000	65.157
2984	64.9665
2968	64.7533
2952	64.7967
2936	64.8787
2920	65.0331
2904	64.9671
2888	64.8812
2872	64.9481
2856	64.9133
2840	64.9066
2824	64.8706
2808	64.9436
2792	64.9944
2776	64.8665
2760	64.9144
2744	64.8765
2728	64.8875
2712	65.0162
2696	64.943
2680	64.9624
2664	64.923
2648	65.0253
2632	64.9115
2616	64.9884
2600	64.8948
2584	64.9204
2568	64.7472
2552	64.8397
2536	64.8849
2520	64.9251
2504	64.8204
2488	64.9309
2472	64.8468
2456	64.9212
2440	64.8743
2424	64.8206
2408	64.8778
2392	64.8503
2376	64.7586
2360	64.7471
2344	64.7361
2328	64.8164
2312	64.769
2296	64.7888
2280	64.742
2264	64.7576
2248	64.7108
2232	64.7157
2216	64.7572
2200	64.7185
2184	64.73
2168	64.6327
2152	64.7286
2136	64.744
2120	64.689
2104	64.7417
2088	64.695
2072	64.6155
2056	64.7142
2040	64.6286
2024	64.5326
2008	64.6672
1992	64.7694
1976	64.6371
1960	64.5249
1944	64.6478
1928	64.609
1912	64.6009
1896	64.5157
1880	64.5356
1864	64.4355
1848	64.6022
1832	64.5374
1816	64.4738
1800	64.5504
1784	64.4971
1768	64.4519
1752	64.3205
1736	64.2013
1720	64.2437
1704	64.3227
1688	64.3027
1672	64.3278
1656	64.2399
1640	64.3548
1624	64.2566
1608	64.3032
1592	64.2211
1576	64.1607
1560	64.1639
1544	64.223
1528	64.2687
1512	64.1259
1496	64.1416
1480	64.2829
1464	64.0235
1448	64.095
1432	64.068
1416	64.3095
1400	64.1197
1384	64.0784
1368	64.1195
1352	64.0659
1336	63.9306
1320	64.02
1304	63.9156
1288	63.9843
1272	64.0222
1256	64.0055
1240	63.9221
1224	63.7887
1208	63.9242
1192	63.8004
1176	63.7519
1160	63.6634
1144	63.6939
1128	63.7853
1112	63.9161
1096	63.9557
1080	63.7733
1064	63.7148
1048	63.915
1032	63.7063
1016	63.5568
1000	63.8779
984	 63.8737
968	 63.827
952	 63.7113
936	 63.5314
920	 63.758
904	 63.8269
888	 63.8055
872	 63.8026
856	 63.9563
840	 63.9377
824	 63.8787
808	 63.5436
792	 63.7124
776	 63.6218
760	 63.2283
744	 63.87
728	 63.4109
712	 63.3677
696	 63.2446
680	 63.7432
664	 63.2214
648	 63.8644
632	 62.7802
616	 63.2257
600	 62.6708
584	 63.3694
568	 63.8437
552	 63.5748
536	 62.62
520	 64.1013
504	 62.6817
488	 62.8166
472	 62.6513
456	 63.6389
440	 63.7985
424	 64.2974
408	 62.5393
392	 66.884
376	 78.9868
370	 77.3476