Folder: Masteroppgave/Bakgrunnsmateriale/MATLAB/FTIR/ftir_data/subAa/Mapping_121 (part 37)

File: BZ1503107-1_t84.asc
PE IR       SPECTRUM    SPECTRUM    ASCII       PEDS        1.60
  -1
BZ2955~1.ASC
17/04/07
20:07:11.00
17/04/07
20:07:37.00
tln
$BZ1503107-1_t0084$<tbV0>[-2.6,5.2,8.0,0.0,27,1,0]
27.028
64

2002,4.07
MIRTGS : RIGHTBACK : INTERNAL 2
MIR : ON : INTERNAL 2
OPTKBR

0.200000
8
8.000000
FILLER
RATIO
SPECTRUM
UNLOCKED 256

DOUBLE
64
COMBINED
1
0
0

0.002000
RATIO

1
0
TRUE
51149
0
LEFT NOT FITTED RIGHT NOT FITTED 0
NONE
NONE
15600
12
4.427000
51148
TRUE
1 0 8 72 0 0 0 0

15798

#HDR
-1
-1
#GR
µM
%T
2.38419e-05
0.0
2.000000
0.002000
12515
8
69.1703
40.0123
#DATA
2.000000	 65.9016
2.084000	 64.422
2.168000	 65.2024
2.252000	 66.2198
2.336000	 65.0204
2.420000	 64.779
2.504000	 64.9369
2.588000	 65.1827
2.672000	 65.1004
2.756000	 64.9279
2.840000	 64.9856
2.924000	 64.9578
3.008000	 64.9983
3.092000	 65.0339
3.176000	 64.9859
3.260000	 64.9876
3.344000	 64.8536
3.428000	 64.6178
3.512000	 64.822
3.596000	 64.8589
3.680000	 64.8356
3.764000	 64.7157
3.848000	 64.6972
3.932000	 64.6034
4.016000	 64.6783
4.100000	 64.6184
4.184000	 64.5062
4.268000	 64.5656
4.352000	 64.5218
4.436000	 64.5177
4.520000	 64.5169
4.604000	 64.3672
4.688000	 64.3168
4.772000	 64.3123
4.856000	 64.2317
4.940000	 64.24
5.024000	 64.1509
5.108000	 64.2185
5.192000	 64.1993
5.276000	 64.179
5.359999	 64.1559
5.444000	 64.1175
5.528000	 64.1771
5.612000	 64.1038
5.696000	 63.9601
5.780000	 63.891
5.864000	 63.8491
5.948000	 63.8968
6.032000	 63.9996
6.116000	 63.7161
6.200000	 63.8712
6.284000	 63.8412
6.368000	 63.834
6.452000	 63.7399
6.536000	 63.7047
6.620000	 63.8014
6.704000	 63.7402
6.788000	 63.7053
6.872000	 63.6959
6.956000	 63.7176
7.040000	 63.5885
7.124000	 63.5768
7.208000	 63.665
7.292000	 63.4995
7.376000	 63.5654
7.460000	 63.5417
7.544000	 63.6326
7.628000	 63.5392
7.712000	 63.3614
7.796000	 63.3672
7.880000	 63.3978
7.964000	 63.4002
8.048000	 63.3925
8.132000	 63.3307
8.216000	 63.3362
8.300000	 63.5541
8.384000	 63.4305
8.468000	 63.3363
8.552000	 63.247
8.635999	 63.3126
8.719999	 63.3884
8.804000	 63.3297
8.888000	 63.2708
8.972000	 63.429
9.056000	 63.3032
9.140000	 63.2084
9.224000	 63.2507
9.308000	 63.2909
9.391999	 63.2838
9.475999	 63.2641
9.560000	 63.2844
9.644000	 63.1806
9.728000	 63.2673
9.812000	 62.996
9.896000	 63.0127
9.980000	 63.285
10.064	63.0187
10.148	63.1308
10.232	63.3362
10.316	63.1016
10.4	63.2971
10.484	63.2163
10.568	63.187
10.652	63.1608
10.736	63.0781
10.82	63.1546
10.904	63.2561
10.988	63.2071
11.072	63.0877
11.156	63.0849
11.24	63.2756
11.324	63.2001
11.408	63.0965
11.492	63.2112
11.576	63.047
11.66	63.1105
11.744	63.0516
11.828	62.9699
11.912	63.0586
11.996	63.0051
12.08	63.1379
12.164	63.3892
12.248	63.0655
12.332	62.9363
12.416	63.1074
12.5	63.061
12.584	62.9781
12.668	62.9987
12.752	62.9279
12.836	63.0799
12.92	62.9384
13.004	62.7419
13.088	62.7824
13.172	62.7979
13.256	62.8693
13.34	62.8447
13.424	62.7136
13.508	62.6819
13.592	62.819
13.676	62.8595
13.76	62.7483
13.844	62.7159
13.928	62.7095
14.012	62.6625
14.096	62.5575
14.18	62.4309
14.264	62.5297
14.348	62.712
14.432	62.837
14.516	62.8669
14.6	62.8023
14.684	62.9112
14.768	63.0264
14.852	62.7802
14.936	62.363
15.02	62.1993
15.104	62.4758
15.188	62.7225
15.272	62.4638
15.356	62.0915
15.44	62.0391
15.524	62.028
15.608	61.7544
15.692	61.55
15.776	61.8893
15.86	62.4892
15.944	62.6042
16.028	62.2521
16.112	62.0737
16.196	62.2312
16.28	62.4738
16.364	62.6685
16.448	62.7151
16.532	62.6632
16.616	62.69
16.7	62.6934
16.784	62.5372
16.868	62.453
16.952	62.5762
17.036	62.656
17.12	62.5695
17.204	62.5229
17.288	62.6637
17.372	62.9183
17.456	63.1743
17.54	63.3592
17.624	63.3388
17.708	62.949
17.792	62.2316
17.876	61.6152
17.96	61.596
18.044	62.1928
18.128	62.871
18.212	63.0712
18.296	62.7385
18.38	62.3361
18.464	62.3225
18.548	62.6685
18.632	62.9282
18.716	62.7812
18.8	62.3761
18.884	62.1046
18.968	62.1513
19.052	62.3645
19.136	62.5092
19.22	62.5018
19.304	62.4311
19.388	62.4163
19.472	62.5166
19.556	62.7024
19.64	62.865
19.724	62.8671
19.808	62.6435
19.892	62.2893
19.976	62.0154
20.06	61.99
20.144	62.1951
20.228	62.4491
20.312	62.5826
20.396	62.5772
20.48	62.543
20.564	62.583
20.648	62.6959
20.732	62.7991
20.816	62.814
20.9	62.7223
20.984	62.5537
21.068	62.3545
21.152	62.1727
21.236	62.056
21.32	62.034
21.404	62.0994
21.488	62.2092
21.572	62.3114
21.656	62.3752
21.74	62.3907
21.824	62.3606
21.908	62.2966
21.992	62.2251
22.076	62.1917
22.16	62.2457
22.244	62.4062
22.328	62.6306
22.412	62.8363
22.496	62.9472
22.58	62.9476
22.664	62.8871
22.748	62.8457
22.832	62.8597
22.916	62.8959
23	62.8726
23.084	62.7215
23.168	62.4427
23.252	62.1128
23.336	61.8388
23.42	61.6807
23.504	61.6164
23.588	61.5493
23.672	61.3768
23.756	61.0592
23.84	60.6515
23.924	60.2885
24.008	60.1129
24.092	60.204
24.176	60.5349
24.26	60.9833
24.344	61.3494
24.428	61.453
24.512	61.2235
24.596	60.7087
24.68	60.0437
24.764	59.3951
24.848	58.8976
24.932	58.6358
25.016	58.6206
25.1	58.8017
25.184	59.0849
25.268	59.3699
25.352	59.5808
25.436	59.6829
25.52	59.7262
25.604	59.8361
25.688	60.1144
25.772	60.5552
25.856	61.0038
25.94	61.0692
26.024	60.2637
26.108	58.285
26.192	55.0509
26.276	50.8505
26.36	46.4248
26.444	42.7039
26.528	40.4712
26.612	40.0883
26.696	41.3927
26.78	43.762
26.864	46.212
26.948	47.8182
27.028	48.146

File: BZ1503107-1_t84_cm-1.asc
PE IR       SPECTRUM    SPECTRUM    ASCII       PEDS        1.60
  -1
BZ6C26~1.ASC
17/04/07
20:07:11.00
17/04/07
20:07:11.00
tln
$BZ1503107-1_t0084$<tbV0>[-2.6,5.2,8.0,0.0,27,1,0]
370
64

2002,4.07
MIRTGS : RIGHTBACK : INTERNAL 2
MIR : ON : INTERNAL 2
OPTKBR

0.200000
8
8.000000
FILLER
RATIO
SPECTRUM
UNLOCKED 256

DOUBLE
64
COMBINED
1
0
0

1.000000
RATIO

1
0
TRUE
51149
0
LEFT NOT FITTED RIGHT NOT FITTED 0
NONE
NONE
15600
12
4.427000
51148
TRUE
1 0 8 72 0 0 0 0

15798

#HDR
-1
-1
#GR
CM-1
%T
2.38419e-05
0.0
5000
-1.000000
4631
8
69.1699
40.0193
#DATA
5000	65.9016
4984	63.2383
4968	64.6633
4952	65.8714
4936	64.8359
4920	65.3162
4904	64.6358
4888	65.2391
4872	64.4786
4856	64.6038
4840	64.5262
4824	64.4599
4808	64.7432
4792	64.4337
4776	64.7273
4760	64.456
4744	64.8622
4728	64.9012
4712	64.646
4696	64.8545
4680	64.781
4664	64.7545
4648	64.7562
4632	64.5991
4616	65.0335
4600	65.0141
4584	64.8746
4568	64.4275
4552	65.0635
4536	64.8579
4520	65.151
4504	65.0722
4488	65.1945
4472	64.2318
4456	62.3328
4440	65.6917
4424	67.1614
4408	67.1691
4392	64.7406
4376	64.8148
4360	65.3026
4344	65.2888
4328	64.9241
4312	65.0291
4296	64.9264
4280	65.0493
4264	64.8826
4248	64.7261
4232	64.7185
4216	64.7732
4200	64.9567
4184	64.5968
4168	64.744
4152	64.7717
4136	64.5547
4120	64.9636
4104	65.0247
4088	64.9926
4072	64.7974
4056	64.76
4040	65.0092
4024	64.9634
4008	64.9666
3992	64.9432
3976	64.9742
3960	64.8388
3944	65.1732
3928	64.5861
3912	65.0503
3896	64.8905
3880	65.0148
3864	65.1838
3848	64.7627
3832	64.9875
3816	64.8851
3800	64.9431
3784	65.134
3768	64.9086
3752	65.0163
3736	64.9909
3720	64.9236
3704	65.0606
3688	65.0119
3672	65.3052
3656	65.0352
3640	64.9792
3624	65.0217
3608	65.0448
3592	64.9922
3576	64.7776
3560	65.0199
3544	64.924
3528	64.9488
3512	65.0758
3496	64.8888
3480	65.0842
3464	65.0122
3448	65.0839
3432	64.9193
3416	64.9208
3400	64.869
3384	64.8703
3368	64.9288
3352	64.9435
3336	64.8876
3320	64.9411
3304	64.9474
3288	64.9172
3272	64.823
3256	64.9132
3240	64.9704
3224	64.7885
3208	64.8693
3192	65.0371
3176	65.0101
3160	64.9724
3144	65.0522
3128	64.8294
3112	64.9465
3096	64.8666
3080	64.9196
3064	64.9172
3048	64.8029
3032	64.7573
3016	64.901
3000	64.8212
2984	64.7069
2968	64.6825
2952	64.6738
2936	64.8
2920	64.6055
2904	64.7268
2888	64.7425
2872	64.7266
2856	64.7362
2840	64.8239
2824	64.853
2808	64.9139
2792	64.8602
2776	64.8873
2760	64.8648
2744	64.6806
2728	64.7983
2712	64.8096
2696	64.6783
2680	64.8794
2664	64.5922
2648	64.6539
2632	64.6887
2616	64.6615
2600	64.6863
2584	64.6384
2568	64.6377
2552	64.6366
2536	64.5809
2520	64.8006
2504	64.6309
2488	64.6793
2472	64.6131
2456	64.6857
2440	64.6289
2424	64.6713
2408	64.6518
2392	64.4899
2376	64.5508
2360	64.438
2344	64.5733
2328	64.5876
2312	64.4432
2296	64.5271
2280	64.536
2264	64.5293
2248	64.4926
2232	64.5193
2216	64.4493
2200	64.431
2184	64.4149
2168	64.3614
2152	64.5109
2136	64.316
2120	64.2832
2104	64.4187
2088	64.2736
2072	64.2996
2056	64.2663
2040	64.2154
2024	64.2408
2008	64.3386
1992	64.1464
1976	64.2818
1960	64.1939
1944	64.1232
1928	64.202
1912	64.2781
1896	64.168
1880	64.1607
1864	64.1791
1848	64.1554
1832	64.2087
1816	64.1983
1800	64.1054
1784	64.1254
1768	64.0952
1752	63.7964
1736	63.8559
1720	63.8771
1704	63.8432
1688	63.9801
1672	63.8093
1656	63.9636
1640	63.7608
1624	63.885
1608	63.6649
1592	63.8384
1576	63.8934
1560	63.8067
1544	63.8304
1528	63.7422
1512	63.7785
1496	63.7111
1480	63.7864
1464	63.6471
1448	63.6039
1432	63.7186
1416	63.6235
1400	63.5763
1384	63.6289
1368	63.5801
1352	63.5831
1336	63.6674
1320	63.5847
1304	63.5905
1288	63.3658
1272	63.3624
1256	63.391
1240	63.3547
1224	63.3823
1208	63.5346
1192	63.4117
1176	63.3068
1160	63.2873
1144	63.4139
1128	63.2532
1112	63.3955
1096	63.2357
1080	63.231
1064	63.2762
1048	63.3062
1032	63.2689
1016	62.9893
1000	63.2184
984	 63.19
968	 63.1349
952	 63.1952
936	 63.0975
920	 63.1919
904	 63.0918
888	 63.3036
872	 63.2135
856	 63.1389
840	 63.056
824	 63.3579
808	 63.0391
792	 62.9957
776	 63.0522
760	 62.7908
744	 62.6914
728	 62.7802
712	 62.6342
696	 62.7463
680	 62.9619
664	 62.2899
648	 62.0344
632	 62.2444
616	 62.3411
600	 62.7113
584	 62.5654
568	 63.3701
552	 62.7941
536	 62.9302
520	 62.4937
504	 62.5081
488	 62.5429
472	 62.1145
456	 62.2772
440	 62.8509
424	 61.5533
408	 61.2334
392	 59.7195
376	 40.0193
370	 48.146

File: BZ1503107-1_t85.asc
PE IR       SPECTRUM    SPECTRUM    ASCII       PEDS        1.60
  -1
BZ2D55~1.ASC
17/04/07
20:11:48.00
17/04/07
20:12:14.00
tln
$BZ1503107-1_t0085$<tbV0>[-5.2,5.2,8.0,0.0,27,1,0]
27.028
64

2002,4.07
MIRTGS : RIGHTBACK : INTERNAL 2
MIR : ON : INTERNAL 2
OPTKBR

0.200000
8
8.000000
FILLER
RATIO
SPECTRUM
UNLOCKED 256

DOUBLE
64
COMBINED
1
0
0

0.002000
RATIO

1
0
TRUE
51149
0
LEFT NOT FITTED RIGHT NOT FITTED 0
NONE
NONE
15600
12
4.427000
51148
TRUE
1 0 8 72 0 0 0 0

15798

#HDR
-1
-1
#GR
µM
%T
2.38419e-05
0.0
2.000000
0.002000
12515
8
77.4422
59.65
#DATA
2.000000	 64.6811
2.084000	 64.474
2.168000	 64.8896
2.252000	 67.5346
2.336000	 64.9316
2.420000	 64.6592
2.504000	 64.7247
2.588000	 64.9689
2.672000	 65.2686
2.756000	 64.8861
2.840000	 64.9709
2.924000	 64.9601
3.008000	 64.9693
3.092000	 64.8442
3.176000	 64.8435
3.260000	 64.802
3.344000	 64.8015
3.428000	 64.7654
3.512000	 64.6434
3.596000	 64.7532
3.680000	 64.6907
3.764000	 64.6402
3.848000	 64.7564
3.932000	 64.6576
4.016000	 64.6168
4.100000	 64.6612
4.184000	 64.6053
4.268000	 64.4114
4.352000	 64.5013
4.436000	 64.4563
4.520000	 64.3842
4.604000	 64.3784
4.688000	 64.51
4.772000	 64.4393
4.856000	 64.2069
4.940000	 64.3254
5.024000	 64.1247
5.108000	 64.2652
5.192000	 64.0871
5.276000	 64.1834
5.359999	 64.0816
5.444000	 64.0825
5.528000	 64.1474
5.612000	 64.0565
5.696000	 63.9492
5.780000	 63.7936
5.864000	 63.8308
5.948000	 63.8614
6.032000	 63.8909
6.116000	 63.7016
6.200000	 63.8629
6.284000	 63.7555
6.368000	 63.7771
6.452000	 63.7562
6.536000	 63.8572
6.620000	 63.7751
6.704000	 63.5775
6.788000	 63.6936
6.872000	 63.7494
6.956000	 63.8415
7.040000	 63.699
7.124000	 63.4944
7.208000	 63.6768
7.292000	 63.5046
7.376000	 63.3848
7.460000	 63.5844
7.544000	 63.6606
7.628000	 63.5337
7.712000	 63.3714
7.796000	 63.465
7.880000	 63.3183
7.964000	 63.3646
8.048000	 63.3884
8.132000	 63.3246
8.216000	 63.2946
8.300000	 63.4032
8.384000	 63.4217
8.468000	 63.2703
8.552000	 63.2833
8.635999	 63.2234
8.719999	 63.2554
8.804000	 63.2201
8.888000	 63.3287
8.972000	 63.3283
9.056000	 63.2925
9.140000	 63.2625
9.224000	 63.3341
9.308000	 63.209
9.391999	 63.2464
9.475999	 63.2665
9.560000	 63.4458
9.644000	 63.0737
9.728000	 63.1958
9.812000	 63.2125
9.896000	 63.1769
9.980000	 63.3012
10.064	63.0556
10.148	63.0935
10.232	63.2978
10.316	63.0177
10.4	63.2259
10.484	63.1653
10.568	63.2739
10.652	63.0635
10.736	63.0117
10.82	63.1633
10.904	63.2046
10.988	63.3657
11.072	63.1062
11.156	63.0892
11.24	63.0725
11.324	63.0336
11.408	62.9941
11.492	63.1529
11.576	63.0057
11.66	62.8895
11.744	62.8745
11.828	63.0225
11.912	63.1373
11.996	63.0622
12.08	63.097
12.164	63.1037
12.248	63.0343
12.332	62.9331
12.416	62.783
12.5	62.6573
12.584	62.729
12.668	62.8613
12.752	62.8631
12.836	62.9553
12.92	62.8791
13.004	62.7922
13.088	62.8659
13.172	62.968
13.256	62.9491
13.34	62.7949
13.424	62.5317
13.508	62.3692
13.592	62.4377
13.676	62.4719
13.76	62.4476
13.844	62.422
13.928	62.5495
14.012	62.8429
14.096	62.8732
14.18	62.6727
14.264	62.5965
14.348	62.5497
14.432	62.6204
14.516	62.9531
14.6	63.1813
14.684	63.1635
14.768	63.0793
14.852	62.9631
14.936	62.777
15.02	62.5878
15.104	62.6259
15.188	62.6987
15.272	62.5265
15.356	62.2726
15.44	62.0736
15.524	61.9656
15.608	61.9315
15.692	61.9298
15.776	62.0462
15.86	62.1904
15.944	62.1394
16.028	62.0145
16.112	62.104
16.196	62.4571
16.28	62.9153
16.364	63.243
16.448	63.2732
16.532	63.0992
16.616	62.83
16.7	62.438
16.784	62.0934
16.868	62.0988
16.952	62.4259
17.036	62.745
17.12	62.894
17.204	63.0794
17.288	63.5637
17.372	64.1468
17.456	64.2382
17.54	63.6086
17.624	62.7113
17.708	62.11
17.792	61.9486
17.876	62.0375
17.96	62.1401
18.044	62.0957
18.128	61.8986
18.212	61.7482
18.296	61.8603
18.38	62.1764
18.464	62.3929
18.548	62.2607
18.632	61.7893
18.716	61.2385
18.8	60.991
18.884	61.3015
18.968	62.0951
19.052	63.0003
19.136	63.6426
19.22	63.8951
19.304	63.8671
19.388	63.6847
19.472	63.37
19.556	62.9556
19.64	62.5973
19.724	62.4741
19.808	62.6052
19.892	62.8435
19.976	63.0242
20.06	63.0855
20.144	63.0673
20.228	63.027
20.312	62.9871
20.396	62.9402
20.48	62.886
20.564	62.8468
20.648	62.8537
20.732	62.9098
20.816	62.9652
20.9	62.95
20.984	62.8419
21.068	62.6983
21.152	62.6067
21.236	62.6036
21.32	62.65
21.404	62.6783
21.488	62.6618
21.572	62.6266
21.656	62.5935
21.74	62.5356
21.824	62.3892
21.908	62.1262
21.992	61.8055
22.076	61.5409
22.16	61.4264
22.244	61.4642
22.328	61.5689
22.412	61.6459
22.496	61.6553
22.58	61.6312
22.664	61.6363
22.748	61.7086
22.832	61.8448
22.916	62.0297
23	62.2594
23.084	62.5571
23.168	62.9522
23.252	63.4335
23.336	63.9275
23.42	64.3129
23.504	64.4676
23.588	64.3126
23.672	63.8391
23.756	63.1221
23.84	62.2718
23.924	61.4217
24.008	60.6772
24.092	60.0981
24.176	59.7375
24.26	59.6619
24.344	59.9486
24.428	60.6327
24.512	61.6634
24.596	62.8611
24.68	63.9539
24.764	64.677
24.848	64.8814
24.932	64.5895
25.016	64.0005
25.1	63.411
25.184	63.0752
25.268	63.1219
25.352	63.5969
25.436	64.4896
25.52	65.7755
25.604	67.4386
25.688	69.468
25.772	71.761
25.856	74.058
25.94	76.0065
26.024	77.2135
26.108	77.3691
26.192	76.3958
26.276	74.4439
26.36	71.8923
26.444	69.1046
26.528	66.3733
26.612	63.989
26.696	62.2726
26.78	61.5359
26.864	62.1364
26.948	64.4301
27.028	68.4494

File: BZ1503107-1_t85_cm-1.asc
PE IR       SPECTRUM    SPECTRUM    ASCII       PEDS        1.60
  -1
BZ6D26~1.ASC
17/04/07
20:11:48.00
17/04/07
20:11:48.00
tln
$BZ1503107-1_t0085$<tbV0>[-5.2,5.2,8.0,0.0,27,1,0]
370
64

2002,4.07
MIRTGS : RIGHTBACK : INTERNAL 2
MIR : ON : INTERNAL 2
OPTKBR

0.200000
8
8.000000
FILLER
RATIO
SPECTRUM
UNLOCKED 256

DOUBLE
64
COMBINED
1
0
0

1.000000
RATIO

1
0
TRUE
51149
0
LEFT NOT FITTED RIGHT NOT FITTED 0
NONE
NONE
15600
12
4.427000
51148
TRUE
1 0 8 72 0 0 0 0

15798

#HDR
-1
-1
#GR
CM-1
%T
2.38419e-05
0.0
5000
-1.000000
4631
8
77.3607
59.6641
#DATA
5000	64.6811
4984	63.7343
4968	65.1405
4952	63.0525
4936	63.5571
4920	64.3447
4904	64.9197
4888	64.8566
4872	65.0995
4856	64.5039
4840	64.4694
4824	64.8835
4808	64.5991
4792	64.7655
4776	64.8268
4760	64.9699
4744	64.5263
4728	64.9274
4712	64.68
4696	65.0257
4680	64.6873
4664	64.7335
4648	64.9995
4632	64.9666
4616	64.843
4600	64.9855
4584	64.4807
4568	64.8114
4552	64.8979
4536	64.7531
4520	64.5993
4504	64.7583
4488	64.4312
4472	64.2241
4456	64.8355
4440	67.9535
4424	65.6701
4408	67.5043
4392	64.2926
4376	64.4881
4360	65.3414
4344	65.0543
4328	64.8117
4312	64.7619
4296	65.0584
4280	64.9303
4264	64.9063
4248	64.7004
4232	64.5801
4216	64.7298
4200	64.8122
4184	64.5135
4168	64.7831
4152	65.0218
4136	64.7031
4120	64.7856
4104	65.1423
4088	65.0213
4072	64.9163
4056	64.8915
4040	64.9522
4024	64.9941
4008	65.0366
3992	64.8432
3976	65.1966
3960	64.7087
3944	64.5374
3928	64.7791
3912	64.7897
3896	64.9777
3880	64.9197
3864	64.9691
3848	64.7747
3832	64.9296
3816	64.891
3800	64.9713
3784	64.9041
3768	64.9964
3752	64.9136
3736	65.1447
3720	65.0624
3704	65.2048
3688	64.931
3672	65.0497
3656	65.0852
3640	65.0061
3624	64.8891
3608	65.0561
3592	65.0093
3576	64.9575
3560	64.8424
3544	65.0109
3528	64.9453
3512	64.771
3496	64.849
3480	64.8862
3464	64.9473
3448	65.0773
3432	64.7898
3416	65.055
3400	64.9438
3384	64.9387
3368	64.9936
3352	64.9217
3336	65.0161
3320	64.9231
3304	64.9714
3288	64.8771
3272	64.9129
3256	64.8774
3240	64.8395
3224	64.955
3208	65.0135
3192	64.7711
3176	64.9977
3160	65.0208
3144	64.8675
3128	64.8729
3112	64.9652
3096	64.8344
3080	64.8494
3064	64.8658
3048	64.9818
3032	64.7415
3016	64.9434
3000	64.7698
2984	64.7671
2968	64.7667
2952	64.634
2936	64.7879
2920	64.7447
2904	64.8168
2888	64.7853
2872	64.7746
2856	64.7939
2840	64.7808
2824	64.756
2808	64.886
2792	64.7407
2776	64.7999
2760	64.8749
2744	64.7497
2728	64.8255
2712	64.7683
2696	64.6517
2680	64.7695
2664	64.6566
2648	64.7167
2632	64.676
2616	64.7441
2600	64.7655
2584	64.6769
2568	64.6505
2552	64.5406
2536	64.6592
2520	64.7625
2504	64.6109
2488	64.6307
2472	64.6296
2456	64.6672
2440	64.6582
2424	64.5679
2408	64.6572
2392	64.5974
2376	64.5342
2360	64.5452
2344	64.4028
2328	64.5572
2312	64.5813
2296	64.4702
2280	64.4989
2264	64.4377
2248	64.4214
2232	64.4532
2216	64.3424
2200	64.4582
2184	64.3963
2168	64.3557
2152	64.4574
2136	64.4703
2120	64.3722
2104	64.3318
2088	64.4128
2072	64.3185
2056	64.2045
2040	64.342
2024	64.3285
2008	64.2283
1992	64.1393
1976	64.2841
1960	64.2536
1944	64.1646
1928	64.101
1912	64.2576
1896	64.1836
1880	64.2438
1864	64.086
1848	64.1749
1832	64.1336
1816	64.1982
1800	64.0169
1784	64.0582
1768	64.1089
1752	63.8402
1736	63.7844
1720	63.8546
1704	63.8397
1688	63.9676
1672	63.8597
1656	63.8779
1640	63.7953
1624	63.8968
1608	63.7733
1592	63.7506
1576	63.816
1560	63.7022
1544	63.862
1528	63.8736
1512	63.7559
1496	63.7408
1480	63.6487
1464	63.6331
1448	63.7267
1432	63.8455
1416	63.6648
1400	63.471
1384	63.6343
1368	63.4907
1352	63.4566
1336	63.5544
1320	63.5764
1304	63.4317
1288	63.4499
1272	63.2969
1256	63.3643
1240	63.3767
1224	63.3694
1208	63.3698
1192	63.4047
1176	63.2726
1160	63.2416
1144	63.2795
1128	63.248
1112	63.2941
1096	63.2293
1080	63.2703
1064	63.2427
1048	63.4585
1032	63.1392
1016	63.2105
1000	63.2434
984	 63.1858
968	 63.0649
952	 63.1918
936	 62.9792
920	 63.1036
904	 63.1186
888	 63.0668
872	 63.1167
856	 62.8851
840	 63.1377
824	 63.116
808	 62.8545
792	 62.8155
776	 62.9392
760	 62.9538
744	 62.478
728	 62.4569
712	 62.9045
696	 62.544
680	 63.1444
664	 62.5751
648	 62.089
632	 62.1414
616	 62.6631
600	 62.6051
584	 62.8986
568	 62.897
552	 61.9302
536	 61.6188
520	 63.9038
504	 62.6977
488	 62.8789
472	 62.5955
456	 62.0443
440	 61.6842
424	 64.3241
408	 61.6337
392	 65.6061
376	 64.4039
370	 68.4494

File: BZ1503107-1_t86.asc
PE IR       SPECTRUM    SPECTRUM    ASCII       PEDS        1.60
  -1
BZ2165~1.ASC
17/04/07
20:16:25.00
17/04/07
20:16:51.00
tln
$BZ1503107-1_t0086$<tbV0>[-7.8,5.2,8.0,0.0,27,1,0]
27.028
64

2002,4.07
MIRTGS : RIGHTBACK : INTERNAL 2
MIR : ON : INTERNAL 2
OPTKBR

0.200000
8
8.000000
FILLER
RATIO
SPECTRUM
UNLOCKED 256

DOUBLE
64
COMBINED
1
0
0

0.002000
RATIO

1
0
TRUE
51149
0
LEFT NOT FITTED RIGHT NOT FITTED 0
NONE
NONE
15600
12
4.427000
51148
TRUE
1 0 8 72 0 0 0 0

15798

#HDR
-1
-1
#GR
µM
%T
2.38419e-05
0.0
2.000000
0.002000
12515
8
89.9827
56.1754
#DATA
2.000000	 65.0197
2.084000	 64.9628
2.168000	 64.9733
2.252000	 69.8564
2.336000	 64.979
2.420000	 64.809
2.504000	 64.9646
2.588000	 65.0981
2.672000	 65.1071
2.756000	 65.0262
2.840000	 65.1806
2.924000	 64.8861
3.008000	 64.8428
3.092000	 64.925
3.176000	 64.8509
3.260000	 64.9257
3.344000	 64.7643
3.428000	 64.7383
3.512000	 64.8114
3.596000	 64.9342
3.680000	 64.7604
3.764000	 64.6977
3.848000	 64.5875
3.932000	 64.6103
4.016000	 64.6874
4.100000	 64.657
4.184000	 64.5197
4.268000	 64.5243
4.352000	 64.3697
4.436000	 64.5047
4.520000	 64.4487
4.604000	 64.3519
4.688000	 64.3431
4.772000	 64.3103
4.856000	 64.2522
4.940000	 64.189
5.024000	 64.1854
5.108000	 64.1806
5.192000	 64.0986
5.276000	 64.0436
5.359999	 64.1956
5.444000	 64.0111
5.528000	 64.0607
5.612000	 64.0108
5.696000	 63.9696
5.780000	 63.7481
5.864000	 63.8601
5.948000	 63.9754
6.032000	 63.9299
6.116000	 63.865
6.200000	 63.9283
6.284000	 63.7963
6.368000	 63.7218
6.452000	 63.8147
6.536000	 63.7365
6.620000	 63.9322
6.704000	 63.7396
6.788000	 63.7197
6.872000	 63.7998
6.956000	 63.8105
7.040000	 63.7196
7.124000	 63.6447
7.208000	 63.585
7.292000	 63.5903
7.376000	 63.5339
7.460000	 63.6275
7.544000	 63.6242
7.628000	 63.454
7.712000	 63.511
7.796000	 63.2999
7.880000	 63.479
7.964000	 63.4113
8.048000	 63.3469
8.132000	 63.3797
8.216000	 63.4459
8.300000	 63.3386
8.384000	 63.4423
8.468000	 63.2322
8.552000	 63.1082
8.635999	 63.2279
8.719999	 63.246
8.804000	 63.3423
8.888000	 63.0127
8.972000	 63.2002
9.056000	 63.2281
9.140000	 63.217
9.224000	 63.2469
9.308000	 63.3085
9.391999	 63.2449
9.475999	 63.2157
9.560000	 63.2826
9.644000	 63.2455
9.728000	 63.1638
9.812000	 63.0831
9.896000	 63.041
9.980000	 62.9975
10.064	63.0348
10.148	63.2049
10.232	63.4477
10.316	63.2473
10.4	63.3057
10.484	63.199
10.568	63.2424
10.652	63.3013
10.736	63.0678
10.82	63.1574
10.904	63.2853
10.988	63.1333
11.072	63.076
11.156	63.1581
11.24	63.2204
11.324	63.256
11.408	63.1555
11.492	63.3481
11.576	63.1759
11.66	63.1805
11.744	63.1153
11.828	63.1681
11.912	63.1274
11.996	62.965
12.08	62.9423
12.164	63.1935
12.248	63.2309
12.332	62.9017
12.416	63.0017
12.5	63.1325
12.584	62.9668
12.668	62.8314
12.752	62.769
12.836	62.9443
12.92	63.1161
13.004	63.0867
13.088	62.9883
13.172	62.949
13.256	63.0605
13.34	62.9556
13.424	62.7222
13.508	62.6824
13.592	62.7332
13.676	62.6189
13.76	62.4674
13.844	62.5537
13.928	62.7847
14.012	62.8795
14.096	62.7762
14.18	62.5483
14.264	62.4436
14.348	62.4577
14.432	62.4855
14.516	62.6549
14.6	62.9147
14.684	63.1111
14.768	63.1815
14.852	63.0909
14.936	62.8616
15.02	62.6876
15.104	62.8575
15.188	63.1006
15.272	62.9794
15.356	62.6731
15.44	62.4664
15.524	62.3121
15.608	62.0987
15.692	61.8996
15.776	61.9592
15.86	62.2324
15.944	62.3081
16.028	62.089
16.112	61.9221
16.196	62.0164
16.28	62.1857
16.364	62.2211
16.448	62.3201
16.532	62.7155
16.616	63.0061
16.7	62.676
16.784	61.9915
16.868	61.5206
16.952	61.3915
17.036	61.4822
17.12	61.733
17.204	62.0465
17.288	62.2618
17.372	62.3335
17.456	62.3353
17.54	62.3082
17.624	62.2438
17.708	62.2234
17.792	62.366
17.876	62.5722
17.96	62.5998
18.044	62.4234
18.128	62.2816
18.212	62.3431
18.296	62.5648
18.38	62.8643
18.464	63.2228
18.548	63.5538
18.632	63.6505
18.716	63.3436
18.8	62.689
18.884	61.9838
18.968	61.6009
19.052	61.7559
19.136	62.3629
19.22	63.0709
19.304	63.467
19.388	63.3383
19.472	62.7989
19.556	62.2163
19.64	61.9633
19.724	62.1685
19.808	62.6432
19.892	63.0437
19.976	63.114
20.06	62.8452
20.144	62.4441
20.228	62.1702
20.312	62.1737
20.396	62.4277
20.48	62.7947
20.564	63.116
20.648	63.2835
20.732	63.2473
20.816	63.0091
20.9	62.6255
20.984	62.1969
21.068	61.8552
21.152	61.7281
21.236	61.8806
21.32	62.2708
21.404	62.7504
21.488	63.1226
21.572	63.2324
21.656	63.0281
21.74	62.5639
21.824	61.9656
21.908	61.3775
21.992	60.9236
22.076	60.6908
22.16	60.7047
22.244	60.9177
22.328	61.2231
22.412	61.5124
22.496	61.7364
22.58	61.9173
22.664	62.1107
22.748	62.339
22.832	62.5416
22.916	62.6058
23	62.4249
23.084	61.9764
23.168	61.353
23.252	60.7102
23.336	60.192
23.42	59.8413
23.504	59.5912
23.588	59.3262
23.672	58.977
23.756	58.5718
23.84	58.2201
23.924	58.0626
24.008	58.2111
24.092	58.7136
24.176	59.5326
24.26	60.5721
24.344	61.7093
24.428	62.8253
24.512	63.7662
24.596	64.4176
24.68	64.716
24.764	64.6511
24.848	64.2803
24.932	63.6391
25.016	62.7286
25.1	61.5902
25.184	60.3236
25.268	59.1098
25.352	58.1955
25.436	57.7916
25.52	57.9102
25.604	58.3195
25.688	58.6217
25.772	58.4732
25.856	57.8044
25.94	56.8694
26.024	56.2141
26.108	56.4631
26.192	58.0333
26.276	60.9652
26.36	64.8755
26.444	69.0429
26.528	72.7383
26.612	75.4802
26.696	77.3444
26.78	79.0014
26.864	81.38
26.948	85.156
27.028	89.9827