Folder: Masteroppgave/Bakgrunnsmateriale/MATLAB/FTIR/ftir_data/subAa/Mapping_121 (part 3)

File: BZ1503107-1_e126.asc
PE IR       SPECTRUM    SPECTRUM    ASCII       PEDS        1.60
  -1
BZE0AA~1.ASC
17/04/07
20:31:16.00
17/04/07
20:31:42.00
tln
$BZ1503107-1_e0126$<ebV0>[-23.3,12.1,10.0,0.0,27,1,0]
27.028
64

2002,4.07
MIRTGS : RIGHTBACK : INTERNAL 2
MIR : ON : INTERNAL 2
OPTKBR

0.200000
8
8.000000
FILLER
SINGLE
SPECTRUM
UNLOCKED 256

DOUBLE

COMBINED
1
0
0

0.002000
BACKG

1
0
TRUE
51149
0
LEFT NOT FITTED RIGHT NOT FITTED 0
NONE
NONE
15600
12
4.427000
51148
TRUE
1 0 8 72 0 0 0 0

15798

#HDR
-1
-1
#GR
µM
EGY
2.38419e-05
0.0
2.000000
0.002000
12515
8
2.464176
0.007677
#DATA
2.000000	 0.780081
2.084000	 0.874826
2.168000	 0.940932
2.252000	 0.807501
2.336000	 1.151888
2.420000	 1.241547
2.504000	 1.405614
2.588000	 1.461494
2.672000	 1.563505
2.756000	 1.585987
2.840000	 1.639354
2.924000	 1.596716
3.008000	 1.700198
3.092000	 1.793740
3.176000	 1.826629
3.260000	 1.946520
3.344000	 2.044258
3.428000	 1.846040
3.512000	 2.026163
3.596000	 2.226789
3.680000	 2.264387
3.764000	 2.231237
3.848000	 2.238090
3.932000	 2.307250
4.016000	 2.334620
4.100000	 2.297118
4.184000	 2.257827
4.268000	 2.272644
4.352000	 2.349490
4.436000	 2.386136
4.520000	 2.376948
4.604000	 2.346246
4.688000	 2.341113
4.772000	 2.345426
4.856000	 2.389157
4.940000	 2.450691
5.024000	 2.459743
5.108000	 2.434771
5.192000	 2.410680
5.276000	 2.376008
5.359999	 2.386191
5.444000	 2.410298
5.528000	 2.434646
5.612000	 2.435915
5.696000	 2.404883
5.780000	 2.329207
5.864000	 2.286591
5.948000	 2.244644
6.032000	 2.194172
6.116000	 2.143377
6.200000	 2.010297
6.284000	 2.018260
6.368000	 1.982128
6.452000	 1.963007
6.536000	 2.102546
6.620000	 2.087260
6.704000	 1.690333
6.788000	 1.975064
6.872000	 1.796204
6.956000	 1.866431
7.040000	 1.859154
7.124000	 1.727721
7.208000	 1.790643
7.292000	 1.817938
7.376000	 1.820096
7.460000	 1.819049
7.544000	 1.850408
7.628000	 1.856264
7.712000	 1.857988
7.796000	 1.854574
7.880000	 1.777056
7.964000	 1.762909
8.048000	 1.835292
8.132000	 1.827784
8.216000	 1.785451
8.300000	 1.746451
8.384000	 1.741933
8.468000	 1.715082
8.552000	 1.675867
8.635999	 1.623780
8.719999	 1.603671
8.804000	 1.574281
8.888000	 1.527057
8.972000	 1.472098
9.056000	 1.433982
9.140000	 1.424022
9.224000	 1.431616
9.308000	 1.431719
9.391999	 1.437889
9.475999	 1.360363
9.560000	 1.326545
9.644000	 1.385005
9.728000	 1.369744
9.812000	 1.362876
9.896000	 1.383617
9.980000	 1.401491
10.064	1.399335
10.148	1.384940
10.232	1.368839
10.316	1.348168
10.4	1.321464
10.484	1.293863
10.568	1.273197
10.652	1.257026
10.736	1.241606
10.82	1.224571
10.904	1.206986
10.988	1.178578
11.072	1.162148
11.156	1.153093
11.24	1.131896
11.324	1.079294
11.408	1.033571
11.492	1.047992
11.576	1.083839
11.66	1.094542
11.744	1.088585
11.828	1.078956
11.912	1.058663
11.996	0.993853
12.08	0.883774
12.164	0.852252
12.248	0.913443
12.332	0.946280
12.416	0.947333
12.5	0.946927
12.584	0.953340
12.668	0.965891
12.752	0.976105
12.836	0.979872
12.92	0.977797
13.004	0.973171
13.088	0.968628
13.172	0.964041
13.256	0.958590
13.34	0.951179
13.424	0.942268
13.508	0.932926
13.592	0.922428
13.676	0.910291
13.76	0.897828
13.844	0.886056
13.928	0.874316
14.012	0.862607
14.096	0.849973
14.18	0.835911
14.264	0.819941
14.348	0.799010
14.432	0.769151
14.516	0.739908
14.6	0.730020
14.684	0.734765
14.768	0.735410
14.852	0.728192
14.936	0.718946
15.02	0.710843
15.104	0.703117
15.188	0.694971
15.272	0.685939
15.356	0.675403
15.44	0.664366
15.524	0.654329
15.608	0.645153
15.692	0.636079
15.776	0.626946
15.86	0.618449
15.944	0.610946
16.028	0.603678
16.112	0.595442
16.196	0.585128
16.28	0.571508
16.364	0.553992
16.448	0.536593
16.532	0.526134
16.616	0.523673
16.7	0.523673
16.784	0.521832
16.868	0.518352
16.952	0.514549
17.036	0.511208
17.12	0.508409
17.204	0.505943
17.288	0.503265
17.372	0.500308
17.456	0.497136
17.54	0.493712
17.624	0.490148
17.708	0.486610
17.792	0.482873
17.876	0.478573
17.96	0.473637
18.044	0.468420
18.128	0.463362
18.212	0.458907
18.296	0.455353
18.38	0.452634
18.464	0.450145
18.548	0.446689
18.632	0.441428
18.716	0.434808
18.8	0.428291
18.884	0.422827
18.968	0.418050
19.052	0.412553
19.136	0.405923
19.22	0.399124
19.304	0.393592
19.388	0.389300
19.472	0.384948
19.556	0.379543
19.64	0.373178
19.724	0.367203
19.808	0.362562
19.892	0.359151
19.976	0.355644
20.06	0.350471
20.144	0.342652
20.228	0.332377
20.312	0.321050
20.396	0.310394
20.48	0.301569
20.564	0.294836
20.648	0.289378
20.732	0.284056
20.816	0.278025
20.9	0.271287
20.984	0.264404
21.068	0.258181
21.152	0.253050
21.236	0.248785
21.32	0.244764
21.404	0.240095
21.488	0.234333
21.572	0.227449
21.656	0.219939
21.74	0.212233
21.824	0.204767
21.908	0.197700
21.992	0.191217
22.076	0.185501
22.16	0.180613
22.244	0.176488
22.328	0.172782
22.412	0.169076
22.496	0.164953
22.58	0.160307
22.664	0.155207
22.748	0.149805
22.832	0.144324
22.916	0.138831
23	0.133460
23.084	0.128331
23.168	0.123442
23.252	0.118797
23.336	0.114224
23.42	0.109435
23.504	0.104348
23.588	0.098831
23.672	0.093157
23.756	0.087616
23.84	0.082539
23.924	0.078150
24.008	0.074469
24.092	0.071321
24.176	0.068510
24.26	0.065788
24.344	0.062941
24.428	0.059862
24.512	0.056535
24.596	0.053096
24.68	0.049622
24.764	0.046317
24.848	0.043295
24.932	0.040583
25.016	0.038159
25.1	0.036016
25.184	0.034017
25.268	0.032108
25.352	0.030301
25.436	0.028477
25.52	0.026688
25.604	0.024933
25.688	0.023163
25.772	0.021434
25.856	0.019761
25.94	0.018210
26.024	0.016795
26.108	0.015589
26.192	0.014629
26.276	0.013811
26.36	0.013154
26.444	0.012567
26.528	0.011996
26.612	0.011367
26.696	0.010712
26.78	0.010000
26.864	0.009206
26.948	0.008402
27.028	0.007677

File: BZ1503107-1_e126_cm-1.asc
PE IR       SPECTRUM    SPECTRUM    ASCII       PEDS        1.60
  -1
BZ0979~1.ASC
17/04/07
20:31:16.00
17/04/07
20:31:16.00
tln
$BZ1503107-1_e0126$<ebV0>[-23.3,12.1,10.0,0.0,27,1,0]
370
64

2002,4.07
MIRTGS : RIGHTBACK : INTERNAL 2
MIR : ON : INTERNAL 2
OPTKBR

0.200000
8
8.000000
FILLER
SINGLE
SPECTRUM
UNLOCKED 256

DOUBLE

COMBINED
1
0
0

1.000000
BACKG

1
0
TRUE
51149
0
LEFT NOT FITTED RIGHT NOT FITTED 0
NONE
NONE
15600
12
4.427000
51148
TRUE
1 0 8 72 0 0 0 0

15798

#HDR
-1
-1
#GR
CM-1
EGY
2.38419e-05
0.0
5000
-1.000000
4631
8
2.464175
0.007677
#DATA
5000	0.780081
4984	0.792717
4968	0.798869
4952	0.780010
4936	0.803446
4920	0.808691
4904	0.811266
4888	0.824570
4872	0.831627
4856	0.840020
4840	0.850248
4824	0.859713
4808	0.869154
4792	0.878739
4776	0.888967
4760	0.897645
4744	0.904417
4728	0.911164
4712	0.913190
4696	0.917124
4680	0.914168
4664	0.917315
4648	0.922465
4632	0.927281
4616	0.937557
4600	0.948739
4584	0.960659
4568	0.972318
4552	0.987744
4536	0.996637
4520	1.006221
4504	1.014328
4488	1.027250
4472	1.024317
4456	1.001811
4440	0.823879
4424	1.041626
4408	1.042485
4392	1.053786
4376	1.059007
4360	1.063442
4344	1.080489
4328	1.097989
4312	1.118230
4296	1.135182
4280	1.152896
4264	1.170301
4248	1.177549
4232	1.191592
4216	1.199579
4200	1.204490
4184	1.209878
4168	1.216816
4152	1.226353
4136	1.240372
4120	1.254391
4104	1.269507
4088	1.289319
4072	1.310992
4056	1.336216
4040	1.356506
4024	1.375913
4008	1.395535
3992	1.406931
3976	1.419663
3960	1.425409
3944	1.434469
3928	1.432585
3912	1.443004
3896	1.444935
3880	1.453518
3864	1.461482
3848	1.474142
3832	1.492404
3816	1.509141
3800	1.528358
3784	1.551699
3768	1.562643
3752	1.558589
3736	1.570677
3720	1.582479
3704	1.585459
3688	1.578497
3672	1.576352
3656	1.584744
3640	1.589035
3624	1.591563
3608	1.596760
3592	1.603770
3576	1.620221
3560	1.627635
3544	1.638078
3528	1.634812
3512	1.640748
3496	1.632761
3480	1.625633
3464	1.617455
3448	1.608037
3432	1.595950
3416	1.597642
3400	1.609301
3384	1.617479
3368	1.633572
3352	1.656603
3336	1.681399
3320	1.705503
3304	1.727032
3288	1.748466
3272	1.767420
3256	1.780033
3240	1.791429
3224	1.799869
3208	1.802206
3192	1.803255
3176	1.806855
3160	1.816487
3144	1.829743
3128	1.847434
3112	1.868224
3096	1.894736
3080	1.930546
3064	1.950216
3048	1.973128
3032	1.990294
3016	1.976442
3000	2.037262
2984	2.038717
2968	1.972007
2952	1.932692
2936	1.824259
2920	1.810622
2904	1.955699
2888	2.009129
2872	1.996064
2856	1.938867
2840	2.082657
2824	2.140736
2808	2.179837
2792	2.207255
2776	2.235364
2760	2.254652
2744	2.265000
2728	2.265596
2712	2.261853
2696	2.254080
2680	2.246499
2664	2.235341
2648	2.224588
2632	2.226972
2616	2.232003
2600	2.237892
2584	2.249503
2568	2.274131
2552	2.295565
2536	2.314853
2520	2.329134
2504	2.337646
2488	2.334690
2472	2.326965
2456	2.310395
2440	2.298188
2424	2.278017
2408	2.268362
2392	2.257943
2376	2.248835
2360	2.242541
2344	2.272224
2328	2.291917
2312	2.325367
2296	2.351212
2280	2.372646
2264	2.383089
2248	2.387261
2232	2.386808
2216	2.379655
2200	2.368903
2184	2.354145
2168	2.343630
2152	2.341985
2136	2.340722
2120	2.342867
2104	2.346205
2088	2.347254
2072	2.366924
2056	2.395367
2040	2.431416
2024	2.450942
2008	2.462577
1992	2.460384
1976	2.452230
1960	2.437067
1944	2.426528
1928	2.413034
1912	2.392172
1896	2.376317
1880	2.382302
1864	2.388191
1848	2.400255
1832	2.412223
1816	2.429533
1800	2.435421
1784	2.436876
1768	2.418637
1752	2.393960
1736	2.333450
1720	2.314066
1704	2.279853
1688	2.255821
1672	2.232956
1656	2.183508
1640	2.158164
1624	2.111077
1608	1.975440
1592	2.018070
1576	1.989030
1560	1.935243
1544	1.962280
1528	2.111697
1512	2.095150
1496	1.703715
1480	1.962780
1464	1.939320
1448	1.786398
1432	1.872301
1416	1.845216
1400	1.733827
1384	1.787734
1368	1.819014
1352	1.818299
1336	1.830434
1320	1.854228
1304	1.857686
1288	1.857805
1272	1.808071
1256	1.758956
1240	1.836752
1224	1.813411
1208	1.749658
1192	1.740860
1176	1.700401
1160	1.631402
1144	1.597595
1128	1.541996
1112	1.459789
1096	1.423954
1080	1.430726
1064	1.437139
1048	1.307797
1032	1.379013
1016	1.368880
1000	1.402878
984	 1.382136
968	 1.343846
952	 1.288199
936	 1.251626
920	 1.215529
904	 1.163291
888	 1.121211
872	 1.038002
856	 1.093888
840	 1.061511
824	 0.847339
808	 0.948119
792	 0.959396
776	 0.979137
760	 0.964856
744	 0.940418
728	 0.901293
712	 0.857830
696	 0.792765
680	 0.735831
664	 0.707197
648	 0.665378
632	 0.622129
616	 0.579500
600	 0.523757
584	 0.508308
568	 0.490927
552	 0.464057
536	 0.439572
520	 0.398325
504	 0.361108
488	 0.300502
472	 0.251221
456	 0.195956
440	 0.151157
424	 0.099039
408	 0.056624
392	 0.026893
376	 0.011491
370	 0.007677

File: BZ1503107-1_e127.asc
PE IR       SPECTRUM    SPECTRUM    ASCII       PEDS        1.60
  -1
BZE0AE~1.ASC
17/04/07
22:19:52.00
17/04/07
22:20:18.00
tln
$BZ1503107-1_e0127$<ebV0>[-23.3,12.1,10.0,0.0,27,1,0]
27.028
64

2002,4.07
MIRTGS : RIGHTBACK : INTERNAL 2
MIR : ON : INTERNAL 2
OPTKBR

0.200000
8
8.000000
FILLER
SINGLE
SPECTRUM
UNLOCKED 256

DOUBLE

COMBINED
1
0
0

0.002000
BACKG

1
0
TRUE
51149
0
LEFT NOT FITTED RIGHT NOT FITTED 0
NONE
NONE
15600
12
4.427000
51148
TRUE
1 0 8 72 0 0 0 0

15798

#HDR
-1
-1
#GR
µM
EGY
2.38419e-05
0.0
2.000000
0.002000
12515
8
2.465510
0.008058
#DATA
2.000000	 0.772833
2.084000	 0.877948
2.168000	 0.937460
2.252000	 1.027943
2.336000	 1.145588
2.420000	 1.244231
2.504000	 1.405666
2.588000	 1.459111
2.672000	 1.561475
2.756000	 1.582069
2.840000	 1.640204
2.924000	 1.595835
3.008000	 1.696528
3.092000	 1.795019
3.176000	 1.823141
3.260000	 1.945459
3.344000	 2.041092
3.428000	 1.847203
3.512000	 2.022183
3.596000	 2.227240
3.680000	 2.264028
3.764000	 2.230517
3.848000	 2.235534
3.932000	 2.306078
4.016000	 2.335623
4.100000	 2.294730
4.184000	 2.256080
4.268000	 2.271359
4.352000	 2.349557
4.436000	 2.388686
4.520000	 2.372999
4.604000	 2.345281
4.688000	 2.339717
4.772000	 2.345973
4.856000	 2.391870
4.940000	 2.451426
5.024000	 2.465510
5.108000	 2.438503
5.192000	 2.407569
5.276000	 2.378779
5.359999	 2.387441
5.444000	 2.411737
5.528000	 2.433901
5.612000	 2.432184
5.696000	 2.403600
5.780000	 2.328711
5.864000	 2.285287
5.948000	 2.242265
6.032000	 2.195007
6.116000	 2.143841
6.200000	 2.012708
6.284000	 2.020099
6.368000	 1.984239
6.452000	 1.961815
6.536000	 2.102905
6.620000	 2.085933
6.704000	 1.691742
6.788000	 1.978517
6.872000	 1.793407
6.956000	 1.865774
7.040000	 1.857717
7.124000	 1.727834
7.208000	 1.790478
7.292000	 1.816975
7.376000	 1.818698
7.460000	 1.816919
7.544000	 1.848820
7.628000	 1.855879
7.712000	 1.856185
7.796000	 1.851541
7.880000	 1.775651
7.964000	 1.765311
8.048000	 1.835135
8.132000	 1.827232
8.216000	 1.784488
8.300000	 1.745317
8.384000	 1.741689
8.468000	 1.713351
8.552000	 1.675319
8.635999	 1.622276
8.719999	 1.606081
8.804000	 1.575337
8.888000	 1.526843
8.972000	 1.472850
9.056000	 1.433989
9.140000	 1.425714
9.224000	 1.430997
9.308000	 1.431982
9.391999	 1.437295
9.475999	 1.359534
9.560000	 1.325995
9.644000	 1.387538
9.728000	 1.369758
9.812000	 1.362367
9.896000	 1.381965
9.980000	 1.398987
10.064	1.399837
10.148	1.386287
10.232	1.370853
10.316	1.349260
10.4	1.322577
10.484	1.294567
10.568	1.272308
10.652	1.259055
10.736	1.242584
10.82	1.226380
10.904	1.205055
10.988	1.177939
11.072	1.159384
11.156	1.149002
11.24	1.130015
11.324	1.079503
11.408	1.032583
11.492	1.048132
11.576	1.084306
11.66	1.093891
11.744	1.085975
11.828	1.077978
11.912	1.058916
11.996	0.992728
12.08	0.880865
12.164	0.851445
12.248	0.913262
12.332	0.945814
12.416	0.946195
12.5	0.943493
12.584	0.951266
12.668	0.966482
12.752	0.977276
12.836	0.980564
12.92	0.978130
13.004	0.972813
13.088	0.968788
13.172	0.964226
13.256	0.958854
13.34	0.952516
13.424	0.944500
13.508	0.935805
13.592	0.924315
13.676	0.911232
13.76	0.898732
13.844	0.886712
13.928	0.874480
14.012	0.861903
14.096	0.849321
14.18	0.835221
14.264	0.818752
14.348	0.797843
14.432	0.767716
14.516	0.738984
14.6	0.729899
14.684	0.733530
14.768	0.733867
14.852	0.728633
14.936	0.720645
15.02	0.711787
15.104	0.702644
15.188	0.693489
15.272	0.684607
15.356	0.675298
15.44	0.665496
15.524	0.655697
15.608	0.646141
15.692	0.636690
15.776	0.627547
15.86	0.619207
15.944	0.611468
16.028	0.603788
16.112	0.595262
16.196	0.584269
16.28	0.569496
16.364	0.552002
16.448	0.536393
16.532	0.527423
16.616	0.524823
16.7	0.523969
16.784	0.521907
16.868	0.518738
16.952	0.515830
17.036	0.513763
17.12	0.512051
17.204	0.510073
17.288	0.508198
17.372	0.507119
17.456	0.505611
17.54	0.501472
17.624	0.494464
17.708	0.486949
17.792	0.481192
17.876	0.477367
17.96	0.474161
18.044	0.470517
18.128	0.466284
18.212	0.461676
18.296	0.456430
18.38	0.450383
18.464	0.443894
18.548	0.438003
18.632	0.433917
18.716	0.431323
18.8	0.428805
18.884	0.424988
18.968	0.419844
19.052	0.414092
19.136	0.408367
19.22	0.402762
19.304	0.397107
19.388	0.391321
19.472	0.385413
19.556	0.379586
19.64	0.374139
19.724	0.369135
19.808	0.364093
19.892	0.358305
19.976	0.351311
20.06	0.343231
20.144	0.334779
20.228	0.326518
20.312	0.318823
20.396	0.311647
20.48	0.304764
20.564	0.298098
20.648	0.291545
20.732	0.285070
20.816	0.278627
20.9	0.272140
20.984	0.265851
21.068	0.259790
21.152	0.253974
21.236	0.248314
21.32	0.242560
21.404	0.236614
21.488	0.230378
21.572	0.224040
21.656	0.217715
21.74	0.211532
21.824	0.205313
21.908	0.198968
21.992	0.192448
22.076	0.185894
22.16	0.179667
22.244	0.174159
22.328	0.169570
22.412	0.165788
22.496	0.162370
22.58	0.158824
22.664	0.154813
22.748	0.150222
22.832	0.145186
22.916	0.139928
23	0.134542
23.084	0.129187
23.168	0.123842
23.252	0.118587
23.336	0.113434
23.42	0.108457
23.504	0.103600
23.588	0.098914
23.672	0.094275
23.756	0.089720
23.84	0.085256
23.924	0.081035
24.008	0.077046
24.092	0.073311
24.176	0.069740
24.26	0.066246
24.344	0.062757
24.428	0.059258
24.512	0.055772
24.596	0.052471
24.68	0.049370
24.764	0.046517
24.848	0.043857
24.932	0.041296
25.016	0.038820
25.1	0.036384
25.184	0.034103
25.268	0.031970
25.352	0.029989
25.436	0.028141
25.52	0.026384
25.604	0.024684
25.688	0.022926
25.772	0.021195
25.856	0.019518
25.94	0.017942
26.024	0.016586
26.108	0.015445
26.192	0.014576
26.276	0.013840
26.36	0.013196
26.444	0.012595
26.528	0.011995
26.612	0.011346
26.696	0.010712
26.78	0.010020
26.864	0.009344
26.948	0.008655
27.028	0.008058

File: BZ1503107-1_e127_cm-1.asc
PE IR       SPECTRUM    SPECTRUM    ASCII       PEDS        1.60
  -1
BZ09FC~1.ASC
17/04/07
22:19:52.00
17/04/07
22:19:52.00
tln
$BZ1503107-1_e0127$<ebV0>[-23.3,12.1,10.0,0.0,27,1,0]
370
64

2002,4.07
MIRTGS : RIGHTBACK : INTERNAL 2
MIR : ON : INTERNAL 2
OPTKBR

0.200000
8
8.000000
FILLER
SINGLE
SPECTRUM
UNLOCKED 256

DOUBLE

COMBINED
1
0
0

1.000000
BACKG

1
0
TRUE
51149
0
LEFT NOT FITTED RIGHT NOT FITTED 0
NONE
NONE
15600
12
4.427000
51148
TRUE
1 0 8 72 0 0 0 0

15798

#HDR
-1
-1
#GR
CM-1
EGY
2.38419e-05
0.0
5000
-1.000000
4631
8
2.465510
0.008058
#DATA
5000	0.772833
4984	0.776124
4968	0.793600
4952	0.792026
4936	0.801372
4920	0.808143
4904	0.810933
4888	0.821590
4872	0.830769
4856	0.836944
4840	0.848484
4824	0.862097
4808	0.873947
4792	0.884032
4776	0.894927
4760	0.900101
4744	0.907182
4728	0.910067
4712	0.915932
4696	0.919318
4680	0.921964
4664	0.920391
4648	0.922989
4632	0.929093
4616	0.934696
4600	0.944924
4584	0.955510
4568	0.965118
4552	0.978255
4536	0.988698
4520	0.995588
4504	1.004981
4488	1.012396
4472	1.006674
4456	0.988650
4440	1.033306
4424	1.076865
4408	1.023602
4392	1.035881
4376	1.039004
4360	1.053643
4344	1.073670
4328	1.088428
4312	1.110124
4296	1.130652
4280	1.146650
4264	1.163911
4248	1.177620
4232	1.187968
4216	1.196312
4200	1.203083
4184	1.213288
4168	1.219964
4152	1.230144
4136	1.242494
4120	1.256346
4104	1.271533
4088	1.291990
4072	1.311564
4056	1.334333
4040	1.360321
4024	1.378154
4008	1.392674
3992	1.407241
3976	1.418852
3960	1.424026
3944	1.426100
3928	1.434183
3912	1.438975
3896	1.442480
3880	1.448059
3864	1.459097
3848	1.472878
3832	1.489305
3816	1.508259
3800	1.523184
3784	1.552557
3768	1.561379
3752	1.559472
3736	1.570510
3720	1.583528
3704	1.587080
3688	1.579189
3672	1.574611
3656	1.583409
3640	1.590108
3624	1.587796
3608	1.595664
3592	1.607561
3576	1.619505
3560	1.626515
3544	1.634311
3528	1.638436
3512	1.639628
3496	1.633882
3480	1.625537
3464	1.617383
3448	1.605391
3432	1.593613
3416	1.595759
3400	1.606774
3384	1.618790
3368	1.629519
3352	1.655793
3336	1.681280
3320	1.704072
3304	1.729202
3288	1.748967
3272	1.767373
3256	1.780366
3240	1.791715
3224	1.799631
3208	1.799559
3192	1.802587
3176	1.806759
3160	1.813435
3144	1.828479
3128	1.846194
3112	1.865959
3096	1.896214
3080	1.926279
3064	1.948952
3048	1.977372
3032	1.986122
3016	1.976537
3000	2.033972
2984	2.037072
2968	1.969408
2952	1.928567
2936	1.823234
2920	1.811623
2904	1.958537
2888	2.003836
2872	1.995062
2856	1.935982
2840	2.079343
2824	2.141833
2808	2.178120
2792	2.207398
2776	2.236294
2760	2.255582
2744	2.266049
2728	2.265882
2712	2.260565
2696	2.254271
2680	2.245473
2664	2.233481
2648	2.227926
2632	2.228283
2616	2.230310
2600	2.235031
2584	2.249670
2568	2.273488
2552	2.294921
2536	2.312922
2520	2.326083
2504	2.334666
2488	2.335357
2472	2.326226
2456	2.312040
2440	2.295684
2424	2.282691
2408	2.268838
2392	2.256822
2376	2.250361
2360	2.245688
2344	2.271032
2328	2.291870
2312	2.328133
2296	2.351784
2280	2.369880
2264	2.382946
2248	2.388858
2232	2.388596
2216	2.376151
2200	2.364277
2184	2.352523
2168	2.343702
2152	2.340269
2136	2.338957
2120	2.342081
2104	2.346348
2088	2.345442
2072	2.364730
2056	2.398896
2040	2.431416
2024	2.451658
2008	2.462005
1992	2.465438
1976	2.453303
1960	2.440023
1944	2.425861
1928	2.409505
1912	2.393531
1896	2.379155
1880	2.380537
1864	2.389287
1848	2.399897
1832	2.413821
1816	2.431011
1800	2.434968
1784	2.433753
1768	2.419400
1752	2.391839
1736	2.331852
1720	2.313280
1704	2.278661
1688	2.253532
1672	2.229166
1656	2.184414
1640	2.158641
1624	2.111887
1608	1.979446
1592	2.020072
1576	1.988959
1560	1.936364
1544	1.962494
1528	2.112174
1512	2.093219
1496	1.704335
1480	1.963639
1464	1.939463
1448	1.785373
1432	1.872634
1416	1.843309
1400	1.733446
1384	1.788377
1368	1.819109
1352	1.816344
1336	1.828026
1320	1.853346
1304	1.856637
1288	1.856327
1272	1.807022
1256	1.761341
1240	1.835894
1224	1.814126
1208	1.747393
1192	1.740598
1176	1.699709
1160	1.629304
1144	1.600027
1128	1.540541
1112	1.460051
1096	1.425552
1080	1.428318
1064	1.436233
1048	1.307249
1032	1.380348
1016	1.368451
1000	1.400876
984	 1.383376
968	 1.344704
952	 1.288223
936	 1.253318
920	 1.215004
904	 1.161003
888	 1.120448
872	 1.038050
856	 1.092481
840	 1.061773
824	 0.845551
808	 0.947761
792	 0.958728
776	 0.979709
760	 0.965118
744	 0.942873
728	 0.902175
712	 0.857019
696	 0.791597
680	 0.734233
664	 0.707435
648	 0.666427
632	 0.622820
616	 0.578093
600	 0.524377
584	 0.511980
568	 0.496149
552	 0.466918
536	 0.433063
520	 0.402045
504	 0.361943
488	 0.303816
472	 0.251650
456	 0.197291
440	 0.151395
424	 0.099086
408	 0.055861
392	 0.026583
376	 0.011467
370	 0.008058

File: BZ1503107-1_t01.asc
PE IR       SPECTRUM    SPECTRUM    ASCII       PEDS        1.60
  -1
BZ1503~4.ASC
17/04/07
13:20:30.00
17/04/07
13:20:56.00
tln
$BZ1503107-1_t0001$<tbV0>[13.0,-13.0,8.0,0.0,27,1,0]
27.028
64

2002,4.07
MIRTGS : RIGHTBACK : INTERNAL 2
MIR : ON : INTERNAL 2
OPTKBR

0.200000
8
8.000000
FILLER
RATIO
SPECTRUM
UNLOCKED 256

DOUBLE
64
COMBINED
1
0
0

0.002000
RATIO

1
0
TRUE
51149
0
LEFT NOT FITTED RIGHT NOT FITTED 0
NONE
NONE
15600
12
4.427000
51148
TRUE
1 0 8 72 0 0 0 0

15798

#HDR
-1
-1
#GR
µM
%T
2.38419e-05
0.0
2.000000
0.002000
12515
8
109.6
41.8384
#DATA
2.000000	 65.3366
2.084000	 65.9836
2.168000	 64.6876
2.252000	 65.7062
2.336000	 65.0981
2.420000	 64.7334
2.504000	 64.9477
2.588000	 65.0454
2.672000	 65.4273
2.756000	 65.3607
2.840000	 65.0601
2.924000	 65.1944
3.008000	 65.1884
3.092000	 65.0555
3.176000	 65.0901
3.260000	 65.2192
3.344000	 65.1723
3.428000	 64.8742
3.512000	 64.9954
3.596000	 65.153
3.680000	 65.0773
3.764000	 65.1036
3.848000	 64.9983
3.932000	 65.0409
4.016000	 65.0562
4.100000	 65.0009
4.184000	 65.0774
4.268000	 65.0065
4.352000	 64.923
4.436000	 65.0094
4.520000	 64.8659
4.604000	 65.0333
4.688000	 64.9887
4.772000	 64.8923
4.856000	 64.8956
4.940000	 64.9531
5.024000	 64.8415
5.108000	 64.9371
5.192000	 64.8207
5.276000	 64.9123
5.359999	 64.9218
5.444000	 64.8161
5.528000	 64.9026
5.612000	 64.7485
5.696000	 64.732
5.780000	 64.5808
5.864000	 64.7524
5.948000	 64.607
6.032000	 64.7027
6.116000	 64.5284
6.200000	 64.5731
6.284000	 64.6012
6.368000	 64.6352
6.452000	 64.642
6.536000	 64.5907
6.620000	 64.6038
6.704000	 64.6828
6.788000	 64.7167
6.872000	 64.462
6.956000	 64.7082
7.040000	 64.4843
7.124000	 64.4722
7.208000	 64.5242
7.292000	 64.5761
7.376000	 64.4706
7.460000	 64.6374
7.544000	 64.4409
7.628000	 64.3224
7.712000	 64.4216
7.796000	 64.4202
7.880000	 64.3433
7.964000	 64.3005
8.048000	 64.2048
8.132000	 64.3267
8.216000	 64.2916
8.300000	 64.3644
8.384000	 64.332
8.468000	 64.1212
8.552000	 64.2272
8.635999	 64.3126
8.719999	 64.1219
8.804000	 64.3832
8.888000	 64.3857
8.972000	 64.276
9.056000	 64.1688
9.140000	 64.4644
9.224000	 64.427
9.308000	 64.1931
9.391999	 64.2559
9.475999	 64.161
9.560000	 64.2017
9.644000	 64.2603
9.728000	 64.3167
9.812000	 64.1334
9.896000	 64.2504
9.980000	 64.3542
10.064	64.2221
10.148	64.2787
10.232	64.2058
10.316	64.2353
10.4	64.2953
10.484	64.2722
10.568	64.3919
10.652	64.1656
10.736	64.3292
10.82	64.3827
10.904	64.4459
10.988	64.3012
11.072	64.1004
11.156	64.2769
11.24	64.3092
11.324	64.3747
11.408	64.3034
11.492	64.2558
11.576	64.1304
11.66	64.1378
11.744	64.3672
11.828	64.552
11.912	64.3784
11.996	64.2185
12.08	64.1199
12.164	64.1295
12.248	64.1055
12.332	64.1684
12.416	64.1798
12.5	64.1676
12.584	64.2546
12.668	64.1944
12.752	64.1409
12.836	64.2266
12.92	64.4177
13.004	64.3326
13.088	64.1138
13.172	64.1086
13.256	64.1039
13.34	64.0224
13.424	63.9722
13.508	64.03
13.592	64.0804
13.676	64.1286
13.76	64.1272
13.844	64.1126
13.928	64.0701
14.012	64.0751
14.096	64.1879
14.18	64.2868
14.264	64.2861
14.348	64.1437
14.432	64.0598
14.516	64.2215
14.6	64.3586
14.684	64.2069
14.768	64.0787
14.852	64.2169
14.936	64.2753
15.02	64.1528
15.104	64.1817
15.188	64.302
15.272	64.2677
15.356	64.1998
15.44	64.2574
15.524	64.3511
15.608	64.3469
15.692	64.2516
15.776	64.1745
15.86	64.1746
15.944	64.1419
16.028	63.9869
16.112	63.8662
16.196	63.9264
16.28	64.0055
16.364	63.9179
16.448	63.7956
16.532	63.8
16.616	63.8293
16.7	63.7287
16.784	63.5528
16.868	63.505
16.952	63.6677
17.036	63.9147
17.12	64.114
17.204	64.2621
17.288	64.3548
17.372	64.3319
17.456	64.2245
17.54	64.1706
17.624	64.2419
17.708	64.3673
17.792	64.453
17.876	64.4767
17.96	64.4207
18.044	64.2458
18.128	64.0118
18.212	63.8791
18.296	63.9464
18.38	64.1613
18.464	64.3704
18.548	64.4354
18.632	64.3441
18.716	64.2062
18.8	64.139
18.884	64.1786
18.968	64.2813
19.052	64.3776
19.136	64.4428
19.22	64.5062
19.304	64.5831
19.388	64.6505
19.472	64.6877
19.556	64.6994
19.64	64.6891
19.724	64.6486
19.808	64.5759
19.892	64.4801
19.976	64.3709
20.06	64.2598
20.144	64.182
20.228	64.1932
20.312	64.3194
20.396	64.5088
20.48	64.6552
20.564	64.6815
20.648	64.6066
20.732	64.5167
20.816	64.4831
20.9	64.5056
20.984	64.5284
21.068	64.5043
21.152	64.4299
21.236	64.3341
21.32	64.2455
21.404	64.1801
21.488	64.1471
21.572	64.1473
21.656	64.1587
21.74	64.1247
21.824	63.9791
21.908	63.7061
21.992	63.378
22.076	63.1269
22.16	63.0727
22.244	63.2381
22.328	63.5361
22.412	63.8259
22.496	64.0042
22.58	64.0631
22.664	64.0649
22.748	64.0708
22.832	64.0689
22.916	63.9958
23	63.7944
23.084	63.4858
23.168	63.1913
23.252	63.0502
23.336	63.135
23.42	63.4015
23.504	63.7149
23.588	63.93
23.672	63.9852
23.756	63.9457
23.84	63.9338
23.924	64.0519
24.008	64.3448
24.092	64.8059
24.176	65.3885
24.26	66.0684
24.344	66.8261
24.428	67.6196
24.512	68.3827
24.596	69.0075
24.68	69.2999
24.764	69.0144
24.848	68.0574
24.932	66.5138
25.016	64.6784
25.1	63.0495
25.184	62.1463
25.268	62.2969
25.352	63.5905
25.436	65.605
25.52	67.5883
25.604	68.848
25.688	68.9091
25.772	67.6317
25.856	65.0955
25.94	61.8996
26.024	58.4326
26.108	54.3161
26.192	49.4458
26.276	44.5748
26.36	41.9286
26.444	43.3106
26.528	49.2379
26.612	57.2953
26.696	65.0994
26.78	72.0405
26.864	80.5305
26.948	93.694
27.028	109.6