Folder: Masteroppgave/Bakgrunnsmateriale/MATLAB/FTIR/ftir_data/subAa/Mapping_121 (part 9)

File: BZ1503107-1_t14.asc
PE IR       SPECTRUM    SPECTRUM    ASCII       PEDS        1.60
  -1
BZ295B~1.ASC
17/04/07
14:21:08.00
17/04/07
14:21:34.00
tln
$BZ1503107-1_t0014$<tbV0>[7.8,-10.4,8.0,0.0,27,1,0]
27.028
64

2002,4.07
MIRTGS : RIGHTBACK : INTERNAL 2
MIR : ON : INTERNAL 2
OPTKBR

0.200000
8
8.000000
FILLER
RATIO
SPECTRUM
UNLOCKED 256

DOUBLE
64
COMBINED
1
0
0

0.002000
RATIO

1
0
TRUE
51149
0
LEFT NOT FITTED RIGHT NOT FITTED 0
NONE
NONE
15600
12
4.427000
51148
TRUE
1 0 8 72 0 0 0 0

15798

#HDR
-1
-1
#GR
µM
%T
2.38419e-05
0.0
2.000000
0.002000
12515
8
98.3437
52.1636
#DATA
2.000000	 64.0523
2.084000	 65.7826
2.168000	 65.0042
2.252000	 68.759
2.336000	 64.9289
2.420000	 65.1195
2.504000	 65.3382
2.588000	 65.2885
2.672000	 65.4171
2.756000	 65.4172
2.840000	 65.2446
2.924000	 65.3158
3.008000	 65.1315
3.092000	 65.1343
3.176000	 65.3179
3.260000	 65.2631
3.344000	 65.1763
3.428000	 65.0103
3.512000	 65.0988
3.596000	 65.1063
3.680000	 65.1635
3.764000	 65.0955
3.848000	 65.0268
3.932000	 65.093
4.016000	 65.1384
4.100000	 64.9482
4.184000	 65.093
4.268000	 65.0385
4.352000	 64.9976
4.436000	 65.0491
4.520000	 64.8216
4.604000	 65.0284
4.688000	 64.8473
4.772000	 64.8622
4.856000	 64.9214
4.940000	 64.9652
5.024000	 64.8378
5.108000	 64.8688
5.192000	 64.7835
5.276000	 64.8317
5.359999	 64.8331
5.444000	 64.9102
5.528000	 64.9025
5.612000	 64.8462
5.696000	 64.7995
5.780000	 64.6867
5.864000	 64.7531
5.948000	 64.6896
6.032000	 64.7845
6.116000	 64.6841
6.200000	 64.6841
6.284000	 64.6866
6.368000	 64.7548
6.452000	 64.7105
6.536000	 64.5836
6.620000	 64.7402
6.704000	 64.7089
6.788000	 64.6907
6.872000	 64.7971
6.956000	 64.6136
7.040000	 64.495
7.124000	 64.5091
7.208000	 64.4696
7.292000	 64.352
7.376000	 64.5567
7.460000	 64.525
7.544000	 64.4922
7.628000	 64.4741
7.712000	 64.4936
7.796000	 64.4492
7.880000	 64.3723
7.964000	 64.3783
8.048000	 64.2987
8.132000	 64.2269
8.216000	 64.4513
8.300000	 64.301
8.384000	 64.3955
8.468000	 64.4147
8.552000	 64.2605
8.635999	 64.1623
8.719999	 64.0989
8.804000	 64.2763
8.888000	 64.3843
8.972000	 64.2315
9.056000	 64.1732
9.140000	 64.4423
9.224000	 64.4586
9.308000	 64.3959
9.391999	 64.1322
9.475999	 64.2864
9.560000	 64.2328
9.644000	 64.004
9.728000	 64.123
9.812000	 64.1976
9.896000	 64.1813
9.980000	 64.2401
10.064	64.2456
10.148	64.2759
10.232	64.3798
10.316	64.3068
10.4	64.394
10.484	64.3644
10.568	64.315
10.652	64.2568
10.736	64.1561
10.82	64.2334
10.904	64.4977
10.988	64.3909
11.072	64.1786
11.156	64.2029
11.24	64.1537
11.324	64.2248
11.408	64.1791
11.492	64.1364
11.576	64.0205
11.66	64.0542
11.744	64.2175
11.828	64.2972
11.912	64.15
11.996	64.1694
12.08	64.0943
12.164	64.1787
12.248	64.1956
12.332	64.1745
12.416	64.0128
12.5	63.9535
12.584	64.1695
12.668	64.271
12.752	64.2555
12.836	64.2083
12.92	64.2385
13.004	64.2004
13.088	64.0996
13.172	64.0597
13.256	64.1645
13.34	64.1784
13.424	64.056
13.508	64.0649
13.592	63.9223
13.676	63.8322
13.76	63.9443
13.844	63.9484
13.928	63.9338
14.012	63.9709
14.096	64.0012
14.18	63.9791
14.264	63.971
14.348	63.9267
14.432	63.8581
14.516	63.9003
14.6	63.8865
14.684	63.7559
14.768	63.6975
14.852	63.7921
14.936	63.9012
15.02	63.898
15.104	63.8525
15.188	63.8415
15.272	63.862
15.356	63.9092
15.44	63.923
15.524	63.8576
15.608	63.7794
15.692	63.764
15.776	63.8005
15.86	63.8177
15.944	63.7561
16.028	63.6406
16.112	63.5849
16.196	63.6296
16.28	63.7101
16.364	63.8102
16.448	63.872
16.532	63.7551
16.616	63.5858
16.7	63.6553
16.784	63.8679
16.868	63.9182
16.952	63.8037
17.036	63.7771
17.12	63.9625
17.204	64.2617
17.288	64.5499
17.372	64.7496
17.456	64.7093
17.54	64.2965
17.624	63.795
17.708	63.7511
17.792	64.2139
17.876	64.564
17.96	64.3069
18.044	63.658
18.128	63.1881
18.212	63.1645
18.296	63.4585
18.38	63.8563
18.464	64.2659
18.548	64.6683
18.632	65.0066
18.716	65.1998
18.8	65.218
18.884	65.1
18.968	64.927
19.052	64.7858
19.136	64.6981
19.22	64.58
19.304	64.3091
19.388	63.9037
19.472	63.588
19.556	63.6058
19.64	63.9784
19.724	64.4862
19.808	64.8752
19.892	65.0308
19.976	64.9738
20.06	64.7722
20.144	64.4868
20.228	64.172
20.312	63.8617
20.396	63.5621
20.48	63.3013
20.564	63.1843
20.648	63.3681
20.732	63.9159
20.816	64.6753
20.9	65.3271
20.984	65.5938
21.068	65.4195
21.152	64.9738
21.236	64.4983
21.32	64.1521
21.404	63.9724
21.488	63.9169
21.572	63.9259
21.656	63.9326
21.74	63.8653
21.824	63.6718
21.908	63.3653
21.992	63.0326
22.076	62.7832
22.16	62.6819
22.244	62.7091
22.328	62.7858
22.412	62.8412
22.496	62.8616
22.58	62.8866
22.664	62.9707
22.748	63.1364
22.832	63.3545
22.916	63.5756
23	63.7656
23.084	63.9132
23.168	64.0404
23.252	64.1747
23.336	64.3068
23.42	64.4048
23.504	64.4174
23.588	64.3072
23.672	64.0813
23.756	63.8057
23.84	63.5694
23.924	63.4572
24.008	63.5356
24.092	63.8492
24.176	64.4068
24.26	65.137
24.344	65.8973
24.428	66.505
24.512	66.6958
24.596	66.2587
24.68	65.0681
24.764	63.1271
24.848	60.5935
24.932	57.7912
25.016	55.1548
25.1	53.1663
25.184	52.2185
25.268	52.4147
25.352	53.5103
25.436	55.0638
25.52	56.5864
25.604	57.6909
25.688	58.0883
25.772	57.773
25.856	57.0684
25.94	56.9776
26.024	58.4081
26.108	61.3288
26.192	65.3651
26.276	70.1308
26.36	75.9396
26.444	82.3609
26.528	88.2199
26.612	90.7799
26.696	88.8652
26.78	84.4394
26.864	82.6365
26.948	88.0646
27.028	98.3437

File: BZ1503107-1_t14_cm-1.asc
PE IR       SPECTRUM    SPECTRUM    ASCII       PEDS        1.60
  -1
BZ6CA1~1.ASC
17/04/07
14:21:08.00
17/04/07
14:21:08.00
tln
$BZ1503107-1_t0014$<tbV0>[7.8,-10.4,8.0,0.0,27,1,0]
370
64

2002,4.07
MIRTGS : RIGHTBACK : INTERNAL 2
MIR : ON : INTERNAL 2
OPTKBR

0.200000
8
8.000000
FILLER
RATIO
SPECTRUM
UNLOCKED 256

DOUBLE
64
COMBINED
1
0
0

1.000000
RATIO

1
0
TRUE
51149
0
LEFT NOT FITTED RIGHT NOT FITTED 0
NONE
NONE
15600
12
4.427000
51148
TRUE
1 0 8 72 0 0 0 0

15798

#HDR
-1
-1
#GR
CM-1
%T
2.38419e-05
0.0
5000
-1.000000
4631
8
98.3437
52.1989
#DATA
5000	64.0523
4984	64.052
4968	63.9456
4952	64.3295
4936	66.1551
4920	64.1091
4904	65.2324
4888	64.7711
4872	64.6382
4856	64.8397
4840	65.2387
4824	65.0169
4808	64.8156
4792	65.4442
4776	65.0578
4760	65.0912
4744	65.1318
4728	64.8734
4712	64.5232
4696	64.6477
4680	65.1161
4664	64.933
4648	64.8669
4632	64.4639
4616	64.7309
4600	64.9354
4584	64.7972
4568	64.6738
4552	64.3955
4536	64.6911
4520	64.4879
4504	64.8791
4488	68.0026
4472	65.4186
4456	61.1701
4440	69.3599
4424	63.5304
4408	65.3081
4392	64.5282
4376	64.843
4360	64.7773
4344	64.8124
4328	64.5257
4312	65.0184
4296	65.1121
4280	64.9263
4264	64.8566
4248	65.3319
4232	65.3203
4216	65.2676
4200	65.3817
4184	65.2885
4168	65.0264
4152	65.2228
4136	65.1408
4120	65.1475
4104	65.6813
4088	65.2911
4072	65.2053
4056	65.4603
4040	65.1092
4024	65.1607
4008	65.0026
3992	65.3503
3976	65.0222
3960	65.1064
3944	65.5207
3928	64.9888
3912	64.9332
3896	65.3108
3880	65.2284
3864	65.2887
3848	65.2591
3832	65.4575
3816	65.2908
3800	65.3414
3784	65.1819
3768	65.2661
3752	65.5023
3736	65.2382
3720	65.1145
3704	65.2607
3688	65.4462
3672	65.4938
3656	65.2031
3640	65.4046
3624	65.343
3608	65.3947
3592	65.1144
3576	65.3264
3560	65.0133
3544	65.1853
3528	65.1168
3512	65.1911
3496	65.0802
3480	65.1841
3464	65.0872
3448	65.2126
3432	65.2442
3416	65.344
3400	65.1302
3384	65.0515
3368	65.3152
3352	65.0255
3336	65.2184
3320	65.2626
3304	65.1574
3288	65.3736
3272	65.153
3256	65.2067
3240	65.0864
3224	65.3582
3208	65.294
3192	65.1961
3176	65.2391
3160	65.2378
3144	65.2931
3128	65.0697
3112	65.1133
3096	65.3336
3080	65.1929
3064	65.2721
3048	65.0497
3032	65.1658
3016	65.2364
3000	65.3589
2984	65.2504
2968	65.1686
2952	65.1581
2936	65.0116
2920	65.0154
2904	65.0619
2888	65.0755
2872	65.2494
2856	65.0713
2840	65.0691
2824	65.1999
2808	65.0706
2792	65.0413
2776	65.0663
2760	65.0756
2744	65.0947
2728	65.2068
2712	65.1383
2696	65.1484
2680	65.0837
2664	65.0579
2648	65.0584
2632	64.962
2616	64.967
2600	64.9909
2584	65.1185
2568	65.0803
2552	65.1566
2536	65.0238
2520	65.0807
2504	65.1685
2488	65.1806
2472	65.04
2456	65.0178
2440	64.9574
2424	64.9268
2408	64.9527
2392	65.0695
2376	65.1151
2360	65.0993
2344	65.0526
2328	64.8869
2312	65.1667
2296	65.031
2280	64.9767
2264	65.0559
2248	65.005
2232	64.8637
2216	64.8885
2200	64.9753
2184	64.9553
2168	65.0267
2152	64.7052
2136	64.8247
2120	64.9466
2104	64.9482
2088	64.8902
2072	64.9857
2056	64.8992
2040	64.8002
2024	64.963
2008	64.9473
1992	64.8188
1976	64.973
1960	64.8802
1944	64.8844
1928	64.8063
1912	64.9516
1896	64.8252
1880	64.8452
1864	64.8033
1848	64.9338
1832	64.922
1816	64.8757
1800	64.8611
1784	64.8431
1768	64.8805
1752	64.7476
1736	64.8242
1720	64.7703
1704	64.7667
1688	64.6853
1672	64.7026
1656	64.8082
1640	64.6745
1624	64.7091
1608	64.6716
1592	64.6867
1576	64.8439
1560	64.8576
1544	64.7957
1528	64.5956
1512	64.7465
1496	64.7305
1480	64.6808
1464	64.6575
1448	64.5571
1432	64.5927
1416	64.4428
1400	64.5106
1384	64.4534
1368	64.4053
1352	64.5216
1336	64.4226
1320	64.5141
1304	64.4297
1288	64.5206
1272	64.3395
1256	64.3807
1240	64.29
1224	64.4227
1208	64.3245
1192	64.4019
1176	64.2577
1160	64.1793
1144	64.1676
1128	64.3232
1112	64.1723
1096	64.4147
1080	64.4509
1064	64.124
1048	64.2988
1032	64.0625
1016	64.233
1000	64.2314
984	 64.3189
968	 64.3455
952	 64.3466
936	 64.2042
920	 64.3693
904	 64.1766
888	 64.1798
872	 64.1658
856	 64.0874
840	 64.1573
824	 64.1439
808	 64.1001
792	 64.2499
776	 64.2188
760	 64.0579
744	 64.0512
728	 63.9152
712	 63.9879
696	 63.905
680	 63.7262
664	 63.8739
648	 63.9252
632	 63.8174
616	 63.664
600	 63.5944
584	 63.973
568	 63.882
552	 63.2289
536	 65.0818
520	 64.5556
504	 64.9658
488	 63.273
472	 64.7699
456	 63.2768
440	 63.0889
424	 64.3134
408	 66.6984
392	 56.4257
376	 90.6676
370	 98.3437

File: BZ1503107-1_t15.asc
PE IR       SPECTRUM    SPECTRUM    ASCII       PEDS        1.60
  -1
BZ2D5B~1.ASC
17/04/07
14:25:45.00
17/04/07
14:26:11.00
tln
$BZ1503107-1_t0015$<tbV0>[5.2,-10.4,8.0,0.0,27,1,0]
27.028
64

2002,4.07
MIRTGS : RIGHTBACK : INTERNAL 2
MIR : ON : INTERNAL 2
OPTKBR

0.200000
8
8.000000
FILLER
RATIO
SPECTRUM
UNLOCKED 256

DOUBLE
64
COMBINED
1
0
0

0.002000
RATIO

1
0
TRUE
51149
0
LEFT NOT FITTED RIGHT NOT FITTED 0
NONE
NONE
15600
12
4.427000
51148
TRUE
1 0 8 72 0 0 0 0

15798

#HDR
-1
-1
#GR
µM
%T
2.38419e-05
0.0
2.000000
0.002000
12515
8
88.5317
57.811
#DATA
2.000000	 64.6437
2.084000	 66.4215
2.168000	 64.668
2.252000	 74.9385
2.336000	 64.7929
2.420000	 65.1272
2.504000	 64.9562
2.588000	 64.9534
2.672000	 65.5598
2.756000	 65.3645
2.840000	 65.2091
2.924000	 65.1341
3.008000	 65.4231
3.092000	 65.1554
3.176000	 65.2145
3.260000	 65.0293
3.344000	 65.0953
3.428000	 64.9429
3.512000	 65.076
3.596000	 65.2238
3.680000	 65.1149
3.764000	 65.0465
3.848000	 65.0674
3.932000	 65.151
4.016000	 65.2153
4.100000	 64.9861
4.184000	 65.0939
4.268000	 65.0571
4.352000	 64.9177
4.436000	 65.057
4.520000	 64.961
4.604000	 64.925
4.688000	 64.9737
4.772000	 64.8824
4.856000	 64.839
4.940000	 64.9443
5.024000	 64.9012
5.108000	 64.9591
5.192000	 64.8542
5.276000	 64.8711
5.359999	 64.8473
5.444000	 64.882
5.528000	 64.8108
5.612000	 64.6797
5.696000	 64.6994
5.780000	 64.5122
5.864000	 64.7106
5.948000	 64.7104
6.032000	 64.8287
6.116000	 64.7832
6.200000	 64.6552
6.284000	 64.6579
6.368000	 64.6618
6.452000	 64.6108
6.536000	 64.6629
6.620000	 64.7965
6.704000	 64.7708
6.788000	 64.6584
6.872000	 64.5675
6.956000	 64.5999
7.040000	 64.4754
7.124000	 64.5246
7.208000	 64.5136
7.292000	 64.426
7.376000	 64.5486
7.460000	 64.517
7.544000	 64.4018
7.628000	 64.4177
7.712000	 64.3587
7.796000	 64.3119
7.880000	 64.2901
7.964000	 64.3362
8.048000	 64.2928
8.132000	 64.2544
8.216000	 64.3353
8.300000	 64.3279
8.384000	 64.4215
8.468000	 64.1925
8.552000	 64.2522
8.635999	 64.2949
8.719999	 64.2045
8.804000	 64.1937
8.888000	 64.2475
8.972000	 64.3992
9.056000	 64.1362
9.140000	 64.4603
9.224000	 64.397
9.308000	 64.1728
9.391999	 64.0881
9.475999	 64.2259
9.560000	 64.1005
9.644000	 64.1488
9.728000	 64.2124
9.812000	 64.171
9.896000	 64.1763
9.980000	 64.0694
10.064	64.3495
10.148	64.3026
10.232	64.4142
10.316	64.2264
10.4	64.2907
10.484	64.2003
10.568	64.309
10.652	64.2944
10.736	64.2264
10.82	64.2335
10.904	64.3028
10.988	64.1266
11.072	64.1932
11.156	64.2527
11.24	64.1802
11.324	63.9437
11.408	64.0604
11.492	64.1691
11.576	64.1449
11.66	64.2056
11.744	64.3993
11.828	64.4777
11.912	64.2392
11.996	64.0223
12.08	63.8585
12.164	63.9712
12.248	64.1559
12.332	64.2303
12.416	64.085
12.5	63.9364
12.584	64.0764
12.668	64.1269
12.752	64.3065
12.836	64.3763
12.92	64.2212
13.004	64.0616
13.088	64.1162
13.172	64.1929
13.256	64.2333
13.34	64.2424
13.424	64.0436
13.508	64.0069
13.592	64.0532
13.676	64.0641
13.76	64.2037
13.844	64.3122
13.928	64.2669
14.012	64.1361
14.096	64.0293
14.18	64.0237
14.264	64.0861
14.348	64.0622
14.432	63.9707
14.516	64.0193
14.6	64.0717
14.684	64.0262
14.768	63.9924
14.852	63.9799
14.936	63.8902
15.02	63.7584
15.104	63.8079
15.188	63.9127
15.272	63.8326
15.356	63.7831
15.44	63.9428
15.524	64.1128
15.608	64.1301
15.692	63.9854
15.776	63.7292
15.86	63.604
15.944	63.7343
16.028	63.9203
16.112	64.0647
16.196	64.2606
16.28	64.4054
16.364	64.2749
16.448	63.9661
16.532	63.848
16.616	64.0432
16.7	64.3125
16.784	64.4377
16.868	64.3792
16.952	64.1716
17.036	63.9057
17.12	63.7376
17.204	63.7604
17.288	63.8777
17.372	63.8697
17.456	63.6381
17.54	63.3496
17.624	63.2663
17.708	63.4557
17.792	63.7499
17.876	63.9423
17.96	63.9599
18.044	63.8885
18.128	63.8935
18.212	64.0615
18.296	64.32
18.38	64.5261
18.464	64.5608
18.548	64.3552
18.632	63.9251
18.716	63.4051
18.8	63.0062
18.884	62.9295
18.968	63.2492
19.052	63.8443
19.136	64.4622
19.22	64.8829
19.304	65.033
19.388	64.9853
19.472	64.8586
19.556	64.7057
19.64	64.4901
19.724	64.1532
19.808	63.7087
19.892	63.2466
19.976	62.8925
20.06	62.7551
20.144	62.8935
20.228	63.2753
20.312	63.7316
20.396	63.9933
20.48	63.8572
20.564	63.3518
20.648	62.7627
20.732	62.4524
20.816	62.6215
20.9	63.1857
20.984	63.8427
21.068	64.2766
21.152	64.3496
21.236	64.1578
21.32	63.9385
21.404	63.9108
21.488	64.1354
21.572	64.4949
21.656	64.7626
21.74	64.7305
21.824	64.3357
21.908	63.7117
21.992	63.0988
22.076	62.7039
22.16	62.6011
22.244	62.7091
22.328	62.8714
22.412	62.9503
22.496	62.8845
22.58	62.7181
22.664	62.5694
22.748	62.5647
22.832	62.7576
22.916	63.1206
23	63.5484
23.084	63.9259
23.168	64.1788
23.252	64.3105
23.336	64.3824
23.42	64.4449
23.504	64.5094
23.588	64.5265
23.672	64.4117
23.756	64.0868
23.84	63.5342
23.924	62.8185
24.008	62.1002
24.092	61.6215
24.176	61.6181
24.26	62.1912
24.344	63.2472
24.428	64.5297
24.512	65.6884
24.596	66.4639
24.68	66.7933
24.764	66.8345
24.848	66.8752
24.932	67.2034
25.016	67.9291
25.1	68.9337
25.184	69.8893
25.268	70.3878
25.352	70.0846
25.436	68.8151
25.52	66.7275
25.604	64.2459
25.688	61.7945
25.772	59.8289
25.856	58.7832
25.94	59.2727
26.024	61.1904
26.108	63.1092
26.192	63.95
26.276	63.7428
26.36	64.6685
26.444	67.9316
26.528	72.894
26.612	75.3273
26.696	72.2966
26.78	65.0542
26.864	59.9365
26.948	63.5332
27.028	73.6676

File: BZ1503107-1_t15_cm-1.asc
PE IR       SPECTRUM    SPECTRUM    ASCII       PEDS        1.60
  -1
BZ6DA1~1.ASC
17/04/07
14:25:45.00
17/04/07
14:25:45.00
tln
$BZ1503107-1_t0015$<tbV0>[5.2,-10.4,8.0,0.0,27,1,0]
370
64

2002,4.07
MIRTGS : RIGHTBACK : INTERNAL 2
MIR : ON : INTERNAL 2
OPTKBR

0.200000
8
8.000000
FILLER
RATIO
SPECTRUM
UNLOCKED 256

DOUBLE
64
COMBINED
1
0
0

1.000000
RATIO

1
0
TRUE
51149
0
LEFT NOT FITTED RIGHT NOT FITTED 0
NONE
NONE
15600
12
4.427000
51148
TRUE
1 0 8 72 0 0 0 0

15798

#HDR
-1
-1
#GR
CM-1
%T
2.38419e-05
0.0
5000
-1.000000
4631
8
88.6363
56.5448
#DATA
5000	64.6437
4984	61.9673
4968	64.3246
4952	64.4135
4936	65.3024
4920	64.2952
4904	64.6479
4888	64.5199
4872	64.5698
4856	65.5933
4840	65.6525
4824	64.9416
4808	65.3253
4792	65.6341
4776	65.3429
4760	65.6479
4744	64.9735
4728	64.8765
4712	64.6947
4696	64.7566
4680	65.021
4664	64.7921
4648	65.1316
4632	64.7913
4616	64.7365
4600	64.6709
4584	64.6899
4568	64.0577
4552	63.7513
4536	64.0838
4520	63.4588
4504	64.2542
4488	67.0556
4472	64.6619
4456	62.2551
4440	77.6084
4424	65.5333
4408	64.5187
4392	63.5046
4376	64.1262
4360	64.341
4344	64.4546
4328	64.2716
4312	64.5161
4296	64.5533
4280	64.7881
4264	64.6886
4248	64.6862
4232	65.3399
4216	65.0728
4200	65.2007
4184	65.4116
4168	65.1842
4152	65.5333
4136	65.1376
4120	65.3062
4104	65.1942
4088	65.2226
4072	65.2859
4056	65.6092
4040	65.2009
4024	65.3659
4008	65.132
3992	64.9138
3976	65.1881
3960	65.0813
3944	65.1078
3928	64.9079
3912	65.1315
3896	65.1201
3880	65.3796
3864	64.9539
3848	65.1392
3832	65.3457
3816	65.4182
3800	65.2651
3784	65.076
3768	65.3152
3752	65.5556
3736	65.4389
3720	65.4011
3704	65.2779
3688	65.565
3672	65.6369
3656	65.234
3640	65.3592
3624	65.4335
3608	65.3137
3592	65.2853
3576	65.3062
3560	65.1478
3544	65.237
3528	65.1724
3512	65.0969
3496	65.0468
3480	65.2877
3464	64.8184
3448	65.1401
3432	65.1196
3416	65.1795
3400	65.1366
3384	65.1705
3368	65.0619
3352	65.2926
3336	65.2957
3320	65.3929
3304	65.1935
3288	65.2016
3272	65.1393
3256	65.3223
3240	65.1464
3224	65.1134
3208	65.3408
3192	65.3245
3176	65.2985
3160	65.334
3144	65.1421
3128	64.9451
3112	65.0194
3096	65.2637
3080	65.1836
3064	64.9954
3048	65.1845
3032	65.2271
3016	65.2039
3000	65.277
2984	65.0767
2968	64.9994
2952	65.134
2936	65.0348
2920	64.9336
2904	65.0514
2888	65.0721
2872	65.1308
2856	65.05
2840	65.1757
2824	65.1364
2808	65.1403
2792	65.1418
2776	65.1817
2760	65.088
2744	65.1206
2728	65.0605
2712	65.0826
2696	65.1841
2680	65.0888
2664	65.0172
2648	64.9739
2632	64.9644
2616	65.1239
2600	65.0412
2584	65.0941
2568	65.0441
2552	65.2226
2536	65.07
2520	65.0881
2504	64.9183
2488	65.2591
2472	65.1434
2456	65.0153
2440	64.9847
2424	65.0714
2408	65.0486
2392	65.1191
2376	65.0853
2360	65.0846
2344	65.0605
2328	65.0552
2312	64.9333
2296	64.9461
2280	64.9228
2264	65.0061
2248	65.0572
2232	64.8997
2216	64.9927
2200	64.9564
2184	64.9065
2168	64.989
2152	64.6596
2136	64.9654
2120	65.0335
2104	64.9731
2088	64.9545
2072	64.9238
2056	64.8466
2040	64.9667
2024	64.9458
2008	64.904
1992	64.8924
1976	64.8739
1960	64.9917
1944	64.8721
1928	64.8338
1912	64.8673
1896	64.8483
1880	64.8489
1864	64.8803
1848	64.926
1832	64.8849
1816	64.7797
1800	64.8853
1784	64.7092
1768	64.8315
1752	64.6764
1736	64.5917
1720	64.6681
1704	64.7501
1688	64.7103
1672	64.7026
1656	64.8449
1640	64.713
1624	64.8519
1608	64.6427
1592	64.6545
1576	64.8245
1560	64.7452
1544	64.6864
1528	64.6761
1512	64.7696
1496	64.9168
1480	64.6058
1464	64.6429
1448	64.4782
1432	64.5505
1416	64.4841
1400	64.5931
1384	64.4808
1368	64.5167
1352	64.5588
1336	64.4432
1320	64.4193
1304	64.2874
1288	64.3881
1272	64.2929
1256	64.34
1240	64.3156
1224	64.3114
1208	64.3094
1192	64.4083
1176	64.2172
1160	64.2605
1144	64.1757
1128	64.2606
1112	64.3986
1096	64.3749
1080	64.344
1064	64.0825
1048	64.1567
1032	64.2392
1016	64.2056
1000	64.1409
984	 64.3216
968	 64.2207
952	 64.1935
936	 64.2645
920	 64.2845
904	 64.1683
888	 64.1273
872	 64.1601
856	 64.2552
840	 64.2639
824	 63.9041
808	 64.1873
792	 64.1068
776	 64.2946
760	 64.19
744	 64.0146
728	 64.1554
712	 64.0849
696	 64.0374
680	 64.0134
664	 63.7548
648	 63.9231
632	 63.6262
616	 64.348
600	 64.2154
584	 63.7349
568	 63.2592
552	 63.8829
536	 63.7725
520	 64.917
504	 63.5208
488	 63.8049
472	 64.2904
456	 63.5412
440	 62.548
424	 64.5278
408	 65.6626
392	 66.9973
376	 75.2953
370	 73.6676

File: BZ1503107-1_t16.asc
PE IR       SPECTRUM    SPECTRUM    ASCII       PEDS        1.60
  -1
BZ216B~1.ASC
17/04/07
14:30:22.00
17/04/07
14:30:48.00
tln
$BZ1503107-1_t0016$<tbV0>[2.6,-10.4,8.0,0.0,27,1,0]
27.028
64

2002,4.07
MIRTGS : RIGHTBACK : INTERNAL 2
MIR : ON : INTERNAL 2
OPTKBR

0.200000
8
8.000000
FILLER
RATIO
SPECTRUM
UNLOCKED 256

DOUBLE
64
COMBINED
1
0
0

0.002000
RATIO

1
0
TRUE
51149
0
LEFT NOT FITTED RIGHT NOT FITTED 0
NONE
NONE
15600
12
4.427000
51148
TRUE
1 0 8 72 0 0 0 0

15798

#HDR
-1
-1
#GR
µM
%T
2.38419e-05
0.0
2.000000
0.002000
12515
8
75.3616
38.0228
#DATA
2.000000	 64.2256
2.084000	 65.8691
2.168000	 64.672
2.252000	 68.5881
2.336000	 64.9922
2.420000	 65.3405
2.504000	 65.1762
2.588000	 65.1092
2.672000	 65.4628
2.756000	 65.5205
2.840000	 65.1664
2.924000	 65.3398
3.008000	 65.4285
3.092000	 65.1345
3.176000	 65.1222
3.260000	 65.2235
3.344000	 65.2468
3.428000	 65.0628
3.512000	 65.0392
3.596000	 65.1437
3.680000	 65.1073
3.764000	 65.0876
3.848000	 65.0529
3.932000	 65.016
4.016000	 65.0713
4.100000	 64.959
4.184000	 64.9271
4.268000	 65.0657
4.352000	 64.8989
4.436000	 64.9587
4.520000	 64.9462
4.604000	 64.963
4.688000	 64.8471
4.772000	 64.8227
4.856000	 64.8691
4.940000	 64.8881
5.024000	 64.8358
5.108000	 64.8765
5.192000	 64.753
5.276000	 64.9165
5.359999	 64.8368
5.444000	 64.8011
5.528000	 64.8172
5.612000	 64.8102
5.696000	 64.7801
5.780000	 64.3644
5.864000	 64.6946
5.948000	 64.7045
6.032000	 64.7159
6.116000	 64.6682
6.200000	 64.6511
6.284000	 64.7037
6.368000	 64.709
6.452000	 64.8263
6.536000	 64.6872
6.620000	 64.8363
6.704000	 64.6841
6.788000	 64.6254
6.872000	 64.6027
6.956000	 64.6776
7.040000	 64.4208
7.124000	 64.5588
7.208000	 64.397
7.292000	 64.4402
7.376000	 64.3905
7.460000	 64.5604
7.544000	 64.4295
7.628000	 64.2257
7.712000	 64.3513
7.796000	 64.3011
7.880000	 64.2236
7.964000	 64.2425
8.048000	 64.1939
8.132000	 64.2331
8.216000	 64.1994
8.300000	 64.2119
8.384000	 64.3783
8.468000	 64.2048
8.552000	 64.0845
8.635999	 64.1504
8.719999	 64.152
8.804000	 64.4579
8.888000	 64.4728
8.972000	 64.2059
9.056000	 64.0523
9.140000	 64.1195
9.224000	 64.3529
9.308000	 64.1663
9.391999	 64.0872
9.475999	 64.266
9.560000	 64.1325
9.644000	 64.151
9.728000	 64.263
9.812000	 64.1515
9.896000	 64.2854
9.980000	 64.1748
10.064	64.3198
10.148	64.0032
10.232	63.8575
10.316	64.2272
10.4	64.2132
10.484	64.2713
10.568	64.2832
10.652	64.1993
10.736	64.2969
10.82	64.3693
10.904	64.3964
10.988	64.3486
11.072	64.1393
11.156	64.2207
11.24	64.0201
11.324	64.1035
11.408	64.182
11.492	64.1147
11.576	64.0495
11.66	64.2453
11.744	64.4128
11.828	64.399
11.912	64.1749
11.996	64.0865
12.08	64.0758
12.164	64.0924
12.248	64.0665
12.332	64.1873
12.416	64.1874
12.5	64.101
12.584	64.1191
12.668	64.2657
12.752	64.3712
12.836	64.3155
12.92	64.1791
13.004	64.137
13.088	64.0643
13.172	64.1218
13.256	64.2168
13.34	64.0901
13.424	63.9974
13.508	63.992
13.592	63.9335
13.676	64.0072
13.76	64.1409
13.844	64.0889
13.928	64.0918
14.012	64.2009
14.096	64.1724
14.18	63.9844
14.264	63.9539
14.348	64.1425
14.432	64.324
14.516	64.359
14.6	64.1349
14.684	63.8289
14.768	63.7496
14.852	63.7526
14.936	63.6425
15.02	63.531
15.104	63.5771
15.188	63.7297
15.272	63.8064
15.356	63.8768
15.44	64.0925
15.524	64.3033
15.608	64.3386
15.692	64.2181
15.776	64.0514
15.86	63.9908
15.944	64.0633
16.028	64.1008
16.112	64.0129
16.196	63.9129
16.28	63.9055
16.364	63.9629
16.448	64.0528
16.532	64.1719
16.616	64.2569
16.7	64.2458
16.784	64.2166
16.868	64.2887
16.952	64.3896
17.036	64.4011
17.12	64.4284
17.204	64.6244
17.288	64.8796
17.372	64.9242
17.456	64.6255
17.54	64.1264
17.624	63.8063
17.708	63.9541
17.792	64.4251
17.876	64.8228
17.96	64.9864
18.044	65.0302
18.128	65.0065
18.212	64.8816
18.296	64.7894
18.38	64.9407
18.464	65.2293
18.548	65.236
18.632	64.7099
18.716	63.8755
18.8	63.1962
18.884	62.9674
18.968	63.1491
19.052	63.4454
19.136	63.5758
19.22	63.5102
19.304	63.4755
19.388	63.6806
19.472	64.058
19.556	64.2788
19.64	64.0758
19.724	63.5591
19.808	63.1425
19.892	63.1601
19.976	63.5915
20.06	64.1349
20.144	64.4867
20.228	64.5141
20.312	64.254
20.396	63.8391
20.48	63.4376
20.564	63.1911
20.648	63.1401
20.732	63.2001
20.816	63.2411
20.9	63.2104
20.984	63.1708
21.068	63.2153
21.152	63.3622
21.236	63.5437
21.32	63.6874
21.404	63.8023
21.488	63.9528
21.572	64.1529
21.656	64.3074
21.74	64.2775
21.824	64.0205
21.908	63.6804
21.992	63.501
22.076	63.6406
22.16	64.0389
22.244	64.4445
22.328	64.6034
22.412	64.4361
22.496	64.1133
22.58	63.9222
22.664	64.085
22.748	64.6173
22.832	65.3354
22.916	65.9734
23	66.3534
23.084	66.4485
23.168	66.3753
23.252	66.2846
23.336	66.2551
23.42	66.2129
23.504	65.9964
23.588	65.4825
23.672	64.6925
23.756	63.8232
23.84	63.1521
23.924	62.9089
24.008	63.1747
24.092	63.8603
24.176	64.7519
24.26	65.5597
24.344	65.9849
24.428	65.8366
24.512	65.0363
24.596	63.6627
24.68	61.9856
24.764	60.4321
24.848	59.3866
24.932	59.1149
25.016	59.6399
25.1	60.743
25.184	62.0014
25.268	62.949
25.352	63.2288
25.436	62.6952
25.52	61.517
25.604	60.1172
25.688	58.8393
25.772	58.0194
25.856	58.0152
25.94	59.5275
26.024	62.6535
26.108	66.1385
26.192	68.8021
26.276	70.1961
26.36	71.7214
26.444	73.7893
26.528	75.3421
26.612	72.3339
26.696	62.6793
26.78	48.9692
26.864	38.9776
26.948	40.3669
27.028	51.1831